LineNo,TimeUS,I,GyrX,GyrY,GyrZ,AccX,AccY,AccZ,EG,EA,T,GH,AH,GHz,AHz
184,57935342,2,0.001692037,0.00193266,0.001596123,-0.07647597,0.06407119,-9.868186,0,0,38.40229,1,1,7745,3872
295,57959320,2,-0.0001420605,0.002286311,0.002428572,-0.08664838,0.0561684,-9.866671999999999,0,0,38.40292,1,1,7745,3872
326,57961474,2,-0.0001339758,0.00203327,0.001737462,-0.08482004999999999,0.05791746,-9.862187,0,0,38.40299,1,1,7745,3872
409,57983380,2,-0.002835594,-0.0008664806,0.001738997,-0.07973395,0.0597657,-9.844624,0,0,38.40344,1,1,7745,3872
522,58007322,2,6.910914e-06,-0.001686627,0.001149749,-0.08093578999999999,0.06974953,-9.851932,0,0,38.4037,1,1,7745,3872
525,58008537,2,-0.0003695295,-0.0007565432,0.001809132,-0.08555888,0.06720212,-9.849266,0,0,38.40368,1,1,7745,3872
556,58011556,2,-0.0004997212,-5.195187e-05,0.001671295,-0.08765897,0.0664956,-9.848882,0,0,38.40366,1,1,7745,3872
631,58031151,2,0.00107561,0.002036482,-0.002140496,-0.09511936999999999,0.05861347,-9.860544000000001,0,0,38.4034,1,1,7745,3872
747,58052943,2,0.003926145,-0.0002897634,-0.0001410022,-0.08615651000000001,0.06032878,-9.855598000000001,0,0,38.40305,1,1,7745,3872
778,58055921,2,0.003325433,3.57415e-05,-0.0003951023,-0.08460282,0.06088708,-9.856679,0,0,38.403,1,1,7745,3872
858,58073777,2,0.004184438,-0.0009638336,-0.0004189971,-0.09173013000000001,0.05182199,-9.862662,0,0,38.40272,1,1,7745,3872
974,58096323,2,0.001427015,-0.0006393129,0.002841748,-0.1097308,0.0514398,-9.854074000000001,0,0,38.40208,1,1,7745,3872
1089,58140049,2,-0.0005911746,0.0003776746,0.002446403,-0.1010877,0.04961995,-9.851777,0,0,38.40105,1,1,7745,3872
1204,58229943,2,0.003224646,8.312224e-05,0.0006305607,-0.08616348,0.06002903,-9.864235000000001,0,0,38.40005,1,1,7745,3872
1295,58278012,2,0.001025045,0.001437346,0.0009625662000000001,-0.08835019,0.05430527,-9.863564999999999,0,0,38.39875,1,1,7745,3872
1326,58281358,2,-5.719488e-07,0.001724435,0.00217551,-0.08834245,0.0539326,-9.861647,0,0,38.39867,1,1,7745,3872
1389,58291252,2,-0.001188112,-0.0006041218000000001,0.0007115178,-0.08761041999999999,0.05833927,-9.871119999999999,0,0,38.39844,1,1,7745,3872
1392,58293102,2,-0.001007092,0.0002880669,0.0002545454,-0.08703095,0.05949964,-9.874795000000001,0,0,38.39837,1,1,7745,3872
1423,58295811,2,-0.0005162383999999999,0.0006962359,-0.001211685,-0.08690998,0.0613407,-9.874442,0,0,38.39827,1,1,7745,3872
1484,58309576,2,-0.001622598,-0.0002631729,0.0003294887,-0.09406152,0.06767291,-9.854877,0,0,38.39789,1,1,7745,3872
1572,58327414,2,0.0001683323,-0.001064524,-0.0001636878,-0.09876284,0.06632411000000001,-9.872128,0,0,38.39748,1,1,7745,3872
1603,58329904,2,-0.0005318146,-0.0004223568,-0.000394157,-0.1014552,0.06449967,-9.874197000000001,0,0,38.39742,1,1,7745,3872
1616,58332701,2,-0.0006775849,-6.435379999999999e-07,-0.0002484142,-0.1042374,0.06278619000000001,-9.877191,0,0,38.39739,1,1,7745,3872
1619,58334556,2,-0.0002758037,0.0008930643,-0.0002718639,-0.1046368,0.06213317,-9.878925000000001,0,0,38.39734,1,1,7745,3872
1626,58337752,2,0.0004379904,0.00165167,-0.00092495,-0.102682,0.06300478,-9.879930999999999,0,0,38.39733,1,1,7745,3872
1657,58340600,2,0.001848556,0.001308621,-0.0005620414999999999,-0.1006321,0.06540151,-9.878740000000001,0,0,38.3973,1,1,7745,3872
1660,58342908,2,0.00274713,0.001164603,0.0006632045,-0.1000549,0.06775198,-9.876535000000001,0,0,38.39727,1,1,7745,3872
1663,58345547,2,0.001719728,0.000545815,0.000938797,-0.1005535,0.06808974,-9.873414,0,0,38.39725,1,1,7745,3872
1667,58347744,2,0.001071976,-3.650986e-05,3.016524e-05,-0.1019761,0.06880477,-9.868375,0,0,38.39722,1,1,7745,3872
1698,58350155,2,0.0005854648,-0.0001354771,-0.0006586129,-0.10179,0.06931354000000001,-9.867182,0,0,38.39721,1,1,7745,3872
1701,58353074,2,0.0005244106,2.413102e-06,-0.002521384,-0.1001858,0.06852672999999999,-9.866533,0,0,38.39717,1,1,7745,3872
1704,58355160,2,0.0005600057000000001,-7.728499e-05,-0.002650537,-0.09847739,0.06669041000000001,-9.863963,0,0,38.39714,1,1,7745,3872
1707,58358011,2,7.346552e-05,5.489027e-05,-0.001744282,-0.09559392,0.06238025,-9.862128999999999,0,0,38.39711,1,1,7745,3872
1738,58360322,2,0.0008473166,0.001294613,-0.0006905398000000001,-0.09288628,0.06010199,-9.863695,0,0,38.3971,1,1,7745,3872
1741,58363060,2,0.001483914,0.00183595,-0.0002652257,-0.09064734000000001,0.05925756,-9.866251,0,0,38.3971,1,1,7745,3872
1744,58366032,2,0.001781406,0.002234898,0.0001612309,-0.08907595,0.05952208,-9.868641999999999,0,0,38.3971,1,1,7745,3872
1748,58368386,2,0.001652201,0.002759752,-9.931879e-05,-0.09025718000000001,0.05900448,-9.869441999999999,0,0,38.3971,1,1,7745,3872
1779,58370978,2,0.0003001093,0.001957441,-0.00132978,-0.09581929,0.05958566,-9.870638,0,0,38.3971,1,1,7745,3872
1782,58373525,2,-0.0001916175,0.00107261,-0.000247531,-0.1024618,0.06022883,-9.874383999999999,0,0,38.3971,1,1,7745,3872
1785,58377519,2,5.611682e-05,0.0004092856,0.0005014892,-0.1042928,0.05975889,-9.876011,0,0,38.3971,1,1,7745,3872
1788,58381541,2,0.00215223,-0.0001086937,0.0004429019,-0.1039366,0.05721226,-9.875999,0,0,38.39717,1,1,7745,3872
1820,58384556,2,0.001646174,0.0001507644,0.0007850644,-0.1056376,0.05563943,-9.876564,0,0,38.39722,1,1,7745,3872
1823,58387334,2,0.001031838,-7.766777e-05,0.0007871048,-0.1067832,0.05476606,-9.876281000000001,0,0,38.39725,1,1,7745,3872
1826,58389676,2,0.00105293,0.0004451535,-0.0003782663,-0.108022,0.05376009,-9.875470999999999,0,0,38.39729,1,1,7745,3872
1831,58392703,2,0.000802609,0.001157062,-0.0009008495,-0.1086354,0.05298591,-9.872954,0,0,38.39731,1,1,7745,3872
1862,58395020,2,0.0004501977,0.001354888,-0.0006185145,-0.1088442,0.05228147,-9.869687000000001,0,0,38.39734,1,1,7745,3872
1866,58397493,2,0.0006461993,0.0007859088,-0.0003473317,-0.108145,0.05301666,-9.864554999999999,0,0,38.39737,1,1,7745,3872
1869,58400555,2,0.001100996,0.0002468184,0.0002880091,-0.1074352,0.052886,-9.861522000000001,0,0,38.3974,1,1,7745,3872
1872,58402552,2,0.001600601,0.0005095124,0.001469849,-0.1038738,0.05115304,-9.857791000000001,0,0,38.39747,1,1,7745,3872
1903,58405550,2,0.002302984,0.001108749,0.001891767,-0.09935687999999999,0.04789153,-9.855599,0,0,38.39757,1,1,7745,3872
1907,58407561,2,0.001780884,0.001910048,0.001981127,-0.09730977,0.04571201,-9.8529,0,0,38.39761,1,1,7745,3872
1910,58410156,2,0.001027406,0.002375742,0.001803117,-0.09707105000000001,0.0443503,-9.850135,0,0,38.39765,1,1,7745,3872
1913,58413280,2,0.0002139783,0.002549741,0.002210187,-0.09749287,0.04368709,-9.846152,0,0,38.39771,1,1,7745,3872
1944,58415493,2,-0.000668084,0.001637675,0.001475272,-0.09878018,0.04557893,-9.842974,0,0,38.39779,1,1,7745,3872
1948,58418335,2,-0.0006926417,0.001029079,0.001751789,-0.100782,0.04854348,-9.841805000000001,0,0,38.39783,1,1,7745,3872
1951,58420708,2,-0.0004816409,0.0008384821,0.001640279,-0.1016354,0.0516663,-9.841970999999999,0,0,38.3979,1,1,7745,3872
1954,58423738,2,-0.000588059,0.0004519466,0.002242744,-0.1011225,0.05387884,-9.842295999999999,0,0,38.39796,1,1,7745,3872
1985,58425967,2,-0.0005001581,0.000721385,0.002699451,-0.09942424,0.05457757,-9.845723,0,0,38.39803,1,1,7745,3872
1988,58428955,2,0.0007292039,0.000927394,0.002178947,-0.09654846,0.05386092,-9.848807000000001,0,0,38.39809,1,1,7745,3872
1991,58431330,2,0.0009742043,0.0009546398999999999,0.001001856,-0.09348977,0.05273056,-9.848977,0,0,38.39816,1,1,7745,3872
1995,58434332,2,0.0006877042,0.001263207,0.0004824045,-0.08894663,0.05046376,-9.851181,0,0,38.39822,1,1,7745,3872
2026,58436643,2,8.129451000000001e-05,0.0008442541,0.000161124,-0.08716202000000001,0.04819829,-9.853474,0,0,38.3983,1,1,7745,3872
2030,58439908,2,0.0002825223,0.000971231,-2.661672e-05,-0.08666167,0.04741087,-9.855297,0,0,38.39833,1,1,7745,3872
2038,58442030,2,0.001008394,-0.0001262575,-0.0008099386000000001,-0.08727992,0.04594123,-9.860975,0,0,38.39838,1,1,7745,3872
2041,58444178,2,0.001455128,-0.0003129471,-0.001464291,-0.08825889000000001,0.04460558,-9.864761,0,0,38.39841,1,1,7745,3872
2074,58447246,2,0.001212883,0.000292989,-0.001392004,-0.08965886000000001,0.04317122,-9.868344,0,0,38.39842,1,1,7745,3872
2077,58449934,2,0.0007173277,0.0003281159,-0.0005487718,-0.08981268000000001,0.04257407,-9.869206999999999,0,0,38.39842,1,1,7745,3872
2080,58451518,2,0.000252556,6.188037e-05,0.0004157647,-0.08982171999999999,0.04310563,-9.870611999999999,0,0,38.39842,1,1,7745,3872
2083,58454591,2,0.0003730629,0.0001413192,0.0005427737,-0.09009266,0.04378549,-9.871993,0,0,38.39842,1,1,7745,3872
2114,58456775,2,0.0003714002,0.0005242261,0.001082317,-0.09037004999999999,0.04630655,-9.877922,0,0,38.39841,1,1,7745,3872
2118,58459877,2,0.0002950311,0.001047114,0.001555085,-0.08882704,0.04875591,-9.881722,0,0,38.39839,1,1,7745,3872
2121,58462164,2,0.0003283903,0.0007673737,0.001239934,-0.08771195,0.05088755,-9.883162,0,0,38.39837,1,1,7745,3872
2124,58464359,2,0.0003223078,0.0009036481,0.0002674574,-0.08818054,0.0523807,-9.880157000000001,0,0,38.39834,1,1,7745,3872
2155,58466611,2,-0.0001448432,0.001837002,0.0002051403,-0.09026482,0.05550516,-9.873711,0,0,38.39833,1,1,7745,3872
2158,58469468,2,-0.0002905036,0.002077278,0.0004268078,-0.09245279000000001,0.05631495,-9.87135,0,0,38.39833,1,1,7745,3872
2161,58472866,2,0.0009071516,0.001809318,-0.0004907467,-0.09361123,0.05731229,-9.866548999999999,0,0,38.39833,1,1,7745,3872
2164,58474397,2,0.00114654,0.001717702,-0.0006902441,-0.09409766999999999,0.05703623,-9.863319000000001,0,0,38.39833,1,1,7745,3872
2195,58477393,2,0.0009306223,0.0008395843,-4.93607e-05,-0.09516846,0.05556628,-9.861484000000001,0,0,38.39832,1,1,7745,3872
2199,58479363,2,0.000922571,6.498933999999999e-05,-0.0001396383,-0.09515198,0.05460426,-9.860682000000001,0,0,38.3983,1,1,7745,3872
2202,58482481,2,0.001318646,-0.0002681014,-0.001362147,-0.09444597,0.05451941,-9.862667999999999,0,0,38.39826,1,1,7745,3872
2205,58484389,2,0.001455945,-0.0007045525,-0.001002539,-0.09277924,0.05571276,-9.863996,0,0,38.39823,1,1,7745,3872
2236,58486706,2,0.0007367808,-0.001113655,-0.0004891249000000001,-0.09042509,0.05690668,-9.865290999999999,0,0,38.39821,1,1,7745,3872
2240,58490561,2,0.0005049211,-0.001274014,-0.0004100746,-0.08906996,0.05864061,-9.865819999999999,0,0,38.3982,1,1,7745,3872
2243,58491803,2,0.0008199604,-0.0007484163,-7.67482e-05,-0.08900710000000001,0.06232614,-9.867425000000001,0,0,38.3982,1,1,7745,3872
2247,58495116,2,0.001155733,0.0006098746,0.001154869,-0.08753332,0.06457031000000001,-9.871390999999999,0,0,38.3982,1,1,7745,3872
2278,58497249,2,0.001144031,0.001317892,0.0009728569,-0.08400546,0.06434201000000001,-9.869009999999999,0,0,38.39821,1,1,7745,3872
2281,58500695,2,0.0004885656,0.001173185,-0.0002376858,-0.08191979000000001,0.06535618999999999,-9.865970000000001,0,0,38.39822,1,1,7745,3872
2284,58501964,2,0.0005823069,0.0005098328,-0.001218186,-0.08010660999999999,0.06651401,-9.865231,0,0,38.39823,1,1,7745,3872
2290,58504961,2,0.001463076,-0.0004844012,-0.001997598,-0.07794244,0.06664672000000001,-9.865138,0,0,38.39825,1,1,7745,3872
2321,58507534,2,0.001388707,-0.0009135387,-0.001806509,-0.07889665999999999,0.06722537000000001,-9.863495,0,0,38.3983,1,1,7745,3872
2325,58509925,2,0.0009659779,-0.000551741,-0.001499184,-0.08009463999999999,0.06893855,-9.864015999999999,0,0,38.39834,1,1,7745,3872
2328,58512324,2,0.001275231,-0.0001730074,-0.0008795495,-0.08144012,0.07042854,-9.865155,0,0,38.39838,1,1,7745,3872
2331,58514494,2,0.002057305,6.841758000000001e-05,-4.962615e-06,-0.08462502,0.072755,-9.864642999999999,0,0,38.39844,1,1,7745,3872
2362,58516894,2,0.002298111,0.0002934971,0.0002626272,-0.08563814,0.07368764,-9.864017,0,0,38.39848,1,1,7745,3872
2365,58520029,2,0.002612105,-0.0004978072,0.0008447641000000001,-0.08913226,0.07539870999999999,-9.861077999999999,0,0,38.39855,1,1,7745,3872
2368,58522020,2,0.002462492,-0.0005419659,0.0005092048,-0.09120821,0.07486945,-9.859890999999999,0,0,38.39861,1,1,7745,3872
2371,58524806,2,0.002211456,0.0002035216,0.000607978,-0.09125755000000001,0.07195015,-9.860493999999999,0,0,38.3987,1,1,7745,3872
2402,58527520,2,0.002072898,0.001070883,0.0009036735,-0.08987275,0.07085916,-9.859316,0,0,38.39877,1,1,7745,3872
2406,58529883,2,0.00239913,0.0009848477000000001,0.001887514,-0.08907639000000001,0.07058825000000001,-9.852465,0,0,38.39885,1,1,7745,3872
2409,58532329,2,0.002701649,0.0007612826,0.002096794,-0.08901679999999999,0.07049505,-9.846684,0,0,38.39891,1,1,7745,3872
2412,58534507,2,0.002002699,0.001264453,0.001393733,-0.08888233,0.06979691,-9.843232,0,0,38.399,1,1,7745,3872
2443,58537128,2,0.001550665,0.001687332,0.00140098,-0.08899996,0.06782734,-9.845389000000001,0,0,38.39909,1,1,7745,3872
2447,58540167,2,0.001327374,0.001711568,0.001289553,-0.08909069999999999,0.06725498000000001,-9.847644000000001,0,0,38.39916,1,1,7745,3872
2455,58542275,2,0.001138372,0.001530817,0.000460458,-0.08917915,0.06721932,-9.851188,0,0,38.39923,1,1,7745,3872
2458,58545116,2,0.00171136,0.001295302,-0.0006925740000000001,-0.08920255000000001,0.06680474,-9.855857,0,0,38.39933,1,1,7745,3872
2489,58547326,2,0.00108253,0.0001524551,-0.0001091574,-0.08987702,0.06635703,-9.860593,0,0,38.39942,1,1,7745,3872
2493,58550161,2,0.0006809572,-0.0002538121,0.0007819507,-0.09022806999999999,0.06612079,-9.862358,0,0,38.39949,1,1,7745,3872
2496,58553013,2,0.001178007,-2.372349e-05,0.001904041,-0.09009517,0.0639134,-9.867298,0,0,38.39958,1,1,7745,3872
2499,58555561,2,0.001580857,-3.864747e-05,0.001971006,-0.08949534000000001,0.0612573,-9.869329,0,0,38.39965,1,1,7745,3872
2530,58557875,2,0.001934523,-0.0006076157,0.002109619,-0.08879065999999999,0.05649442,-9.872192999999999,0,0,38.39977,1,1,7745,3872
2534,58560574,2,0.001860144,-0.0009975238,0.0009623247,-0.08727606,0.0545044,-9.87419,0,0,38.39985,1,1,7745,3872
2537,58563048,2,0.001327411,-0.0004907341,0.0005182077,-0.0865148,0.05494542,-9.875513,0,0,38.39989,1,1,7745,3872
2540,58565972,2,0.002775702,-0.0003508649,0.001204337,-0.08652984,0.05720264,-9.878667,0,0,38.40004,1,1,7745,3872
2571,58568967,2,0.003008138,-0.0001701981,0.001815751,-0.0871553,0.06069599,-9.880257,0,0,38.40015,1,1,7745,3872
2574,58570461,2,0.00226341,1.458114e-05,0.001703385,-0.08794057,0.06367151,-9.879697,0,0,38.40023,1,1,7745,3872
2577,58573023,2,0.0017045,5.35481e-05,0.001483215,-0.08870646,0.06593499,-9.878723000000001,0,0,38.4003,1,1,7745,3872
2580,58575549,2,0.001407802,-0.0009733026,0.0004170115,-0.08991109999999999,0.06723415000000001,-9.880355,0,0,38.40039,1,1,7745,3872
2614,58582304,2,0.000332722,-0.0006543776,0.0008594476,-0.09252759000000001,0.06713176999999999,-9.885693,0,0,38.40051,1,1,7745,3872
2618,58583493,2,0.0006107384,0.0007399406,0.001756124,-0.09430657000000001,0.06734891,-9.887193,0,0,38.40058,1,1,7745,3872
2621,58585932,2,0.0007409889,0.001229579,0.001862526,-0.09551105999999999,0.0673067,-9.888851000000001,0,0,38.40062,1,1,7745,3872
2652,58588361,2,0.0008934367,0.002542195,0.001424715,-0.0978677,0.06598039999999999,-9.889853,0,0,38.40069,1,1,7745,3872
2655,58591256,2,0.0006808889,0.003027918,0.001448653,-0.0988101,0.06394275000000001,-9.889073,0,0,38.40073,1,1,7745,3872
2659,58593955,2,-0.0001431103,0.002631318,0.001539764,-0.09773415000000001,0.06266115,-9.887454999999999,0,0,38.40079,1,1,7745,3872
2664,58597020,2,-0.0002308201,0.002374718,0.001460574,-0.09733304,0.06226988,-9.886105000000001,0,0,38.40083,1,1,7745,3872
2695,58599125,2,-0.001138291,0.001228792,-9.078432e-05,-0.09761705,0.05831784,-9.879269000000001,0,0,38.40086,1,1,7745,3872
2698,58601922,2,-0.001309611,0.001112686,-0.0008410831,-0.09794541,0.0555696,-9.875185999999999,0,0,38.40086,1,1,7745,3872
2702,58604322,2,-0.001404493,0.0006302897,-5.965656e-05,-0.09839129000000001,0.05267089,-9.873136000000001,0,0,38.40086,1,1,7745,3872
2705,58607178,2,-0.001425738,-0.0001421679,0.001419073,-0.09995244,0.04851929,-9.873141,0,0,38.40082,1,1,7745,3872
2736,58610001,2,-0.001538571,-0.0009066066,0.001309677,-0.1013839,0.04705079,-9.872066999999999,0,0,38.40076,1,1,7745,3872
2739,58612369,2,-0.001779242,-0.001316632,0.0007615554000000001,-0.1025135,0.04635126,-9.870282,0,0,38.40071,1,1,7745,3872
2743,58614485,2,-0.001332727,-0.000808757,0.0002370367,-0.1057564,0.04730978,-9.868876,0,0,38.40065,1,1,7745,3872
2746,58616933,2,-0.001408757,-0.0001887745,-0.0005991037,-0.107088,0.0496859,-9.870687,0,0,38.40063,1,1,7745,3872
2777,58619951,2,-0.001272791,2.008052e-05,-0.001638615,-0.1057824,0.05399035,-9.874651999999999,0,0,38.4006,1,1,7745,3872
2780,58622328,2,-0.001049157,-0.0001658157,-0.00140126,-0.1041285,0.05505455,-9.874578,0,0,38.40059,1,1,7745,3872
2783,58624391,2,-0.0001755567,-0.0003148106,-0.001327564,-0.1017591,0.05608876,-9.869453999999999,0,0,38.40055,1,1,7745,3872
2786,58626887,2,0.0003928544,-0.0002072474,-0.00140951,-0.1007163,0.05658837,-9.868295,0,0,38.40054,1,1,7745,3872
2818,58629995,2,0.0009828708999999999,-0.0001402173,-0.0009521836,-0.1010179,0.05436681,-9.869486,0,0,38.4005,1,1,7745,3872
2821,58632323,2,0.0007969853,5.370233e-05,-0.0007560503,-0.1020301,0.05163148,-9.872237,0,0,38.40045,1,1,7745,3872
2825,58634908,2,0.000795285,0.0009717225,-2.968967e-05,-0.1037215,0.04893336,-9.877034,0,0,38.40041,1,1,7745,3872
2829,58637516,2,0.0004176191,0.00120712,0.0002209086,-0.1054185,0.04769921,-9.878467000000001,0,0,38.40039,1,1,7745,3872
2860,58639890,2,-0.0002761802,0.0009136555,0.0001071801,-0.1062966,0.04775341,-9.877715999999999,0,0,38.40036,1,1,7745,3872
2863,58642376,2,0.00073642,0.0009585709,-0.0009775461,-0.1050185,0.04862547,-9.874737,0,0,38.40033,1,1,7745,3872
2870,58645887,2,0.001208247,0.001206397,-0.001296385,-0.1030358,0.04969214,-9.872567,0,0,38.4003,1,1,7745,3872
2873,58647315,2,0.002251202,0.002209021,-0.001928743,-0.1009077,0.04937262,-9.872890999999999,0,0,38.40028,1,1,7745,3872
2904,58650356,2,0.002230652,0.002170639,-0.002370639,-0.1009103,0.04914732,-9.871675,0,0,38.40028,1,1,7745,3872
2907,58652308,2,0.001704005,0.002130891,-0.001719619,-0.1031972,0.05075456,-9.867115999999999,0,0,38.40028,1,1,7745,3872
2911,58654892,2,0.0008127847,0.002454407,-0.002456325,-0.1055393,0.05173863,-9.863022000000001,0,0,38.40029,1,1,7745,3872
2914,58657986,2,0.0005930895,0.002038984,-0.001706535,-0.1090478,0.0544227,-9.860097,0,0,38.40033,1,1,7745,3872
2945,58660130,2,0.001077557,0.001462229,-0.0003096182,-0.1092424,0.05697931,-9.860906999999999,0,0,38.40039,1,1,7745,3872
2948,58663043,2,0.001160499,0.001339194,-0.0004225879,-0.1075376,0.05826988,-9.861276,0,0,38.40042,1,1,7745,3872
2952,58665879,2,0.001686633,0.001971141,-0.001514854,-0.1030903,0.06005706,-9.85919,0,0,38.40048,1,1,7745,3872
2955,58668347,2,0.002172943,0.001212355,-0.002201737,-0.1002549,0.06105594,-9.857991999999999,0,0,38.40051,1,1,7745,3872
2986,58670784,2,0.002582898,-4.047751e-05,-0.001383649,-0.09691912,0.06374259,-9.857092,0,0,38.40056,1,1,7745,3872
2990,58673404,2,0.00208703,0.0009385603,-0.0004548847,-0.09516417000000001,0.06551388,-9.855103,0,0,38.40059,1,1,7745,3872
2993,58676044,2,0.001574911,0.001450008,-0.0007472622,-0.09419136,0.06802721,-9.850251999999999,0,0,38.40062,1,1,7745,3872
2996,58679038,2,0.0006925564,0.001412947,-0.0009836087,-0.0939492,0.07134393999999999,-9.847667,0,0,38.40068,1,1,7745,3872
3027,58682872,2,9.364903e-05,0.001161332,-0.000442761,-0.09368579,0.0716567,-9.850858000000001,0,0,38.40072,1,1,7745,3872
3030,58684160,2,-0.0001665463,0.00114061,2.374104e-05,-0.0924228,0.06828082000000001,-9.855200999999999,0,0,38.40078,1,1,7745,3872
3034,58686604,2,-0.000215011,0.001700661,0.001105933,-0.09177393,0.06582578,-9.857265,0,0,38.40083,1,1,7745,3872
3037,58689369,2,0.0007040545,0.001996624,0.001979262,-0.09168295,0.06504171,-9.858948,0,0,38.40092,1,1,7745,3872
3068,58692709,2,0.001036805,0.001572123,0.002163504,-0.09366136,0.06481957000000001,-9.859868000000001,0,0,38.401,1,1,7745,3872
3071,58694268,2,0.001352557,0.001332825,0.002023809,-0.09581923000000001,0.06362901999999999,-9.859152999999999,0,0,38.40104,1,1,7745,3872
3074,58697122,2,0.002175462,0.0005587526999999999,0.00153734,-0.1011968,0.06203056,-9.860417999999999,0,0,38.4011,1,1,7745,3872
3077,58699142,2,0.002825401,5.831776e-05,0.001350092,-0.1042634,0.06199438,-9.862183,0,0,38.40118,1,1,7745,3872
3108,58701562,2,0.002874078,-0.0002467968,0.0006109399,-0.1037583,0.06393697,-9.864537,0,0,38.40125,1,1,7745,3872
3111,58704897,2,0.002542895,0.0003513695,0.000292213,-0.1027865,0.06421896000000001,-9.866422999999999,0,0,38.40134,1,1,7745,3872
3115,58706551,2,0.002580165,0.001628138,-0.0006361179,-0.1031027,0.06335401,-9.867984,0,0,38.40145,1,1,7745,3872
3118,58711893,2,0.002779831,0.001094936,-0.0002617696,-0.103323,0.05919084,-9.868492,0,0,38.40162,1,1,7745,3872
3149,58714513,2,0.002640241,0.0008968623,-0.0001167611,-0.1039433,0.05762018,-9.866482,0,0,38.4017,1,1,7745,3872
3152,58717350,2,0.001811289,0.0008275878,-2.015897e-05,-0.1039239,0.05663285,-9.86375,0,0,38.40176,1,1,7745,3872
3155,58719795,2,0.0008436554,0.001019747,0.0008972731,-0.1015696,0.05524734,-9.859143,0,0,38.40184,1,1,7745,3872
3158,58722505,2,0.0004243836,0.0006547677,0.002421407,-0.09874682,0.05567242,-9.858376,0,0,38.4019,1,1,7745,3872
3189,58724981,2,7.410025e-05,0.0005573328,0.002582803,-0.09514702999999999,0.0578412,-9.859857999999999,0,0,38.40199,1,1,7745,3872
3193,58727332,2,-0.0001296673,9.818642e-05,0.001356893,-0.09358089999999999,0.06046768,-9.862449,0,0,38.40208,1,1,7745,3872
3196,58730352,2,-0.0003635267,0.000281914,0.001365979,-0.0923937,0.06200968,-9.865062999999999,0,0,38.40215,1,1,7745,3872
3199,58733015,2,-0.0008156616,-0.0001856254,-6.071923e-05,-0.08969893,0.0623949,-9.869004,0,0,38.40228,1,1,7745,3872
3230,58735475,2,-0.001466948,-2.372987e-05,-0.0003851991,-0.08661423,0.0615463,-9.870367999999999,0,0,38.40239,1,1,7745,3872
3233,58737753,2,-0.001464947,4.759495e-05,0.0001634285,-0.08520953000000001,0.06147442,-9.869617999999999,0,0,38.40246,1,1,7745,3872
3236,58740466,2,-0.001632499,0.0001309736,0.0004827189,-0.08206661,0.06133619,-9.864414,0,0,38.40263,1,1,7745,3872
3241,58743499,2,-0.001607447,0.0003462008,0.001170171,-0.08020221,0.05998742,-9.860379999999999,0,0,38.40273,1,1,7745,3872
3272,58746454,2,-0.0005965966,0.000664819,0.002136271,-0.07688124,0.05679794,-9.854214000000001,0,0,38.40292,1,1,7745,3872
3280,58749013,2,-0.0007510094,0.00112432,0.001597869,-0.07400895,0.05640176,-9.849187000000001,0,0,38.40308,1,1,7745,3872
3283,58751069,2,-0.0005781463,0.0009434315,0.0006868457,-0.07392599,0.05671161,-9.848392,0,0,38.40317,1,1,7745,3872
3286,58753507,2,-5.339778e-05,0.001070346,0.000798987,-0.07564339,0.05810368,-9.851329,0,0,38.40331,1,1,7745,3872
3317,58756773,2,-0.0003559854,0.001031787,-0.0005789535,-0.07768889,0.05953196,-9.853434,0,0,38.40342,1,1,7745,3872
3320,58759457,2,-0.0009645944,0.0008886751,-0.000806146,-0.07931072,0.06047182,-9.853035999999999,0,0,38.4035,1,1,7745,3872
3323,58761309,2,-0.001696048,0.000739968,-0.0009094144,-0.08015017000000001,0.06357466000000001,-9.852774,0,0,38.40364,1,1,7745,3872
3326,58763885,2,-0.002170665,0.0001111707,-0.000849802,-0.08040622,0.06598061,-9.856596,0,0,38.40371,1,1,7745,3872
3357,58766323,2,-0.002132063,-0.0004041789,-0.001184994,-0.08099326,0.0678637,-9.861812,0,0,38.4038,1,1,7745,3872
3360,58769562,2,-0.001014427,0.0001345407,-0.0004786362,-0.08088242,0.06790005,-9.8627,0,0,38.40385,1,1,7745,3872
3363,58772105,2,4.181171e-05,0.001404983,6.326692e-05,-0.0809822,0.0664444,-9.863695999999999,0,0,38.40397,1,1,7745,3872
3366,58773894,2,0.0003097991,0.001412467,-0.0002195029,-0.08141696,0.06378731,-9.862686,0,0,38.40402,1,1,7745,3872
3397,58776255,2,-0.0001773394,0.0001791089,-0.0001074996,-0.08285444,0.05926715,-9.862181,0,0,38.4041,1,1,7745,3872
3400,58778757,2,-0.000527665,-0.0003514099,-0.0002516177,-0.08475042000000001,0.05677631,-9.863136000000001,0,0,38.40417,1,1,7745,3872
3405,58782246,2,-7.282303000000001e-05,6.288334e-05,0.0001154099,-0.08867311,0.05443079,-9.861776000000001,0,0,38.40426,1,1,7745,3872
3408,58784397,2,-0.0001370571,0.0005803424,0.0005913865,-0.09131475999999999,0.05289297,-9.861216000000001,0,0,38.40434,1,1,7745,3872
3439,58786780,2,0.0003156563,0.0009982149,-0.000245424,-0.09345862000000001,0.05124611,-9.8612,0,0,38.40443,1,1,7745,3872
3442,58789600,2,0.001104376,0.001787538,-1.48496e-05,-0.09398847,0.04919678,-9.861211000000001,0,0,38.40449,1,1,7745,3872
3446,58793437,2,0.001073904,0.001537795,0.0003112502,-0.09321246,0.04826376,-9.862266,0,0,38.40453,1,1,7745,3872
3449,58794702,2,0.0006892032,0.0009861239999999999,0.0003719765,-0.09108513,0.0482786,-9.864296,0,0,38.40459,1,1,7745,3872
3480,58800104,2,0.001867982,0.0006260165,-0.001000793,-0.09035232999999999,0.04956648,-9.868691999999999,0,0,38.40479,1,1,7745,3872
3485,58803156,2,0.001875826,0.0003646287,-0.001470129,-0.09147545999999999,0.04872403,-9.871010999999999,0,0,38.40486,1,1,7745,3872
3488,58805492,2,0.001182075,0.0005852499,-0.001565084,-0.09258291,0.04830262,-9.873189,0,0,38.40496,1,1,7745,3872
3519,58807714,2,6.377648e-05,0.001393526,-0.001718482,-0.0933319,0.04806086,-9.87491,0,0,38.40506,1,1,7745,3872
3522,58810514,2,-0.0002131881,0.000842669,-0.001546685,-0.09210978,0.04729324,-9.874912,0,0,38.40514,1,1,7745,3872
3526,58813504,2,0.0002284743,-0.000115705,-0.001661795,-0.08881202000000001,0.0473237,-9.871688000000001,0,0,38.40527,1,1,7745,3872
3529,58815914,2,0.0004103465,-0.0003332428,-0.001982773,-0.08826195000000001,0.0483966,-9.869453999999999,0,0,38.40534,1,1,7745,3872
3560,58818009,2,0.001170671,-5.301521e-06,-0.001792038,-0.08841417999999999,0.05187219,-9.868921,0,0,38.40541,1,1,7745,3872
3563,58820927,2,0.001604916,0.0006812394,-0.001186457,-0.08820303,0.05360518,-9.869840999999999,0,0,38.40545,1,1,7745,3872
3566,58823725,2,0.002113433,0.001423342,-0.0002727089,-0.08927201999999999,0.05587837,-9.870437000000001,0,0,38.40549,1,1,7745,3872
3569,58826247,2,0.002456912,0.001874934,-0.0002726367,-0.09127839,0.06095887,-9.871734,0,0,38.40552,1,1,7745,3872
3600,58828294,2,0.0008866824,0.002230273,-0.000683219,-0.09576301,0.0653059,-9.872897999999999,0,0,38.40557,1,1,7745,3872
3603,58830983,2,0.0001227131,0.001644671,-0.001666659,-0.09741267000000001,0.06630123,-9.872712,0,0,38.4056,1,1,7745,3872
3607,58833661,2,0.0006553839,0.0006082087,-0.002123461,-0.1015991,0.0676355,-9.871712,0,0,38.40564,1,1,7745,3872
3610,58836174,2,0.001777449,-0.0002735776,-0.001640142,-0.1026293,0.06749049999999999,-9.869872000000001,0,0,38.40567,1,1,7745,3872
3641,58839080,2,0.001367023,0.0003478021,-0.0008032272,-0.1039124,0.06637048,-9.866773999999999,0,0,38.40573,1,1,7745,3872
3645,58841505,2,0.001569044,0.0006449921,-0.0003449424,-0.105662,0.06592038,-9.866861,0,0,38.40577,1,1,7745,3872
3649,58843570,2,0.002531916,0.0003890254,5.007436e-06,-0.1080198,0.06504372999999999,-9.867775,0,0,38.40585,1,1,7745,3872
3653,58846024,2,0.002836547,-0.0001322964,0.000222462,-0.1100046,0.06544687,-9.869035,0,0,38.40588,1,1,7745,3872
3684,58848329,2,0.002284502,-0.0002189764,0.001515988,-0.1115934,0.06686655,-9.872455,0,0,38.40593,1,1,7745,3872
3691,58851731,2,0.001216736,-1.679409e-07,0.001919067,-0.1113765,0.06604110000000001,-9.873678999999999,0,0,38.40596,1,1,7745,3872
3695,58853580,2,0.0008242084999999999,0.00146948,0.0004982682,-0.1090527,0.06511234,-9.870134999999999,0,0,38.40597,1,1,7745,3872
3698,58856380,2,0.001160358,0.001806341,-0.0002026818,-0.1070609,0.06506152,-9.865637,0,0,38.40598,1,1,7745,3872
3729,58858998,2,0.001622922,0.0008761306,0.0001766929,-0.1036144,0.06585394,-9.857653000000001,0,0,38.40598,1,1,7745,3872
3732,58861767,2,0.00153117,0.0007330031,0.0001542176,-0.1007761,0.06682798,-9.853073,0,0,38.40599,1,1,7745,3872
3735,58864587,2,0.001072102,0.001290263,0.0002526403,-0.09792238,0.06876116,-9.849030000000001,0,0,38.40601,1,1,7745,3872
3739,58866494,2,0.001064804,0.001844848,1.890734e-05,-0.09709539,0.0684691,-9.849866,0,0,38.40605,1,1,7745,3872
3770,58869429,2,0.001379464,0.002191843,0.000411828,-0.09708714,0.06722189000000001,-9.851362,0,0,38.4061,1,1,7745,3872
3773,58871466,2,0.0007849102,0.001639161,0.0010779,-0.09753765,0.06617814,-9.853031,0,0,38.40617,1,1,7745,3872
3777,58873952,2,0.0005948023,0.0007542864,0.001321982,-0.09982578,0.0656561,-9.854462,0,0,38.40622,1,1,7745,3872
3780,58877042,2,0.0006759322,0.0005421739000000001,0.001183735,-0.1027116,0.06436153999999999,-9.856369000000001,0,0,38.40629,1,1,7745,3872
3811,58879802,2,0.0015585,0.000267937,0.001261188,-0.1024025,0.06292744,-9.859413,0,0,38.40636,1,1,7745,3872
3814,58882151,2,0.00224174,0.0006987123,1.156183e-05,-0.1015745,0.06178455,-9.861553000000001,0,0,38.40642,1,1,7745,3872
3818,58884374,2,0.002548636,0.001318639,-0.0009683026,-0.1013958,0.05976242,-9.866961,0,0,38.40653,1,1,7745,3872
3821,58888277,2,0.001998249,0.001286179,-0.0007781768000000001,-0.1015979,0.05975534,-9.870005000000001,0,0,38.40659,1,1,7745,3872
3824,58889802,2,0.0007945608,0.001095691,0.001040456,-0.1023187,0.06232191,-9.873892,0,0,38.4067,1,1,7745,3872
3855,58892544,2,0.0007854703999999999,0.001274943,0.00222609,-0.1029439,0.06332481,-9.876424,0,0,38.40678,1,1,7745,3872
3858,58894510,2,0.001143694,0.001024047,0.002080865,-0.1040308,0.06317925000000001,-9.877912999999999,0,0,38.40683,1,1,7745,3872
3861,58897085,2,0.001225603,0.0007607021,0.001863549,-0.1054375,0.06299916,-9.878501999999999,0,0,38.40689,1,1,7745,3872
3864,58900362,2,0.001616501,0.0007477428,0.000775862,-0.1054035,0.06297308,-9.878548,0,0,38.40699,1,1,7745,3872
3895,58902710,2,0.002712518,0.001205279,0.0002000513,-0.103047,0.06380919,-9.875875000000001,0,0,38.40706,1,1,7745,3872
3899,58906794,2,0.002327753,0.001306279,2.842246e-05,-0.1022824,0.06448402,-9.872303,0,0,38.40711,1,1,7745,3872
3902,58907975,2,0.0009736552,0.001418295,0.000325124,-0.1022009,0.06375044000000001,-9.870653000000001,0,0,38.40718,1,1,7745,3872
3905,58911147,2,0.0008634704,0.001481585,0.0001081915,-0.1021233,0.06238472,-9.874253,0,0,38.40726,1,1,7745,3872
3936,58913463,2,0.001702639,0.001440013,-0.001063855,-0.1024743,0.06139694,-9.881729,0,0,38.40736,1,1,7745,3872
3939,58916370,2,0.001349676,0.001112936,-0.001898865,-0.1024849,0.06143619,-9.887199000000001,0,0,38.40739,1,1,7745,3872
3942,58918350,2,0.0009349748,0.0009459599,-0.00239346,-0.1018446,0.06213233,-9.890575,0,0,38.40743,1,1,7745,3872
3945,58921112,2,0.0003950128,0.001191737,-0.002381248,-0.1015512,0.06197934,-9.888718000000001,0,0,38.40747,1,1,7745,3872
3976,58924049,2,-0.0002418149,0.00186887,-0.00172178,-0.1010562,0.06120871,-9.881895,0,0,38.40755,1,1,7745,3872
3980,58926257,2,-0.0002077601,0.001560256,-0.0003698422,-0.101264,0.06059401,-9.879234,0,0,38.40758,1,1,7745,3872
3983,58929060,2,0.0005529604,0.0003834598,8.809084e-05,-0.1033038,0.05918914,-9.874771000000001,0,0,38.40765,1,1,7745,3872
3986,58931122,2,0.0013274,-0.0006280123000000001,0.0007292279,-0.1046319,0.05907661,-9.872995,0,0,38.40769,1,1,7745,3872
4017,58933431,2,0.0009809907,-0.001230841,0.001711271,-0.1055278,0.05915713,-9.874650000000001,0,0,38.40775,1,1,7745,3872
4021,58936483,2,0.0009155746,-0.0007187228,0.001684212,-0.104244,0.06039424,-9.875311,0,0,38.4078,1,1,7745,3872
4024,58938332,2,0.0007128574,-0.0002461326,-0.0004275343,-0.1004439,0.06133216,-9.874518,0,0,38.40791,1,1,7745,3872
4027,58941154,2,0.000417767,0.0003859751,-0.001192204,-0.09783872,0.06149587,-9.874568999999999,0,0,38.40797,1,1,7745,3872
4060,58943560,2,-0.0001225147,0.00164636,-0.0008822043,-0.09508437,0.06152147,-9.875038999999999,0,0,38.40811,1,1,7745,3872
4064,58946038,2,-0.0005482409,0.002606956,-0.001446299,-0.09377509000000001,0.06186539,-9.875522999999999,0,0,38.40818,1,1,7745,3872
4068,58949388,2,0.0002594265,0.002341879,-0.001392623,-0.09416661,0.06396431,-9.872107,0,0,38.40831,1,1,7745,3872
4071,58951329,2,0.0004422277,0.001359401,-0.001264407,-0.09541471,0.06584418,-9.866484,0,0,38.40838,1,1,7745,3872
4106,58954030,2,0.0001021756,-0.0006731699,-0.001096467,-0.09740583999999999,0.06756448,-9.859748,0,0,38.40848,1,1,7745,3872
4111,58955970,2,-0.000183995,-0.001012175,-0.00120729,-0.09766215,0.06941034,-9.856525,0,0,38.40855,1,1,7745,3872
4114,58958404,2,8.117619e-05,-0.0007609767,-0.0006020789,-0.09763039,0.07229507,-9.853818,0,0,38.40865,1,1,7745,3872
4117,58961343,2,0.0005006338,-4.023619e-05,-2.382457e-05,-0.09702044999999999,0.07568698,-9.853156,0,0,38.40876,1,1,7745,3872
4148,58964144,2,0.000719151,-0.0001183431,-0.0001524135,-0.09661293,0.07997272,-9.854753000000001,0,0,38.40888,1,1,7745,3872
4152,58966404,2,0.0008490389,-0.001054537,-0.0001327377,-0.09549611,0.08125313000000001,-9.857784000000001,0,0,38.40896,1,1,7745,3872
4155,58968958,2,0.0001736822,-0.000896589,-0.0004736977,-0.09340924,0.07768141000000001,-9.864831000000001,0,0,38.40907,1,1,7745,3872
4158,58971531,2,-0.0002204771,0.0002288726,-0.0009012076,-0.09354986,0.07257564,-9.869933,0,0,38.40923,1,1,7745,3872
4189,58974367,2,-0.0003045003,0.001039255,-0.001328777,-0.09367643,0.06903271,-9.871198,0,0,38.40931,1,1,7745,3872
4193,58976967,2,-0.0007004478,0.001726783,-0.001130843,-0.09364118,0.06388415,-9.870547999999999,0,0,38.40941,1,1,7745,3872
4196,58978801,2,-0.0005162348,0.001509349,-0.0004849322,-0.09086903,0.06069748,-9.868368,0,0,38.40946,1,1,7745,3872
4199,58981457,2,0.0002796846,0.001937987,0.0008057349,-0.08557075,0.05867036,-9.863883,0,0,38.40957,1,1,7745,3872
4230,58983948,2,0.0005507597,0.001573122,0.001540618,-0.08341917,0.05775279,-9.861288,0,0,38.40963,1,1,7745,3872
4234,58986977,2,0.0003052382,0.0008837294,0.001481596,-0.0813565,0.05557572,-9.859106000000001,0,0,38.40974,1,1,7745,3872
4239,58989766,2,0.000210266,0.0007387027,0.00110339,-0.08030333000000001,0.05434242,-9.856168,0,0,38.40983,1,1,7745,3872
4242,58991286,2,-9.944076e-06,4.216713e-05,0.000541057,-0.08027589,0.0547725,-9.851953,0,0,38.40999,1,1,7745,3872
4273,58994315,2,0.0005442685,-0.0005222391,0.0007991784,-0.08053325,0.05544409,-9.853254,0,0,38.41006,1,1,7745,3872
4277,58996498,2,0.001241757,-0.0007012913,-4.933393e-05,-0.08062037,0.05623669,-9.85933,0,0,38.41019,1,1,7745,3872
4280,59000472,2,0.0001383307,-0.0001496913,-0.0008662947,-0.08084805,0.05573694,-9.861549,0,0,38.41025,1,1,7745,3872
4283,59003107,2,-0.0008193796,0.0002920125,-0.002236333,-0.08331402,0.05468263,-9.861202,0,0,38.41036,1,1,7745,3872
4286,59004313,2,-0.0004691952,0.0008608606,-0.002075016,-0.08705514,0.05463776,-9.859551,0,0,38.41048,1,1,7745,3872
4317,59007068,2,0.0002712881,0.0008148932,-0.0006682164,-0.08861697,0.0551779,-9.858169999999999,0,0,38.41054,1,1,7745,3872
4320,59010139,2,0.0001399989,0.0005158135,0.001030436,-0.0888534,0.05670114,-9.860742999999999,0,0,38.41063,1,1,7745,3872
4323,59012509,2,-0.0004072954,-0.0004339736,0.001727875,-0.09003812,0.05771643,-9.863553,0,0,38.41068,1,1,7745,3872
4326,59015487,2,-0.0008374213,-0.001491093,0.0008111995,-0.09176014,0.06015425,-9.865447,0,0,38.41073,1,1,7745,3872
4357,59017988,2,-6.414717000000001e-05,-0.0009900760000000001,0.0002841398,-0.09312438000000001,0.0611797,-9.864661999999999,0,0,38.4108,1,1,7745,3872
4361,59020490,2,0.0009471988,-0.0004211426,0.000366152,-0.094282,0.06083219,-9.863146,0,0,38.41085,1,1,7745,3872
4364,59023363,2,0.001727474,-0.0001832452,0.0002813434,-0.09387766,0.06195589,-9.863314000000001,0,0,38.41093,1,1,7745,3872
4367,59025308,2,0.001441692,-0.0006965508,0.0004011619,-0.09291870000000001,0.06381636,-9.863695999999999,0,0,38.41098,1,1,7745,3872
4398,59028092,2,0.001112356,-0.0007651674,2.69478e-05,-0.09095308000000001,0.06705849999999999,-9.865087000000001,0,0,38.41104,1,1,7745,3872
4402,59030411,2,0.002112312,-0.001504109,-0.0006030625,-0.08813329,0.06977284,-9.866749,0,0,38.41107,1,1,7745,3872
4406,59032604,2,0.002346479,-0.001666665,-0.0004416148,-0.0879762,0.07071582,-9.869133,0,0,38.41115,1,1,7745,3872
4409,59035767,2,0.002344889,-0.001449145,0.0003958414,-0.08934785000000001,0.07177059,-9.873570000000001,0,0,38.41121,1,1,7745,3872
4440,59038413,2,0.001758872,-0.0008252297,0.00124446,-0.09132081,0.07306757999999999,-9.877922999999999,0,0,38.41128,1,1,7745,3872
4443,59040744,2,0.001230712,-0.0001096487,0.001332623,-0.09256193,0.07495037,-9.881871,0,0,38.41136,1,1,7745,3872
4446,59043082,2,0.0008730474,0.0003785329,0.0008587991,-0.09250501,0.07585767,-9.884118000000001,0,0,38.41142,1,1,7745,3872
4449,59045499,2,0.001304052,0.0002981015,0.001160306,-0.09096017000000001,0.07617848000000001,-9.882825,0,0,38.4115,1,1,7745,3872
4480,59048511,2,0.00165465,-0.0002528169,0.001539854,-0.08896846,0.07534781,-9.881506999999999,0,0,38.41154,1,1,7745,3872
4484,59051076,2,0.001449501,-0.0005542763,0.001384008,-0.08769912000000001,0.07348855999999999,-9.879025,0,0,38.41161,1,1,7745,3872
4487,59053005,2,0.001318292,-0.0004126663,0.001344763,-0.08841219,0.07092395,-9.874955999999999,0,0,38.41166,1,1,7745,3872
4494,59056038,2,0.0005294916,9.963937e-05,0.0007725849,-0.08992189,0.06609737,-9.871518999999999,0,0,38.41174,1,1,7745,3872
4525,59058174,2,-0.0005246795,-0.0005425966,-0.0006410343,-0.09262499,0.06316466,-9.876984,0,0,38.41182,1,1,7745,3872
4529,59061101,2,-0.0004767251,-0.0004964604,-0.001543059,-0.09581228,0.06234628,-9.879621,0,0,38.41188,1,1,7745,3872
4532,59063830,2,-0.0003185617,-0.0004665428,-0.002042554,-0.09853611,0.06152446,-9.878613,0,0,38.41197,1,1,7745,3872
4535,59065787,2,-0.000310606,-0.0009546553,-0.002228106,-0.1007877,0.06026047,-9.872764999999999,0,0,38.41206,1,1,7745,3872
4566,59067967,2,-0.0003646273,-0.0008542123999999999,-0.00175589,-0.1005488,0.06050516,-9.867352,0,0,38.41211,1,1,7745,3872
4570,59070762,2,-0.0001341611,-0.0002657431,-0.0008708197999999999,-0.09940723999999999,0.06266331999999999,-9.860929,0,0,38.41218,1,1,7745,3872
4574,59073574,2,0.0001185163,-0.0002632088,-0.0001801823,-0.09960115999999999,0.06404728,-9.858866000000001,0,0,38.41224,1,1,7745,3872
4577,59075583,2,0.0005660993999999999,0.0010044,-0.0006631915,-0.09994321,0.06432915,-9.855370000000001,0,0,38.41232,1,1,7745,3872
4608,59078361,2,0.0009564474000000001,0.002261607,-0.0003771462,-0.09950726999999999,0.06374220999999999,-9.850747,0,0,38.41236,1,1,7745,3872
4612,59080687,2,0.0009210234,0.002641104,-0.0001307093,-0.09863213,0.0639141,-9.847246999999999,0,0,38.41242,1,1,7745,3872
4615,59082944,2,0.0008766053,0.002182982,-0.0003455914,-0.09747415,0.06529754,-9.845535,0,0,38.41246,1,1,7745,3872
4618,59086330,2,0.001266417,0.0009959654000000001,-9.643091000000001e-05,-0.09645421,0.0668895,-9.843401,0,0,38.41252,1,1,7745,3872
4649,59089323,2,0.0006904718,5.222898e-05,0.0009556999,-0.09557895,0.06709722999999999,-9.843724,0,0,38.41257,1,1,7745,3872
4652,59091168,2,-0.0003515866,-0.0003506724,0.0008871346999999999,-0.09442087,0.06583224999999999,-9.844965999999999,0,0,38.4126,1,1,7745,3872
4655,59093534,2,-0.001259189,-0.0005597754,-7.603539e-05,-0.09491584,0.06224921,-9.850189,0,0,38.41262,1,1,7745,3872
4658,59098956,2,8.216472e-05,0.0006693382,-6.376425e-05,-0.09559608,0.05645074,-9.861034,0,0,38.41266,1,1,7745,3872
4690,59103036,2,-0.0005289556,0.001117369,0.0008407166999999999,-0.094239,0.05470926,-9.866778,0,0,38.41268,1,1,7745,3872
4693,59104380,2,-0.001173571,0.0002344246,0.002091339,-0.09325689,0.05408895,-9.871376,0,0,38.4127,1,1,7745,3872
4696,59107560,2,-0.0009777423999999999,0.0004914258,0.002516365,-0.09282891,0.05441583,-9.873239999999999,0,0,38.41272,1,1,7745,3872
4699,59110006,2,-0.0006522633,0.0005049023,0.001585826,-0.0940019,0.05497712,-9.874876,0,0,38.41272,1,1,7745,3872
4730,59112129,2,-0.0005981515,8.405939e-05,-8.496312e-05,-0.09609806,0.05504297,-9.87534,0,0,38.41269,1,1,7745,3872
4733,59115339,2,-7.758072e-05,-0.0002101834,-0.0009808798999999999,-0.09922652999999999,0.05362398,-9.876328000000001,0,0,38.41268,1,1,7745,3872
4736,59117275,2,0.0006850653,-0.0006307228,-0.001590567,-0.1035817,0.05188479,-9.879186000000001,0,0,38.41267,1,1,7745,3872
4739,59119966,2,0.000801218,-0.0006111696,-0.002056946,-0.1045486,0.05104258,-9.880459999999999,0,0,38.41267,1,1,7745,3872
4770,59122734,2,0.001887345,-0.0007301776,-0.002347956,-0.1053564,0.05186115,-9.881062,0,0,38.41268,1,1,7745,3872
4774,59124961,2,0.002758299,-0.0008228050999999999,-0.002192321,-0.1057218,0.0527574,-9.879987,0,0,38.41269,1,1,7745,3872
4777,59127772,2,0.002018635,0.0002617893,-0.003297946,-0.1059293,0.05429579,-9.875534,0,0,38.41272,1,1,7745,3872
4780,59130336,2,0.001027022,0.000922895,-0.003365977,-0.106253,0.05593977,-9.871378,0,0,38.41273,1,1,7745,3872
4811,59133064,2,-0.0005564869,0.0009293191,-0.00156956,-0.1069307,0.05669486,-9.870217,0,0,38.41275,1,1,7745,3872
4815,59135281,2,-0.0010656,0.0002340676,-9.329747e-05,-0.1065716,0.05707246,-9.872771,0,0,38.41277,1,1,7745,3872
4818,59138159,2,-0.001606731,-0.0002568786,0.0008510979,-0.1053842,0.05948509,-9.874060999999999,0,0,38.4128,1,1,7745,3872
4821,59140525,2,-0.0007373543,4.976196e-05,1.010666e-05,-0.1036551,0.0598283,-9.873787,0,0,38.41282,1,1,7745,3872
4852,59142699,2,0.0005809662,0.000278548,-0.0002763448,-0.1007816,0.05784468,-9.872669,0,0,38.41285,1,1,7745,3872
4855,59145946,2,0.001827971,0.0001408813,-0.001233356,-0.09783031,0.05487373,-9.868480999999999,0,0,38.41286,1,1,7745,3872
4858,59147608,2,0.002071264,0.0003000745,-0.001435234,-0.09703033,0.05282287,-9.864210999999999,0,0,38.41288,1,1,7745,3872
4861,59150538,2,0.001724368,0.0001266061,-0.0005939721,-0.09482810999999999,0.05108422,-9.860919000000001,0,0,38.41288,1,1,7745,3872
4892,59153729,2,0.001706922,-1.030888e-05,0.0003399361,-0.09246551,0.05101652,-9.860635,0,0,38.41288,1,1,7745,3872
4896,59155382,2,0.001826614,0.0002858693,0.0005758464,-0.08843230000000001,0.05107734,-9.864663,0,0,38.41288,1,1,7745,3872
4903,59158270,2,0.001455335,0.0002468619,0.0005267137,-0.08586054,0.05101997,-9.868021000000001,0,0,38.41286,1,1,7745,3872
4906,59160890,2,0.001774436,0.0002211192,0.0003043465,-0.08474041,0.05133286,-9.869513,0,0,38.41281,1,1,7745,3872
4937,59163147,2,0.001970253,0.0002869105,-0.0003818932,-0.08514027,0.05031798,-9.870077999999999,0,0,38.41278,1,1,7745,3872
4940,59165983,2,0.001769061,0.0005709989,-0.001017326,-0.08662287,0.04924327,-9.870837999999999,0,0,38.41277,1,1,7745,3872
4943,59168901,2,0.0007647154,0.001058434,-0.0004295399,-0.09067281000000001,0.04806181,-9.868188,0,0,38.41276,1,1,7745,3872
4946,59171290,2,0.0006814615999999999,0.001210038,0.0001330101,-0.09226231,0.04798057,-9.865068000000001,0,0,38.41276,1,1,7745,3872
4977,59173928,2,0.001242585,0.001071888,0.0002519886,-0.09385826,0.04805823,-9.861295999999999,0,0,38.41276,1,1,7745,3872
4981,59175952,2,0.0009031831,0.0008151479,-0.0002510287,-0.09593208,0.04824105,-9.857150000000001,0,0,38.41277,1,1,7745,3872
4985,59178875,2,0.000519634,0.0003047898,-0.0001762771,-0.09805742000000001,0.04899715,-9.848653000000001,0,0,38.41279,1,1,7745,3872
4989,59181065,2,0.0007651227,0.0004975688,0.0001806615,-0.09875701000000001,0.05034131,-9.842632999999999,0,0,38.41279,1,1,7745,3872
5020,59183893,2,0.001351302,0.001163221,-0.0002093801,-0.1012469,0.05363894,-9.837972000000001,0,0,38.41279,1,1,7745,3872
5023,59185971,2,0.001809421,0.001392295,-0.00112258,-0.103131,0.05594376,-9.837379,0,0,38.41279,1,1,7745,3872
5026,59188313,2,0.001320465,0.002145606,-0.0006820619,-0.1053813,0.05895067,-9.839098,0,0,38.4128,1,1,7745,3872
5029,59190957,2,0.0008711927,0.001706962,-0.0007991001,-0.1066554,0.0609181,-9.842399,0,0,38.41281,1,1,7745,3872
5062,59194174,2,-0.0007096122,0.002048022,-0.0005186957,-0.1069803,0.06270536,-9.847702999999999,0,0,38.41282,1,1,7745,3872
5066,59196318,2,-0.001751571,0.00228284,-0.0002845111,-0.107119,0.06378540000000001,-9.852411,0,0,38.41282,1,1,7745,3872
5069,59201296,2,-0.0008638745,0.003184753,0.001398128,-0.1101738,0.06630798,-9.860467999999999,0,0,38.41282,1,1,7745,3872
5100,59205030,2,3.967077e-05,0.003993166,0.0009686296,-0.1106103,0.06749383,-9.861649999999999,0,0,38.4128,1,1,7745,3872
5103,59206360,2,0.00231524,0.002702593,0.0001582314,-0.1078633,0.06610194,-9.862508999999999,0,0,38.41276,1,1,7745,3872
5106,59209514,2,0.002435066,0.002206099,-0.0001816286,-0.1068007,0.06517565,-9.863058000000001,0,0,38.41272,1,1,7745,3872
5109,59211206,2,0.001542706,0.001374915,0.0001288386,-0.1043156,0.06329429,-9.864895000000001,0,0,38.41265,1,1,7745,3872
5140,59213562,2,0.001064624,0.001680002,0.0009328035,-0.09923946,0.05912679,-9.867591000000001,0,0,38.41259,1,1,7745,3872
5144,59217085,2,0.0007574484,0.001919661,0.001767593,-0.09527365,0.05621956,-9.867649999999999,0,0,38.41256,1,1,7745,3872
5147,59218942,2,0.0009721039,0.001484777,0.002909345,-0.08963024999999999,0.05379536,-9.867153,0,0,38.41253,1,1,7745,3872
5150,59221802,2,0.00157925,0.001188445,0.003292172,-0.08628897000000001,0.05338087,-9.868198,0,0,38.41248,1,1,7745,3872
5181,59223981,2,0.0009978474,-0.0007133877,0.002498389,-0.08327565000000001,0.05332209,-9.868791,0,0,38.41245,1,1,7745,3872
5185,59226508,2,-9.052696999999999e-05,-0.001949096,0.001291534,-0.08122625999999999,0.05375504,-9.869201,0,0,38.4124,1,1,7745,3872
5188,59229572,2,-0.0001434575,-0.001966669,0.0009983237,-0.07941708,0.05440059,-9.869987,0,0,38.41237,1,1,7745,3872
5191,59231556,2,0.0005818779,-0.001871246,0.0004777503,-0.0770047,0.05513602,-9.871207,0,0,38.41233,1,1,7745,3872
5222,59234597,2,0.001052591,-0.00147383,-0.0009798954999999999,-0.07690287,0.05482363,-9.869650999999999,0,0,38.41232,1,1,7745,3872
5225,59236545,2,0.0006558006,-0.0006622364,-0.0009781467000000001,-0.07766990999999999,0.05479759,-9.864972,0,0,38.4123,1,1,7745,3872
5228,59239084,2,0.0004379364,-0.0001956967,-0.0005713815,-0.07871520999999999,0.05556303,-9.860462999999999,0,0,38.41228,1,1,7745,3872
5231,59242148,2,0.0005892754,-0.0001813911,0.0002871846,-0.07960312999999999,0.05812448,-9.854849,0,0,38.41224,1,1,7745,3872
5262,59244310,2,0.0004983384,-0.0007462988,0.0007362315,-0.07842768999999999,0.05967156,-9.848428999999999,0,0,38.41219,1,1,7745,3872
5267,59247523,2,-0.0002291062,-0.0006768248,0.0007068261,-0.07647298,0.06038352,-9.846511,0,0,38.41216,1,1,7745,3872
5270,59249784,2,-0.001100796,-0.0001301213,0.0009227077,-0.0746882,0.06035886,-9.847374,0,0,38.41209,1,1,7745,3872
5273,59252671,2,-0.0006836922,0.000325181,0.001184095,-0.07508827999999999,0.06062316,-9.849399,0,0,38.41206,1,1,7745,3872
5304,59254922,2,0.0001562457,0.0008571992,0.0009328353,-0.07581416000000001,0.06101368,-9.855905999999999,0,0,38.41203,1,1,7745,3872
5307,59257345,2,-0.0007220351,0.001131986,-0.0009478412,-0.07618774,0.06227441,-9.868295,0,0,38.41199,1,1,7745,3872
5314,59261007,2,-0.001260219,0.0009674090999999999,-0.0007712101,-0.07677200000000001,0.06361124999999999,-9.874369,0,0,38.41195,1,1,7745,3872
5317,59262371,2,-0.0008791575,0.0007094655,-0.00109424,-0.07879796,0.06453312999999999,-9.877795000000001,0,0,38.4119,1,1,7745,3872
5348,59265692,2,-0.0007154157,0.0003365762,-0.001174173,-0.08013592999999999,0.06460895,-9.878996000000001,0,0,38.41186,1,1,7745,3872
5352,59267357,2,-0.0009982672,0.0006834785,-5.770539e-05,-0.08219289,0.06451454,-9.881323999999999,0,0,38.41179,1,1,7745,3872
5355,59270256,2,-0.0008802328000000001,0.001127247,0.0009257678,-0.08285864,0.06414188,-9.882346999999999,0,0,38.41176,1,1,7745,3872
5358,59273140,2,0.0003906751,0.001075323,0.001330022,-0.08264916999999999,0.06358419,-9.885885,0,0,38.41171,1,1,7745,3872
5389,59275388,2,0.0009259763,0.0001357388,0.0009389667,-0.08137596,0.06217106,-9.888368,0,0,38.41164,1,1,7745,3872
5393,59278325,2,0.0004052834,-0.0004914904000000001,0.0002818397,-0.08102209,0.06125056,-9.888356999999999,0,0,38.4116,1,1,7745,3872
5397,59280482,2,0.000320362,-0.001153555,0.0001727675,-0.0830187,0.06059426,-9.886032,0,0,38.41153,1,1,7745,3872
5400,59283570,2,0.0009533495,-0.001374851,0.0001463052,-0.08593917,0.06065409,-9.883198999999999,0,0,38.4115,1,1,7745,3872
5431,59285966,2,0.00133917,-0.0004000884,-0.0001353444,-0.08886637999999999,0.06104647,-9.880397,0,0,38.41144,1,1,7745,3872
5434,59288574,2,0.0008498712,0.0005378639,0.00019656,-0.0891175,0.06088154,-9.874114000000001,0,0,38.41139,1,1,7745,3872
5437,59291351,2,5.131849e-05,0.0004855111,2.276062e-05,-0.08869347,0.05995296,-9.867819000000001,0,0,38.41135,1,1,7745,3872
5440,59293615,2,0.0002622372,-0.0002615068,0.0001958748,-0.08869365,0.05827147,-9.861345,0,0,38.41129,1,1,7745,3872
5471,59297470,2,0.001211836,-0.001065997,-0.000600645,-0.08904835,0.05697327,-9.859878999999999,0,0,38.41119,1,1,7745,3872
5475,59298711,2,0.001098309,-0.001610707,-0.0001971964,-0.08996106,0.05622454,-9.859139000000001,0,0,38.41115,1,1,7745,3872
5478,59302791,2,0.0004587875,-0.001677743,0.0005936021,-0.09144785,0.05653651,-9.858461999999999,0,0,38.41105,1,1,7745,3872
5481,59304052,2,0.0003259399,-0.001708938,0.001456802,-0.09311477,0.05700849,-9.85806,0,0,38.41099,1,1,7745,3872
5512,59307718,2,-9.93245e-06,-0.001443944,0.002751842,-0.09760621,0.05659126,-9.857926000000001,0,0,38.41091,1,1,7745,3872
5515,59309360,2,-0.0006199821,-0.0009980785000000001,0.00325498,-0.1002475,0.05680656,-9.857165,0,0,38.41085,1,1,7745,3872
5518,59311553,2,-0.001083529,-0.001076687,0.001266007,-0.1012005,0.05830069,-9.85834,0,0,38.41077,1,1,7745,3872
5521,59314297,2,-0.001168062,-0.000884167,6.752474e-05,-0.1022412,0.05966374,-9.859318,0,0,38.41072,1,1,7745,3872
5552,59316554,2,-0.002000262,-0.0002361759,-0.000711371,-0.1051785,0.05852453,-9.858086,0,0,38.41067,1,1,7745,3872
5556,59319385,2,-0.002050285,0.0003723497,-0.0008483797,-0.1057795,0.05712263,-9.856548999999999,0,0,38.41064,1,1,7745,3872
5559,59321338,2,-0.0008968587,0.001180737,-0.0002439028,-0.104812,0.05843296,-9.857965,0,0,38.41058,1,1,7745,3872
5562,59323925,2,0.0003243617,0.001262675,0.0001904335,-0.1034737,0.05988547,-9.860799999999999,0,0,38.41053,1,1,7745,3872
5593,59326798,2,0.0009302651,0.0003477072,0.0008301421,-0.1002021,0.06189413,-9.863391999999999,0,0,38.41045,1,1,7745,3872
5596,59329019,2,0.001299793,5.226822e-05,-1.549204e-05,-0.09867669,0.06211744,-9.864649,0,0,38.41039,1,1,7745,3872
5599,59331899,2,0.001850572,-0.0005329413,0.0002148308,-0.09537683,0.06125706,-9.870581,0,0,38.41029,1,1,7745,3872
5602,59333976,2,0.00202933,-0.0006340748,0.0004082649,-0.09463152,0.06025865,-9.875864999999999,0,0,38.41022,1,1,7745,3872
5633,59336284,2,0.00156845,0.0001957268,-0.0003428508,-0.0950752,0.05983065,-9.885201,0,0,38.41014,1,1,7745,3872
5637,59339405,2,0.001281456,0.0006224473,0.0003005766,-0.09440298,0.05963327,-9.888902,0,0,38.41011,1,1,7745,3872
5640,59341499,2,0.001550942,0.0002404389,0.001590252,-0.09249350000000001,0.05770034,-9.891552000000001,0,0,38.41003,1,1,7745,3872
5643,59344293,2,0.002023397,-0.0002748269,0.001123549,-0.09057498,0.0544474,-9.891219,0,0,38.40999,1,1,7745,3872
5674,59346519,2,0.001775366,0.0006086374,0.0007578875,-0.08679815,0.05160214,-9.884719,0,0,38.40992,1,1,7745,3872
5677,59348761,2,0.001733952,0.00123356,0.001334235,-0.08443781,0.05245649,-9.878258000000001,0,0,38.40985,1,1,7745,3872
5680,59351954,2,0.001237743,0.001763885,0.000786077,-0.08366529,0.0541877,-9.869061,0,0,38.40973,1,1,7745,3872
5683,59354110,2,0.001085998,0.001605784,0.0008937226,-0.08502882,0.05504929,-9.865216999999999,0,0,38.40965,1,1,7745,3872
5714,59356992,2,0.0006125256,0.0007055766,0.0003364843,-0.08858626999999999,0.05558458,-9.863498999999999,0,0,38.40951,1,1,7745,3872
5717,59358955,2,-0.0001023628,0.0003897189,0.0003501617,-0.09106148,0.05643987,-9.862722,0,0,38.40944,1,1,7745,3872
5724,59361915,2,-0.0008528539,-0.001110118,5.470619e-05,-0.0938619,0.05840963,-9.861456,0,0,38.40932,1,1,7745,3872
5727,59364518,2,-0.001218839,-0.001156923,-2.56735e-05,-0.09817453,0.06407852,-9.859381000000001,0,0,38.40927,1,1,7745,3872
5758,59367250,2,-0.0009809592000000001,-0.001061101,5.169347e-05,-0.09917428,0.06830775,-9.857556000000001,0,0,38.40922,1,1,7745,3872
5762,59369682,2,-0.0005330191,-0.001309496,-5.879576e-05,-0.1000618,0.07272929,-9.853654000000001,0,0,38.40914,1,1,7745,3872
5765,59371781,2,-0.0001264473,-0.001088236,-2.408399e-05,-0.09956276,0.0735213,-9.850421000000001,0,0,38.40908,1,1,7745,3872
5768,59374555,2,0.0005810360000000001,-0.0008632635,2.733683e-05,-0.0976399,0.07248255000000001,-9.847462,0,0,38.409,1,1,7745,3872
5799,59377691,2,0.001073716,-0.001074054,6.569684999999999e-05,-0.09543826,0.07176491,-9.845135000000001,0,0,38.40895,1,1,7745,3872
5802,59380251,2,0.001582932,-0.0003702586,-0.0004886144,-0.09326456,0.06931326,-9.843349999999999,0,0,38.40886,1,1,7745,3872
5805,59381938,2,0.002578079,0.0002027436,-0.0001687174,-0.09330125,0.06685565,-9.842665999999999,0,0,38.40876,1,1,7745,3872
5809,59384317,2,0.002922451,0.0003597332,-0.0001152579,-0.09367987999999999,0.06447997,-9.842126,0,0,38.40864,1,1,7745,3872
5840,59386942,2,0.00194377,0.0001324937,-8.165943e-05,-0.0940172,0.06431539999999999,-9.840293000000001,0,0,38.40856,1,1,7745,3872
5844,59390806,2,0.0002606115,-3.881945e-05,-0.0003005567,-0.09294966,0.06508524,-9.83705,0,0,38.40841,1,1,7745,3872
5847,59392377,2,-0.0001755852,0.0004661624,-5.21054e-05,-0.09256557,0.06623194,-9.836133999999999,0,0,38.40835,1,1,7745,3872
5851,59394376,2,-4.965242e-05,0.0007542581,0.0008207517,-0.09251877999999999,0.06702647,-9.836226,0,0,38.40822,1,1,7745,3872
5884,59397325,2,-6.663513e-05,0.0008317188,0.001174665,-0.09299304999999999,0.06805360000000001,-9.835823,0,0,38.40816,1,1,7745,3872
5887,59399734,2,-0.0006118839,0.0003779954,0.002528353,-0.09436226,0.06977817,-9.834446,0,0,38.40804,1,1,7745,3872
5890,59402710,2,-0.0002447774,0.0004204477,0.00296168,-0.0952765,0.07090414,-9.835165,0,0,38.40794,1,1,7745,3872
5893,59406995,2,0.0008563652,0.001393425,0.0007250739,-0.09482841,0.0702512,-9.841533999999999,0,0,38.40773,1,1,7745,3872
5925,59409894,2,3.234331e-05,0.001265993,-8.451429e-05,-0.09258632,0.06963757,-9.842444,0,0,38.40759,1,1,7745,3872
5928,59412166,2,0.0003766769,0.0005998085,3.729336e-05,-0.09230339999999999,0.06840248,-9.842753999999999,0,0,38.40746,1,1,7745,3872
5931,59415091,2,0.001429886,0.0003019641,4.74511e-05,-0.09364983,0.06442139,-9.841597,0,0,38.40729,1,1,7745,3872
5934,59417387,2,0.001613297,0.001138471,-0.0003678463,-0.09476076999999999,0.06130835,-9.839623,0,0,38.40721,1,1,7745,3872
5965,59419944,2,0.001074875,0.001930018,-0.0005866166,-0.09711717,0.0583504,-9.83867,0,0,38.40705,1,1,7745,3872
5969,59421965,2,0.001634228,0.002430986,-0.0001530091,-0.09807667,0.05744737,-9.838841,0,0,38.40695,1,1,7745,3872
5972,59424333,2,0.001474121,0.002456029,0.0001517827,-0.09811578,0.05627489,-9.839710999999999,0,0,38.40682,1,1,7745,3872
5975,59427321,2,6.621828e-05,0.001565462,0.0006372411,-0.09668578999999999,0.0550184,-9.842679,0,0,38.40672,1,1,7745,3872
6006,59430265,2,-0.0008049925,0.001197617,0.0002665755,-0.09422456,0.05389001,-9.848635,0,0,38.40657,1,1,7745,3872
6009,59431576,2,-0.001273519,0.001437667,-0.0004222372,-0.09391212,0.05395891,-9.851501000000001,0,0,38.40651,1,1,7745,3872
6012,59434344,2,-0.001844356,0.001404376,-0.001500002,-0.09456476,0.053999,-9.853928,0,0,38.4064,1,1,7745,3872
6015,59436940,2,-0.001194359,0.001612244,-0.002182225,-0.09536258,0.0539233,-9.853982999999999,0,0,38.40632,1,1,7745,3872
6048,59439872,2,-7.524394e-05,0.001599884,-0.001607408,-0.09466098000000001,0.05535988,-9.855912999999999,0,0,38.40618,1,1,7745,3872
6053,59442721,2,0.001080553,0.001237977,-0.0008273508,-0.09399169,0.05801747,-9.859673000000001,0,0,38.40609,1,1,7745,3872
6056,59444380,2,0.001705177,0.0005127714,0.000664903,-0.09346546,0.06055183,-9.86393,0,0,38.40599,1,1,7745,3872
6059,59446900,2,0.001787684,0.0004514976,0.001677762,-0.09317034,0.05961702,-9.86469,0,0,38.40594,1,1,7745,3872
6090,59449529,2,0.001165797,0.0001767925,0.001565309,-0.09170617,0.0573996,-9.867627000000001,0,0,38.40591,1,1,7745,3872
6093,59452305,2,0.0007754422,0.0003244443,-0.0004196381,-0.09011564,0.05711946,-9.871904000000001,0,0,38.40588,1,1,7745,3872
6096,59454969,2,0.0006546814,0.0006184457,-0.002241423,-0.0873385,0.05879513,-9.876884,0,0,38.40585,1,1,7745,3872
6099,59456947,2,0.0005774702,0.0007773415,-0.002070987,-0.08672668,0.05970201,-9.878152999999999,0,0,38.40582,1,1,7745,3872
6130,59459304,2,0.00114658,0.0008661202,-0.0005225224,-0.08584613000000001,0.0623338,-9.883672000000001,0,0,38.40575,1,1,7745,3872
6138,59462349,2,0.001673741,0.0007538853,-6.210504000000001e-05,-0.08516696999999999,0.06480227,-9.887003,0,0,38.4057,1,1,7745,3872
6141,59465152,2,0.001840542,-0.0003257825,0.0002964243,-0.08527728,0.06658171,-9.884950999999999,0,0,38.40567,1,1,7745,3872
6144,59467461,2,0.001486773,-0.0007701394,0.0001207578,-0.08587353,0.06577519,-9.881861000000001,0,0,38.40565,1,1,7745,3872
6175,59470068,2,0.001343821,-0.0008652065,0.0001158112,-0.08719689,0.0635443,-9.880383,0,0,38.40562,1,1,7745,3872
6179,59472092,2,0.000715535,-0.001166937,0.0007957176,-0.08814545999999999,0.06100856,-9.882415999999999,0,0,38.40558,1,1,7745,3872
6182,59475347,2,0.0005218696,-0.0003774626,0.0006267838,-0.08929902000000001,0.05926926,-9.883812000000001,0,0,38.40554,1,1,7745,3872
6185,59477873,2,0.0012108,-0.0002409627,0.001132614,-0.09041312,0.05752773,-9.883889999999999,0,0,38.4055,1,1,7745,3872
6216,59479979,2,0.001179113,0.0001370672,0.0008943185,-0.09312779,0.05650755,-9.882466000000001,0,0,38.40547,1,1,7745,3872
6219,59482718,2,0.00157983,0.000375523,-0.0002479895,-0.09424361000000001,0.05784169,-9.882028,0,0,38.40544,1,1,7745,3872
6222,59485257,2,0.002076475,0.0001912971,-0.0003654258,-0.09412307,0.05830188,-9.881563,0,0,38.40539,1,1,7745,3872
6225,59488158,2,0.00146571,-0.0002980418,-0.0005861953,-0.09354612,0.06069569,-9.878771,0,0,38.4053,1,1,7745,3872
6256,59490974,2,0.002070886,-0.0003527713,-0.0005507295,-0.09348144,0.06240586,-9.874266,0,0,38.40519,1,1,7745,3872
6260,59493302,2,0.002058399,-0.0002752757,-0.0006630695,-0.09365653,0.06303149,-9.86835,0,0,38.40514,1,1,7745,3872
6265,59495678,2,0.001685556,-0.0002668633,-0.000168721,-0.09445236,0.06346889999999999,-9.860219000000001,0,0,38.40505,1,1,7745,3872
6268,59503411,2,0.002478172,-0.0002029809,0.002615202,-0.0920759,0.06945567,-9.851178000000001,0,0,38.40483,1,1,7745,3872
6299,59506113,2,0.003093434,0.0001330871,0.001486948,-0.09551883,0.06906654,-9.853427,0,0,38.40484,1,1,7745,3872
6303,59508524,2,0.002662894,0.0001388378,-4.40719e-05,-0.09785576,0.06801955,-9.855312,0,0,38.40486,1,1,7745,3872
6306,59511537,2,0.002067399,0.0003123325,-0.0006975193,-0.09832693000000001,0.06744733,-9.856845,0,0,38.40487,1,1,7745,3872
6310,59514256,2,0.0008347559,0.0009666129,-0.001645124,-0.09803028,0.06897307,-9.859579,0,0,38.40488,1,1,7745,3872
6341,59517023,2,0.000734286,0.001235891,-0.001324998,-0.09712552000000001,0.07146993,-9.859613,0,0,38.40491,1,1,7745,3872
6344,59518926,2,0.001019432,0.001390098,-0.0006883742,-0.09403272999999999,0.07498541,-9.861724000000001,0,0,38.40493,1,1,7745,3872
6347,59521904,2,0.0003219859,0.001557157,0.0001034834,-0.09276234999999999,0.07533438000000001,-9.865185,0,0,38.40492,1,1,7745,3872
6350,59524413,2,5.384603e-06,0.001453916,0.001063169,-0.09332917,0.07411842,-9.869517,0,0,38.40492,1,1,7745,3872
6381,59527297,2,0.0007759854,0.00190716,0.002524843,-0.09601229999999999,0.07124727,-9.878171999999999,0,0,38.40493,1,1,7745,3872
6385,59529875,2,0.001780556,0.002427147,0.002369758,-0.09808770999999999,0.06683946,-9.886016,0,0,38.40495,1,1,7745,3872
6388,59532094,2,0.001778316,0.001921828,0.002137474,-0.09976135,0.06443383,-9.888489999999999,0,0,38.40497,1,1,7745,3872
6391,59534403,2,0.001070984,0.001030013,0.002449764,-0.1004592,0.0621114,-9.886094,0,0,38.40501,1,1,7745,3872
6422,59537363,2,0.0009591376,0.001070761,0.002609674,-0.1002011,0.06124759,-9.881729999999999,0,0,38.40503,1,1,7745,3872
6425,59539980,2,0.00152314,0.00104426,0.002334101,-0.09775022999999999,0.05887446,-9.872938,0,0,38.40507,1,1,7745,3872
6428,59541942,2,0.001873183,0.0005990186,0.001625623,-0.09571191,0.05766967,-9.870355,0,0,38.40508,1,1,7745,3872
6431,59544351,2,0.001763887,0.000315235,0.0002391784,-0.09307566,0.05760784,-9.869184000000001,0,0,38.40511,1,1,7745,3872
6462,59546918,2,0.001075241,0.0009423962,-0.0004143388,-0.09128886,0.05783821,-9.867583,0,0,38.40515,1,1,7745,3872
6467,59550294,2,0.0004622874,0.0005255311,-9.542384e-05,-0.08971733,0.05781754,-9.866375,0,0,38.40521,1,1,7745,3872
6470,59552381,2,-4.142067e-05,-4.615698e-05,-4.397979e-05,-0.08899319999999999,0.05843519,-9.864853,0,0,38.40529,1,1,7745,3872
6473,59554868,2,-0.000567394,-0.0002461995,-0.0002364881,-0.09010303,0.06076976,-9.860191,0,0,38.40541,1,1,7745,3872
6504,59556978,2,-0.001721175,-0.0006236371000000001,-0.000744462,-0.09078941,0.06190073,-9.853851000000001,0,0,38.40551,1,1,7745,3872
6507,59559616,2,-0.001686596,-0.0003509551,-0.0001667711,-0.09272052,0.06411472,-9.845909000000001,0,0,38.40561,1,1,7745,3872
6510,59562370,2,-0.0002517022,0.0002044173,8.198698e-05,-0.09350585,0.06480843999999999,-9.843785,0,0,38.40567,1,1,7745,3872
6517,59565201,2,0.0006098164,0.0006686256,0.001105809,-0.09325549,0.06429274,-9.847810000000001,0,0,38.4058,1,1,7745,3872
6548,59567729,2,0.0006231451,0.0009382973,0.002270528,-0.09193766,0.06357618,-9.852944000000001,0,0,38.40594,1,1,7745,3872
6552,59570118,2,-2.744175e-05,0.001197664,0.002102317,-0.09294394,0.06257917,-9.856699000000001,0,0,38.40604,1,1,7745,3872
6555,59572596,2,-0.00141694,0.0020063,0.001634038,-0.09438713999999999,0.05949534,-9.861279,0,0,38.40614,1,1,7745,3872
6558,59575359,2,-0.002266386,0.001712432,0.0009060798,-0.09441483000000001,0.0575827,-9.863194,0,0,38.40625,1,1,7745,3872
6589,59578282,2,-0.002615406,0.00145367,-0.0002799159,-0.09460736,0.0543494,-9.866994999999999,0,0,38.40641,1,1,7745,3872
6593,59580767,2,-0.001957036,0.001112605,-0.0007782223,-0.09544051000000001,0.0539951,-9.869532,0,0,38.40652,1,1,7745,3872
6596,59582407,2,-0.0003755121,7.599144e-05,-0.001057332,-0.09660709000000001,0.05588065,-9.870582000000001,0,0,38.40666,1,1,7745,3872
6601,59585394,2,-0.0002381426,-0.0001768106,-0.001377076,-0.09764821,0.0583849,-9.871705,0,0,38.40672,1,1,7745,3872
6632,59587719,2,-0.0003453314,-1.189062e-05,-0.002005257,-0.09924458999999999,0.06163524,-9.871142000000001,0,0,38.40682,1,1,7745,3872
6635,59590522,2,-0.0001328402,-0.0003642933,-0.001120123,-0.1002882,0.06389746,-9.870131000000001,0,0,38.40689,1,1,7745,3872
6638,59592616,2,-3.054072e-05,-0.001134136,0.0003811498,-0.1004874,0.06748529,-9.869861999999999,0,0,38.407,1,1,7745,3872
6642,59595262,2,0.0008107946,-0.001101249,0.001550731,-0.09981067,0.06836678,-9.868080000000001,0,0,38.4071,1,1,7745,3872
6673,59597967,2,0.001751757,-0.001080732,0.001142012,-0.09802271,0.06834749,-9.864718999999999,0,0,38.40725,1,1,7745,3872
6677,59600286,2,0.00220362,-0.0009968354999999999,0.0003443178,-0.09771715,0.06755092,-9.862195,0,0,38.40733,1,1,7745,3872
6681,59603322,2,0.00347693,-0.0004432774,-4.126013e-05,-0.09861130999999999,0.06461868,-9.859614000000001,0,0,38.40744,1,1,7745,3872
6684,59605211,2,0.002906051,-5.702806e-05,0.0002322746,-0.09919492000000001,0.06177843,-9.860067000000001,0,0,38.40754,1,1,7745,3872
6715,59607461,2,0.002500311,-0.0006012996,0.0003319925,-0.1000507,0.05906072,-9.863923,0,0,38.40764,1,1,7745,3872
6718,59611247,2,0.001884711,-0.001214125,0.0002519145,-0.1011185,0.05854895,-9.866312000000001,0,0,38.40769,1,1,7745,3872
6721,59612601,2,0.001436641,-0.0004188623,-0.0008828728,-0.1021386,0.05832014,-9.867770999999999,0,0,38.40776,1,1,7745,3872
6724,59617778,2,0.001051022,0.0008783467,-0.0003920088,-0.1032591,0.06021153,-9.86206,0,0,38.40791,1,1,7745,3872
6756,59620388,2,0.0003867421,0.0003997122,-0.0001859499,-0.103945,0.06024043,-9.860811,0,0,38.40795,1,1,7745,3872
6759,59624001,2,0.0002021729,-0.001017178,-0.0004660352,-0.1036819,0.05998487,-9.858589,0,0,38.40798,1,1,7745,3872
6762,59625318,2,0.001687859,-0.0008014109,-0.0002043605,-0.1030605,0.05819388,-9.85473,0,0,38.40804,1,1,7745,3872
6765,59628550,2,0.002583769,-0.0003473517,0.0004685559,-0.1034904,0.05658634,-9.852938,0,0,38.40808,1,1,7745,3872
6796,59630975,2,0.002922887,-0.0006946535,0.0005000883,-0.1026309,0.05368758,-9.854521,0,0,38.40811,1,1,7745,3872
6799,59633735,2,0.002874052,2.941522e-07,0.0003872284,-0.09901028000000001,0.05114248,-9.862541999999999,0,0,38.40814,1,1,7745,3872
6802,59636444,2,0.002970124,0.0009881823000000001,-0.0002162405,-0.09605667,0.05000424,-9.868204,0,0,38.40815,1,1,7745,3872
6805,59638529,2,0.003679048,0.001149681,-0.001210074,-0.0936664,0.04880097,-9.874928000000001,0,0,38.40816,1,1,7745,3872
6836,59641384,2,0.003896312,0.001028463,-0.001916258,-0.09496591,0.04774263,-9.877338,0,0,38.40817,1,1,7745,3872
6840,59643623,2,0.004404093,0.0003865593,-0.002152693,-0.09973600000000001,0.04707994,-9.880433,0,0,38.40819,1,1,7745,3872
6843,59646156,2,0.004860591,8.793193000000001e-05,-0.001015102,-0.1013072,0.04660892,-9.881886,0,0,38.4082,1,1,7745,3872
6846,59649313,2,0.004484412,-0.000494063,-0.0003228812,-0.1066349,0.043626,-9.885006000000001,0,0,38.40822,1,1,7745,3872
6877,59651514,2,0.002750028,-0.0005549156,-0.0003945253,-0.1099652,0.04191035,-9.885009,0,0,38.40826,1,1,7745,3872
6880,59654556,2,0.001512052,-8.247782999999999e-05,-0.0007213763,-0.1099658,0.04349687,-9.885411,0,0,38.40829,1,1,7745,3872
6883,59656543,2,0.0007314138,-0.0005023619,4.973211e-05,-0.1096787,0.04888468,-9.883811,0,0,38.40835,1,1,7745,3872
6886,59659424,2,0.00108135,-0.0003899021,0.0004302974,-0.1089006,0.05108793,-9.882175999999999,0,0,38.40839,1,1,7745,3872
6917,59661760,2,0.001313089,0.0003688965,0.0005812761,-0.1070757,0.05196183,-9.87776,0,0,38.40848,1,1,7745,3872
6920,59664106,2,0.001313343,0.0008267983,0.0008902270000000001,-0.105341,0.05215034,-9.875175,0,0,38.40854,1,1,7745,3872
6927,59667258,2,0.00197661,0.0009746701,0.0003983077,-0.103174,0.05301201,-9.870247000000001,0,0,38.40863,1,1,7745,3872
6930,59669355,2,0.002418841,0.0002156957,-0.0003964709,-0.1022439,0.05283183,-9.865239000000001,0,0,38.40868,1,1,7745,3872
6961,59672089,2,0.00131207,-0.0001495951,-0.0009421899000000001,-0.1013783,0.05225057,-9.861200999999999,0,0,38.40875,1,1,7745,3872
6965,59674178,2,0.0007888668,-0.0002885988,-0.0008286751,-0.09936971999999999,0.05248811,-9.860507999999999,0,0,38.40879,1,1,7745,3872
6968,59676485,2,0.0007004176,-1.516782e-05,-0.0004153029,-0.09708921,0.05232564,-9.860414,0,0,38.40885,1,1,7745,3872
6971,59679671,2,0.0004568312,0.000494202,-0.0002332508,-0.09513406000000001,0.051051,-9.861863,0,0,38.40888,1,1,7745,3872
7002,59682381,2,6.071898e-05,0.00061167,-0.0001450748,-0.09171826,0.05028877,-9.863524,0,0,38.40892,1,1,7745,3872
7005,59684562,2,-5.498722e-06,0.001120265,-0.0002025958,-0.09130882999999999,0.050024,-9.863011999999999,0,0,38.40896,1,1,7745,3872
7008,59687035,2,0.00063762,0.001146655,8.963868e-05,-0.09106520999999999,0.04838215,-9.863688,0,0,38.40899,1,1,7745,3872
7011,59690374,2,0.001791387,0.0009765759,0.0005624024,-0.09031893000000001,0.04396085,-9.868226999999999,0,0,38.40903,1,1,7745,3872
7042,59692727,2,0.0004399464,0.0009909714999999999,0.0006869806,-0.08956522,0.03900461,-9.873664,0,0,38.40908,1,1,7745,3872
7046,59695362,2,-0.0006832497000000001,0.0008374898,0.000991734,-0.09031028000000001,0.03580803,-9.875246000000001,0,0,38.40912,1,1,7745,3872
7049,59698113,2,-0.001288245,-0.0001946422,0.0009169083,-0.09203991,0.03280007,-9.873882,0,0,38.40919,1,1,7745,3872
7052,59700129,2,-0.001362615,-0.0006140325,0.0006069536,-0.09312963,0.03176222,-9.871179,0,0,38.40924,1,1,7745,3872
7083,59703893,2,-0.001218436,0.0005110102,0.0005865308,-0.09391569,0.0325302,-9.865969,0,0,38.40927,1,1,7745,3872
7087,59705112,2,-0.0001765302,0.001455104,0.0006953478,-0.09307372999999999,0.03519917,-9.864132,0,0,38.40929,1,1,7745,3872
7091,59710312,2,-0.0008017067,-0.0001127335,0.001269233,-0.08781050999999999,0.04409832,-9.862644,0,0,38.40935,1,1,7745,3872
7122,59713522,2,-0.0012669,-0.0002617946,0.0009528028,-0.08613772,0.04708344,-9.863163999999999,0,0,38.40939,1,1,7745,3872
7125,59715468,2,-0.001890946,0.0002405043,0.0003108825,-0.08502978999999999,0.05021306,-9.863592000000001,0,0,38.40943,1,1,7745,3872
7129,59717521,2,-0.0006592096,0.0005578378,-0.0005686366,-0.08569901000000001,0.05571005,-9.862995,0,0,38.4095,1,1,7745,3872
7132,59720143,2,0.0001625114,0.0004900281,-0.0005698801,-0.08653925,0.05991688,-9.863588,0,0,38.40956,1,1,7745,3872
7163,59723129,2,0.0007276191,0.0006816488,0.0003839327,-0.08806749,0.06321151999999999,-9.865916,0,0,38.40964,1,1,7745,3872
7167,59725556,2,0.0005414903,0.0004071423,0.0006544682,-0.08994492,0.06343074999999999,-9.864962,0,0,38.40969,1,1,7745,3872
7170,59727493,2,-0.0002086088,0.0002313145,0.0007096173000000001,-0.09288593000000001,0.06451429,-9.863827000000001,0,0,38.40976,1,1,7745,3872
7173,59730411,2,0.0001466377,0.0002576997,0.0009295104,-0.09548863,0.06401932,-9.867554999999999,0,0,38.40979,1,1,7745,3872
7204,59733035,2,4.468377e-05,0.0001181221,0.001249308,-0.09816616,0.06292477,-9.871584,0,0,38.40986,1,1,7745,3872
7207,59735358,2,-0.001101788,-0.0007695245,0.001108029,-0.09809560000000001,0.06322011,-9.871403000000001,0,0,38.40989,1,1,7745,3872
7210,59738373,2,-0.001140608,-0.001089761,0.0004043139,-0.09772763,0.06351800000000001,-9.871224,0,0,38.40992,1,1,7745,3872
7213,59740488,2,-0.0006901854,-0.001316295,0.0001504341,-0.0960747,0.0650516,-9.871218000000001,0,0,38.40994,1,1,7745,3872
7244,59742746,2,-0.0005309469,-0.0009298422,-0.000145435,-0.09512587,0.06593741,-9.869014,0,0,38.40995,1,1,7745,3872
7248,59745901,2,0.0009851278,0.0005030659,-0.001553617,-0.09299196,0.06560497999999999,-9.864789999999999,0,0,38.40997,1,1,7745,3872
7251,59747760,2,0.001469892,0.0006319623,-0.001070028,-0.09164913,0.06473292999999999,-9.862227000000001,0,0,38.40998,1,1,7745,3872
7254,59750539,2,0.001316584,0.0001063504,-0.0002416882,-0.09232382,0.06359539,-9.861361,0,0,38.41,1,1,7745,3872
7285,59753363,2,0.001141198,0.0003818674,3.093225e-05,-0.09382488999999999,0.06246527,-9.862292,0,0,38.41002,1,1,7745,3872
7289,59755391,2,0.0003202285,0.0002769692,-0.0004557336,-0.09516583000000001,0.06159217,-9.863471000000001,0,0,38.41003,1,1,7745,3872
7292,59758296,2,-0.0002603664,0.0006889581,-0.0007308835000000001,-0.09571733,0.06224298,-9.864418000000001,0,0,38.41003,1,1,7745,3872
7295,59760587,2,-0.0002563148,0.00143609,0.0001521473,-0.09455040000000001,0.06499327000000001,-9.867464,0,0,38.41006,1,1,7745,3872
7326,59762947,2,0.0001090089,0.001441872,0.001092719,-0.09195705999999999,0.06639919,-9.868447,0,0,38.41007,1,1,7745,3872
7330,59765979,2,0.0008267483,0.0009810947000000001,0.001659737,-0.08814423,0.0663866,-9.866927,0,0,38.41008,1,1,7745,3872
7337,59768784,2,0.000429427,-5.219218e-06,0.001047901,-0.08636692999999999,0.06604794,-9.864598000000001,0,0,38.41008,1,1,7745,3872
7340,59770285,2,-0.0005397076,-0.0005257575999999999,-0.0006005155,-0.08416791999999999,0.06517000000000001,-9.862275,0,0,38.41005,1,1,7745,3872
7371,59772959,2,-0.000397577,0.0001224881,-0.001567819,-0.08172878,0.06492613999999999,-9.857958,0,0,38.41003,1,1,7745,3872
7375,59775415,2,0.0002003727,0.0007340556,-0.0016245,-0.07952505,0.06484632,-9.852076,0,0,38.41,1,1,7745,3872
7378,59778407,2,0.0008710548,0.001213333,-0.001492355,-0.07957206,0.06305465,-9.849477,0,0,38.40998,1,1,7745,3872
7381,59780940,2,0.002039143,0.001019593,-0.000745271,-0.08277059,0.06234311,-9.847457,0,0,38.40996,1,1,7745,3872
7412,59783438,2,0.00281383,0.0005272392000000001,-0.0005991411,-0.085797,0.06275981999999999,-9.847014,0,0,38.40995,1,1,7745,3872
7415,59785636,2,0.00300415,-1.271316e-05,-0.0008446591,-0.09042464,0.06220846,-9.848086,0,0,38.40995,1,1,7745,3872
7418,59787767,2,0.00299563,-0.0004400797,-0.001338044,-0.09285311,0.06062671,-9.851042,0,0,38.40994,1,1,7745,3872
7423,59791256,2,0.003037525,0.0005026077,-0.003080128,-0.09436314,0.05891567,-9.856465999999999,0,0,38.40993,1,1,7745,3872
7455,59793956,2,0.00259231,0.0009963303,-0.002312743,-0.09492877,0.05602569,-9.862126,0,0,38.40993,1,1,7745,3872
7459,59795937,2,0.002039636,0.0007979154,-0.002003208,-0.09643225,0.05440615,-9.863891000000001,0,0,38.40992,1,1,7745,3872
7463,59798296,2,0.001507529,0.0007803019,-0.001560211,-0.09828835,0.05340857,-9.865686999999999,0,0,38.40992,1,1,7745,3872
7466,59801537,2,0.00109871,0.0007098835,-0.002250836,-0.09858082999999999,0.05379194,-9.865328,0,0,38.40991,1,1,7745,3872
7497,59805126,2,0.001577399,-0.0001192107,-0.001408023,-0.09726664,0.05417657,-9.864089,0,0,38.40991,1,1,7745,3872
7500,59806426,2,0.002507843,-2.370463e-05,-0.0003346974,-0.09321398,0.05423876,-9.862933999999999,0,0,38.40992,1,1,7745,3872
7503,59809117,2,0.003184617,0.0004418209,-0.0003736551,-0.09036078,0.05408134,-9.862427,0,0,38.40993,1,1,7745,3872
7507,59811418,2,0.003059592,0.0003365416,-0.0004259307,-0.08749319999999999,0.05230631,-9.86206,0,0,38.40995,1,1,7745,3872
7538,59817248,2,0.001753905,0.0002553238,0.000109145,-0.0889563,0.05115339,-9.865798,0,0,38.41,1,1,7745,3872
7542,59818793,2,0.001525584,0.0007140028,-0.0002301555,-0.09022777999999999,0.05102616,-9.864490999999999,0,0,38.41003,1,1,7745,3872
7545,59821431,2,0.001308339,0.0007513806,-0.0007072343,-0.0924328,0.05038832,-9.860916,0,0,38.41009,1,1,7745,3872
7576,59823879,2,0.00180389,0.0009994827999999999,-0.0007460913,-0.09424496,0.0504577,-9.858928000000001,0,0,38.41011,1,1,7745,3872
7579,59826788,2,0.002459012,0.001187043,-0.0008407232,-0.09509531,0.05043472,-9.860205000000001,0,0,38.41016,1,1,7745,3872
7583,59829581,2,0.002479637,0.0003179703,-0.0006760726,-0.09441711999999999,0.04971968,-9.862696,0,0,38.4102,1,1,7745,3872
7586,59831293,2,0.002770491,-0.0009448556,-0.0005054391,-0.09323399,0.04839903,-9.869452000000001,0,0,38.41027,1,1,7745,3872
7617,59833959,2,0.003233952,-0.0004905672,2.774202e-05,-0.09338191,0.04842421,-9.871819,0,0,38.41031,1,1,7745,3872
7620,59836520,2,0.002559117,0.0001138285,0.0001712427,-0.09413131,0.04956369,-9.874876,0,0,38.41037,1,1,7745,3872
7623,59839280,2,0.00172099,0.0005738836,0.0005615156,-0.09565479,0.05237953,-9.876664,0,0,38.41043,1,1,7745,3872
7626,59841978,2,0.001243637,0.001304584,0.001910601,-0.09709124,0.05320051,-9.872983,0,0,38.41049,1,1,7745,3872
7657,59844301,2,0.002644031,0.001778005,0.001995391,-0.1000601,0.05313554,-9.868767,0,0,38.41056,1,1,7745,3872
7661,59846599,2,0.002807677,0.001382447,0.001377412,-0.1011706,0.05292216,-9.868331,0,0,38.41059,1,1,7745,3872
7665,59849076,2,0.002299787,0.001133913,0.001848714,-0.1020202,0.05300464,-9.869467999999999,0,0,38.41063,1,1,7745,3872
7669,59852260,2,0.002441871,0.0003612819,0.002639385,-0.1030684,0.05285817,-9.872858000000001,0,0,38.41066,1,1,7745,3872
7700,59855092,2,0.00230856,-0.0001235791,0.002178014,-0.1056891,0.05252454,-9.874143999999999,0,0,38.41068,1,1,7745,3872
7703,59857095,2,0.001702248,0.0002151774,0.002208392,-0.1067871,0.05297874,-9.872837000000001,0,0,38.41069,1,1,7745,3872
7706,59859777,2,0.001359126,0.000664304,0.00169537,-0.1071652,0.05210968,-9.868315000000001,0,0,38.4107,1,1,7745,3872
7709,59861955,2,0.001172294,0.0001106406,0.0008444319,-0.1078699,0.05148411,-9.866694000000001,0,0,38.41071,1,1,7745,3872
7740,59864996,2,-1.635437e-05,-0.0003676201,0.0004326586,-0.1077718,0.05015936,-9.865487999999999,0,0,38.41072,1,1,7745,3872
7743,59867403,2,-0.0005778646,-0.0008468459,0.001331954,-0.1077786,0.04975484,-9.864914000000001,0,0,38.41074,1,1,7745,3872
7751,59870130,2,-0.0006043281,-0.001259889,0.002321531,-0.1084493,0.0465358,-9.862586,0,0,38.41077,1,1,7745,3872
7754,59871941,2,-0.0009006644,-0.0007867338,0.002865813,-0.1086299,0.04213275,-9.859378,0,0,38.41079,1,1,7745,3872
7785,59874943,2,-0.001281579,0.0004290855,0.002816593,-0.1076947,0.03632448,-9.854089,0,0,38.41079,1,1,7745,3872
7788,59877563,2,-0.00090425,0.0006043419,0.0026407,-0.1065371,0.03583899,-9.852592,0,0,38.41079,1,1,7745,3872
7792,59880088,2,-0.0003608413,0.0001612033,0.0009843592,-0.1041333,0.03705875,-9.85008,0,0,38.41079,1,1,7745,3872
7795,59882262,2,-0.0005371216,3.485155e-05,-0.0001107124,-0.1024642,0.03734271,-9.849126999999999,0,0,38.41078,1,1,7745,3872
7826,59884474,2,-0.0005568315,-0.0003600103,-0.0003690389,-0.1014118,0.03881283,-9.846784,0,0,38.41075,1,1,7745,3872
7829,59886994,2,-0.001137581,-0.0002156176,0.0003727059,-0.1001647,0.03939085,-9.845571,0,0,38.41074,1,1,7745,3872
7832,59890474,2,-0.001536303,0.0005999117,0.0006480439,-0.09568755,0.03927283,-9.847483,0,0,38.41072,1,1,7745,3872
7835,59892381,2,-0.0009726614,0.0007279359,0.0002236345,-0.09262210999999999,0.03991731,-9.850751000000001,0,0,38.41071,1,1,7745,3872
7866,59894764,2,-0.0006683607,0.001071584,0.0004955716,-0.09016116,0.04114964,-9.85388,0,0,38.41073,1,1,7745,3872
7869,59897287,2,-0.00103748,0.001460474,0.0008982429,-0.08874665,0.04311465,-9.855416999999999,0,0,38.41075,1,1,7745,3872
7873,59900003,2,-0.001101117,0.001867476,0.001246712,-0.08985579,0.04786014,-9.856702,0,0,38.41079,1,1,7745,3872
7876,59902389,2,-0.0006821548,0.001720799,0.001117137,-0.09278387,0.05117727,-9.858698,0,0,38.41084,1,1,7745,3872
7907,59905896,2,-0.0006205908,0.001311232,0.001872317,-0.09799758,0.05490146,-9.865254,0,0,38.41088,1,1,7745,3872
7910,59907166,2,-0.001590662,0.0004500264,0.00171808,-0.1018022,0.05700237,-9.872251,0,0,38.41092,1,1,7745,3872
7913,59910000,2,-0.00222699,-9.974884e-05,0.001780028,-0.1034808,0.05750911,-9.875992,0,0,38.41094,1,1,7745,3872
7916,59911981,2,-0.002319676,-0.00040151,0.00178561,-0.1040096,0.05685108,-9.878444,0,0,38.41098,1,1,7745,3872
7947,59917936,2,-0.001504576,0.0007704084,0.001985283,-0.1033954,0.05687071,-9.880784999999999,0,0,38.41111,1,1,7745,3872
7951,59919918,2,-0.001307721,0.00107321,0.001178795,-0.1034024,0.05786902,-9.881536000000001,0,0,38.41116,1,1,7745,3872
7955,59922041,2,-0.001514137,0.001335346,0.0001161524,-0.1032154,0.05926565,-9.881689,0,0,38.41121,1,1,7745,3872
7986,59924470,2,-0.001545096,0.001413177,-0.0001579687,-0.1024099,0.063085,-9.878798,0,0,38.41129,1,1,7745,3872
7989,59927532,2,-0.00114594,0.001249365,5.01652e-05,-0.1022869,0.06437991999999999,-9.876993000000001,0,0,38.41135,1,1,7745,3872
7992,59929919,2,-0.0005661773,0.0006696791,-5.579459e-05,-0.1028869,0.06839499,-9.870737999999999,0,0,38.41144,1,1,7745,3872
7996,59932528,2,-0.0003269857,0.0003834,-6.403051e-05,-0.1039256,0.07095153,-9.866745999999999,0,0,38.41149,1,1,7745,3872
8029,59935030,2,-0.0007020404,0.0009322091,0.0004842925,-0.1074007,0.07318587,-9.860372,0,0,38.41158,1,1,7745,3872
8032,59937356,2,-0.001622716,0.0009632098,0.00113419,-0.1104669,0.07343131,-9.855748999999999,0,0,38.41166,1,1,7745,3872
8036,59940398,2,-0.002337939,0.00107531,0.0006168724,-0.1114715,0.07237478,-9.856507000000001,0,0,38.41171,1,1,7745,3872
8039,59942993,2,-0.002420246,0.0008538287,-0.001180395,-0.1117696,0.06955994,-9.859745999999999,0,0,38.4118,1,1,7745,3872
8070,59945747,2,-0.0002528632,0.001496931,-0.002310342,-0.1123053,0.06723013999999999,-9.863637000000001,0,0,38.41193,1,1,7745,3872
8073,59947956,2,0.0009737721,0.001624006,-0.002450988,-0.1117234,0.06625708,-9.865926,0,0,38.412,1,1,7745,3872
8076,59950418,2,0.001774623,0.002126254,-0.000800314,-0.1098869,0.06669217,-9.867125,0,0,38.41212,1,1,7745,3872
8079,59953397,2,0.001374986,0.001858943,0.00062812,-0.1097573,0.06818322,-9.867041,0,0,38.41218,1,1,7745,3872
8111,59956278,2,0.0008301091,0.001134709,0.001419429,-0.1083941,0.07176863,-9.862867,0,0,38.41228,1,1,7745,3872
8114,59958290,2,0.0004371031,0.0002928991,0.0009813532,-0.1068213,0.07384264,-9.858624000000001,0,0,38.41235,1,1,7745,3872
8118,59960933,2,0.0008384678,0.0001988753,-0.0002430472,-0.1051442,0.07598304,-9.853201,0,0,38.4124,1,1,7745,3872
8121,59963523,2,0.001443418,0.0002740468,-0.001031536,-0.1033691,0.07942647999999999,-9.84389,0,0,38.41248,1,1,7745,3872
8152,59966502,2,0.002267336,0.0004599807,-0.0008772662,-0.1028791,0.08091265,-9.839689,0,0,38.41253,1,1,7745,3872
8155,59969025,2,0.003698166,0.001687395,-0.00124935,-0.102257,0.08130583,-9.840788,0,0,38.4126,1,1,7745,3872
8163,59971258,2,0.003481172,0.002014003,-0.0009951561999999999,-0.1018397,0.07996130999999999,-9.844148000000001,0,0,38.41263,1,1,7745,3872
8168,59973375,2,0.002995568,0.002043576,-0.0002797284,-0.09932153000000001,0.07775049000000001,-9.850839000000001,0,0,38.4127,1,1,7745,3872
8199,59975998,2,0.003082764,0.001798031,0.0009233507,-0.09682085,0.07678933,-9.856835999999999,0,0,38.41273,1,1,7745,3872
8202,59978786,2,0.002625387,0.002103274,0.001103272,-0.09388613,0.07518941,-9.866127000000001,0,0,38.41277,1,1,7745,3872
8206,59981367,2,0.002351136,0.002187501,0.0004249886,-0.09182007,0.07313310000000001,-9.871817999999999,0,0,38.4128,1,1,7745,3872
8209,59983364,2,0.003942047,0.002993917,0.000780718,-0.08862257,0.07016236000000001,-9.876360999999999,0,0,38.41285,1,1,7745,3872
8240,59985923,2,0.004052088,0.003393859,0.0007716324,-0.086727,0.0678749,-9.876408,0,0,38.41287,1,1,7745,3872
8243,59988389,2,0.002451382,0.002915825,-0.0003201789,-0.08499966,0.06400662999999999,-9.876759,0,0,38.41292,1,1,7745,3872
8247,59991362,2,0.001491978,0.001916645,-0.001131151,-0.08456384,0.06315129999999999,-9.876516000000001,0,0,38.41296,1,1,7745,3872
8252,59994303,2,0.001441542,0.0012535,-0.001119161,-0.08475294999999999,0.0618789,-9.87359,0,0,38.41306,1,1,7745,3872
8283,59996763,2,0.001561365,0.001420475,-0.0003950671,-0.08753441000000001,0.0612242,-9.867927,0,0,38.41311,1,1,7745,3872
8286,59998759,2,0.001588179,0.001839222,0.0005902565,-0.0889715,0.06105102,-9.865961,0,0,38.41314,1,1,7745,3872
8289,60001586,2,0.002375587,0.0007763743,0.001155391,-0.08944515,0.06165558,-9.863227,0,0,38.41315,1,1,7745,3872
8292,60004531,2,0.003221255,-0.0001832338,0.001970279,-0.08955774,0.06063027,-9.860384,0,0,38.41317,1,1,7745,3872
8323,60007282,2,0.003244277,6.006684e-05,0.001163581,-0.09112922,0.05885036,-9.857182999999999,0,0,38.4132,1,1,7745,3872
8326,60009942,2,0.003096252,0.0001188843,0.0009916676000000001,-0.09444018,0.05722943,-9.855432,0,0,38.41325,1,1,7745,3872
8330,60012166,2,0.002760876,0.0002470149,0.0009977194999999999,-0.09624956,0.05587076,-9.855371999999999,0,0,38.41328,1,1,7745,3872
8333,60014493,2,0.00299433,-0.0003931576,0.001543151,-0.09610686,0.0514552,-9.859408999999999,0,0,38.41335,1,1,7745,3872
8364,60018418,2,0.00385532,-0.0007676924,0.001477754,-0.09469163999999999,0.04783923,-9.864121000000001,0,0,38.41339,1,1,7745,3872
8367,60022364,2,0.0021649,-0.0006149518,0.003358413,-0.09186726000000001,0.0439717,-9.868807,0,0,38.41349,1,1,7745,3872
8371,60024975,2,0.002111885,-2.057823e-05,0.003388123,-0.09181872000000001,0.0459984,-9.869424,0,0,38.41353,1,1,7745,3872
8402,60027376,2,0.002352538,2.583365e-05,0.002874682,-0.09020139000000001,0.04800396,-9.869332999999999,0,0,38.4136,1,1,7745,3872
8405,60030715,2,0.001948233,0.0002066362,0.003255152,-0.0891079,0.04719923,-9.868682,0,0,38.41365,1,1,7745,3872
8408,60032513,2,0.001810601,0.001217132,0.002532343,-0.08883367,0.04555317,-9.866865000000001,0,0,38.41371,1,1,7745,3872
8413,60035379,2,0.001772127,0.00176285,0.001583738,-0.08746025,0.04522267,-9.869434999999999,0,0,38.41375,1,1,7745,3872
8444,60038274,2,0.002224981,0.001638989,0.0004726587,-0.08415954,0.04646006,-9.876785,0,0,38.41384,1,1,7745,3872
8447,60040163,2,0.002755637,0.0009951665,0.0006673945,-0.08141138000000001,0.04908403,-9.880101,0,0,38.41389,1,1,7745,3872
8450,60042973,2,0.002184033,9.164614000000001e-05,0.0005062041,-0.07822935,0.05253246,-9.880917,0,0,38.41396,1,1,7745,3872
8454,60044964,2,0.0008267509,-0.0003081277,0.001159872,-0.07658869,0.05337552,-9.881157999999999,0,0,38.41401,1,1,7745,3872
8485,60047921,2,-0.0003586664,-9.734114e-05,0.002460842,-0.07467221,0.05268016,-9.881107999999999,0,0,38.41409,1,1,7745,3872
8488,60050128,2,-0.0006436379000000001,0.0001906065,0.003211626,-0.0744631,0.05113572,-9.880658,0,0,38.41415,1,1,7745,3872
8491,60052541,2,-0.0005177547,-0.0003496313,0.002508773,-0.07538626,0.04824742,-9.878185,0,0,38.41425,1,1,7745,3872
8494,60055533,2,-0.0007255431,-0.0009953474999999999,0.001607394,-0.07579704,0.04695655,-9.877642,0,0,38.41429,1,1,7745,3872
8525,60057968,2,-0.001714151,-0.001192798,0.0005272432,-0.07665556,0.04683314,-9.878,0,0,38.41435,1,1,7745,3872
8528,60060409,2,-0.003200363,-0.0006715193,-0.0004357317,-0.07772777,0.04678876,-9.879087,0,0,38.41439,1,1,7745,3872
8531,60062574,2,-0.004211345,-0.0007392473000000001,-0.001291366,-0.07997861000000001,0.04832534,-9.878742000000001,0,0,38.41445,1,1,7745,3872
8535,60065165,2,-0.004328846,-0.001130471,-0.001885129,-0.08231629,0.05087597,-9.877435999999999,0,0,38.41449,1,1,7745,3872
8566,60067873,2,-0.004330311,-0.001373868,-0.001093762,-0.08712962,0.0544091,-9.879009999999999,0,0,38.41457,1,1,7745,3872
8569,60070131,2,-0.003351029,-0.001211686,-9.783623000000001e-05,-0.08874786,0.05699606,-9.881394,0,0,38.4146,1,1,7745,3872
8576,60072950,2,-0.003723213,-0.001222633,0.001052558,-0.09052841,0.06084109,-9.883540999999999,0,0,38.41469,1,1,7745,3872
8580,60075747,2,-0.004271411,-0.001524819,0.0004223275,-0.09186502000000001,0.06359956,-9.882565,0,0,38.41474,1,1,7745,3872
8611,60078310,2,-0.004590939,-0.0009471191,-0.0009433033,-0.0930682,0.06652316,-9.879217000000001,0,0,38.41483,1,1,7745,3872
8614,60080800,2,-0.003852326,-8.455986999999999e-05,-0.001143833,-0.09481318,0.06700975000000001,-9.875173999999999,0,0,38.4149,1,1,7745,3872
8617,60083095,2,-0.003085258,0.000557299,-0.002042452,-0.09533804999999999,0.06676372999999999,-9.873011,0,0,38.41498,1,1,7745,3872
8621,60085601,2,-0.002685665,0.0003802916,-0.002494789,-0.09451142999999999,0.06562850000000001,-9.869021999999999,0,0,38.41506,1,1,7745,3872
8652,60088515,2,-0.002224429,-0.0001809823,-0.0016557,-0.09337558999999999,0.06486374,-9.867582000000001,0,0,38.41511,1,1,7745,3872
8655,60091304,2,-0.001654066,-0.0005508499,-0.0004305481,-0.09206109,0.06493396,-9.86598,0,0,38.41512,1,1,7745,3872
8658,60092913,2,-0.0009652377,-0.0003855528,-0.0004172825,-0.09287663,0.06580825999999999,-9.865748,0,0,38.41515,1,1,7745,3872
8662,60095572,2,-0.0007616371,-8.746609e-05,-0.0001799357,-0.09427658999999999,0.0686039,-9.867516999999999,0,0,38.41518,1,1,7745,3872
8693,60097971,2,-0.001273568,1.006833e-06,0.0001522771,-0.09481299999999999,0.06993138,-9.869142999999999,0,0,38.41523,1,1,7745,3872
8696,60101005,2,-0.002065714,0.0003917703,-0.001064384,-0.09565248,0.07261254,-9.868778000000001,0,0,38.41528,1,1,7745,3872
8699,60103437,2,-0.001880339,0.001106615,-0.001831673,-0.09596029,0.07378868,-9.868226,0,0,38.41531,1,1,7745,3872
8702,60106140,2,-0.0009657223,0.001982773,-0.001444582,-0.09611699999999999,0.07319791,-9.86679,0,0,38.41535,1,1,7745,3872
8733,60108344,2,-0.001712321,0.002231496,-0.0008928999,-0.09461751,0.07430017,-9.865245,0,0,38.41536,1,1,7745,3872
8736,60110985,2,-0.001857129,0.001578768,-0.001026297,-0.0933712,0.07538104,-9.862797,0,0,38.41536,1,1,7745,3872
8739,60114922,2,-0.0007529699,0.001476556,-0.001849958,-0.09403076,0.07587294,-9.861473,0,0,38.41531,1,1,7745,3872
8742,60117664,2,0.0001533003,0.001553281,-0.002387928,-0.09525988000000001,0.07532194,-9.860882999999999,0,0,38.41527,1,1,7745,3872
8745,60118803,2,0.0008863127,0.001503025,-0.003228275,-0.09685112999999999,0.07307731000000001,-9.862329000000001,0,0,38.41521,1,1,7745,3872
8777,60121472,2,0.001158791,0.0004424308,-0.002770475,-0.09667360999999999,0.06950075999999999,-9.863902,0,0,38.41515,1,1,7745,3872
8780,60125159,2,0.000753302,-0.0002186856,-0.002702811,-0.09644241000000001,0.06766438,-9.865112999999999,0,0,38.41509,1,1,7745,3872
8783,60126301,2,0.0003902478,-0.0004376103,-0.002572354,-0.09507561,0.06707932,-9.865225000000001,0,0,38.41497,1,1,7745,3872
8786,60129440,2,0.001069002,-0.0001080249,-0.001926391,-0.09516536,0.06695382,-9.866403999999999,0,0,38.41491,1,1,7745,3872
8817,60131763,2,0.00179404,0.0007620018000000001,-0.001133148,-0.09647899,0.06595291,-9.870096,0,0,38.41482,1,1,7745,3872
8822,60134308,2,0.002873444,0.001095168,-0.001786823,-0.09809192,0.06765317999999999,-9.873125999999999,0,0,38.41473,1,1,7745,3872
8826,60137290,2,0.003249124,0.0005811887,-0.002091957,-0.09816799,0.06903479,-9.873647999999999,0,0,38.41467,1,1,7745,3872
8829,60139160,2,0.003426889,-0.0009692985,-0.0009139772999999999,-0.09748316999999999,0.06905375,-9.874117,0,0,38.41452,1,1,7745,3872
8860,60142338,2,0.004194103,-0.001168524,-0.000870262,-0.0974044,0.0691833,-9.874203,0,0,38.41445,1,1,7745,3872
8863,60144306,2,0.004861986,-0.0007464193,-0.0001132535,-0.09679293999999999,0.06817144,-9.873573,0,0,38.41436,1,1,7745,3872
8866,60147019,2,0.004618921,-0.0003662112,-6.35115e-05,-0.09615037999999999,0.06747454,-9.873174000000001,0,0,38.4143,1,1,7745,3872
8869,60149988,2,0.004511866,-0.0001279957,-0.0005512954,-0.09466408,0.06692486,-9.871732,0,0,38.41419,1,1,7745,3872
8900,60152303,2,0.004155396,2.079682e-05,0.0003367785,-0.09423947000000001,0.06663059,-9.869551,0,0,38.41411,1,1,7745,3872
8904,60155503,2,0.00451747,0.0002625013,0.00119518,-0.09475343999999999,0.06703971,-9.868494,0,0,38.41407,1,1,7745,3872
8907,60157297,2,0.004860264,0.0003189853,0.002257416,-0.09672087,0.06700813999999999,-9.867772,0,0,38.41396,1,1,7745,3872
8910,60159961,2,0.004181739,-0.0001641314,0.001970025,-0.09856305,0.06693594,-9.868751,0,0,38.41391,1,1,7745,3872
8941,60162789,2,0.004219288,-0.0004866946,0.001973884,-0.1019596,0.06704792,-9.871764000000001,0,0,38.41384,1,1,7745,3872
8944,60164937,2,0.004391978,-0.0005356631,0.000742715,-0.1043608,0.06625126000000001,-9.872854,0,0,38.41379,1,1,7745,3872
8947,60167789,2,0.00463219,-0.000528191,-7.327288000000001e-05,-0.1067783,0.06456442,-9.874537,0,0,38.41374,1,1,7745,3872
8950,60170163,2,0.004784564,-0.0005557698,0.0006093698,-0.1093471,0.06057998,-9.875792000000001,0,0,38.41367,1,1,7745,3872
8981,60172357,2,0.003438569,-0.0006718622,0.001021365,-0.108095,0.05711809,-9.878155,0,0,38.41358,1,1,7745,3872
8989,60175948,2,0.002670727,-0.0008645564,0.001038215,-0.1062708,0.05561836,-9.881295,0,0,38.41353,1,1,7745,3872
8992,60177151,2,0.003085373,-0.0006070753,0.001278014,-0.1045284,0.05422717,-9.88287,0,0,38.41343,1,1,7745,3872
8997,60180314,2,0.002973306,-0.0001651647,0.001723952,-0.1028436,0.05234301,-9.880401000000001,0,0,38.41339,1,1,7745,3872
9028,60183118,2,0.002692895,-6.438953999999999e-05,0.001557182,-0.1030286,0.05003936,-9.875453,0,0,38.41333,1,1,7745,3872
9032,60185879,2,0.003048934,-0.0006409322,0.00158964,-0.1040519,0.04868957,-9.874095000000001,0,0,38.41326,1,1,7745,3872
9036,60187717,2,0.002905117,-0.0008567928,0.0008697228999999999,-0.1046455,0.04795188,-9.869828999999999,0,0,38.41319,1,1,7745,3872
9039,60190337,2,0.002361929,-0.0009704318,0.000274126,-0.1040535,0.04853271,-9.86664,0,0,38.41314,1,1,7745,3872
9070,60193045,2,0.001691813,-0.000664367,-0.0001822039,-0.1015462,0.0485152,-9.863356,0,0,38.41311,1,1,7745,3872
9073,60195955,2,0.001578715,-6.970578e-05,0.0003817753,-0.09881649000000001,0.04766792,-9.862004000000001,0,0,38.41308,1,1,7745,3872
9076,60198262,2,6.834462e-05,0.0008881187,0.001503288,-0.09458417,0.0455183,-9.862356,0,0,38.41304,1,1,7745,3872
9079,60200336,2,-0.0004301811,0.0009585052,0.001843448,-0.09124547,0.04470336,-9.864296,0,0,38.41299,1,1,7745,3872
9110,60202551,2,0.0004886602,0.0007476127,0.001119631,-0.08745914,0.04404677,-9.864989,0,0,38.41295,1,1,7745,3872
9114,60205282,2,0.00083437,0.0008956463,0.001249474,-0.08502632,0.04502988,-9.865112999999999,0,0,38.41292,1,1,7745,3872
9117,60208140,2,0.00131295,0.0007579422,0.002011797,-0.08246301,0.04778483,-9.865406,0,0,38.41288,1,1,7745,3872
9120,60210885,2,0.001365247,0.001149181,0.002113604,-0.08188776,0.04821895,-9.864521999999999,0,0,38.41285,1,1,7745,3872
9151,60214288,2,0.0009412779,0.001840171,0.002248898,-0.08270027000000001,0.04734123,-9.860443,0,0,38.41282,1,1,7745,3872
9154,60215868,2,0.0001129353,0.002207379,0.00250461,-0.08622924999999999,0.04523567,-9.857139,0,0,38.41278,1,1,7745,3872
9157,60218254,2,-0.0008846794,0.002292366,0.002146542,-0.08829872,0.04554286,-9.855051,0,0,38.41276,1,1,7745,3872
9160,60220723,2,-0.001857484,0.002180147,-1.05675e-05,-0.09108792,0.04699278,-9.855141,0,0,38.41273,1,1,7745,3872
9191,60224351,2,-0.001238082,0.001978513,-0.0008005491,-0.09224113,0.04778957,-9.857396,0,0,38.41271,1,1,7745,3872
9195,60226398,2,-0.0006467425,0.001095488,-0.001016853,-0.09263891,0.05013246,-9.861981,0,0,38.41271,1,1,7745,3872
9198,60228030,2,-0.001488003,-0.0001054998,-0.0008015105999999999,-0.09255761999999999,0.05174658,-9.864438,0,0,38.41271,1,1,7745,3872
9201,60230756,2,-0.00231052,-0.0004959904,-0.000192152,-0.09273323,0.05468262,-9.864084999999999,0,0,38.41271,1,1,7745,3872
9232,60233000,2,-0.00228725,-4.49962e-05,0.0007526811,-0.09318093,0.05697901,-9.863847,0,0,38.41271,1,1,7745,3872
9235,60236380,2,-0.001558822,0.001011678,0.0004481485,-0.09547135,0.06061261,-9.860576,0,0,38.41271,1,1,7745,3872
9239,60238656,2,-0.001440887,0.0009761218,-7.028274e-05,-0.09700043,0.0620988,-9.856455,0,0,38.41271,1,1,7745,3872
9242,60240924,2,-0.001190427,0.00101083,-0.0002717337,-0.1006508,0.06165962,-9.84995,0,0,38.41271,1,1,7745,3872
9273,60243025,2,-0.001824129,0.001405946,-2.648618e-05,-0.1034996,0.06142237,-9.846852999999999,0,0,38.41271,1,1,7745,3872
9277,60245633,2,-0.00242746,0.001527625,4.666093e-06,-0.1046984,0.06230899,-9.846904,0,0,38.41272,1,1,7745,3872
9280,60248553,2,-0.00314343,0.001814615,-0.0005958870999999999,-0.1047833,0.06326714999999999,-9.84934,0,0,38.41273,1,1,7745,3872
9283,60250960,2,-0.002895657,0.002304253,-0.00169533,-0.1034591,0.06485407,-9.855846,0,0,38.41274,1,1,7745,3872
9314,60253540,2,-0.003056806,0.0016159,-0.001539488,-0.1004977,0.06559843999999999,-9.859759,0,0,38.41275,1,1,7745,3872
9318,60255917,2,-0.003324228,0.0012092,-0.0009866393,-0.09910011000000001,0.06465369,-9.861851,0,0,38.41277,1,1,7745,3872
9322,60258036,2,-0.002880819,0.001143612,-0.00080939,-0.09789668999999999,0.06361187,-9.864261000000001,0,0,38.41278,1,1,7745,3872
9325,60261383,2,-0.002405247,0.0009035027,-0.002010802,-0.0973272,0.06402856,-9.867478,0,0,38.41278,1,1,7745,3872
9356,60263726,2,-0.002367086,0.0001118322,-0.001837981,-0.09698906,0.06705195999999999,-9.869247,0,0,38.41282,1,1,7745,3872
9359,60266888,2,-0.002423382,-4.222978e-05,-0.001190957,-0.09710642,0.06863344,-9.869160000000001,0,0,38.41285,1,1,7745,3872
9362,60268669,2,-0.001913288,5.759065e-05,-0.0008320883,-0.09739842,0.07107416,-9.866365,0,0,38.41288,1,1,7745,3872
9365,60271253,2,-0.001792182,0.001268687,-0.0001389075,-0.0972589,0.07165417,-9.864364,0,0,38.41291,1,1,7745,3872
9396,60274280,2,-0.0016339,0.001627137,0.0001975258,-0.09677789000000001,0.07199669,-9.863104,0,0,38.41293,1,1,7745,3872
9404,60276951,2,-0.00118089,0.001501217,-0.0006316883,-0.09606923000000001,0.07323365,-9.862716000000001,0,0,38.41297,1,1,7745,3872
9407,60278674,2,-0.001151517,0.0006155056,-0.001642529,-0.09342279000000001,0.07793538,-9.865662,0,0,38.41302,1,1,7745,3872
9410,60281164,2,0.000240751,0.0002060919,-0.002209135,-0.08928984,0.08315239000000001,-9.867164000000001,0,0,38.41311,1,1,7745,3872
9441,60284128,2,0.0007680694,-0.0005408924,-0.002530255,-0.08629549,0.08582165,-9.866273,0,0,38.41314,1,1,7745,3872
9444,60286719,2,0.001385174,-0.001164853,-0.002053035,-0.08348073,0.08670775999999999,-9.865309,0,0,38.4132,1,1,7745,3872
9447,60289357,2,0.001914266,-0.0009245776,-0.002266987,-0.07969472,0.08355527,-9.866228,0,0,38.41325,1,1,7745,3872
9451,60291275,2,0.001660674,-0.0002027263,-0.001982332,-0.07712619,0.08039056999999999,-9.869128,0,0,38.4133,1,1,7745,3872
9482,60293703,2,0.001949921,0.001607306,-0.0006454968,-0.07322482,0.07810777000000001,-9.870075,0,0,38.41337,1,1,7745,3872
9486,60296253,2,0.002227708,0.00226786,-0.0005228568,-0.06994427,0.07605366,-9.867803,0,0,38.41343,1,1,7745,3872
9489,60299338,2,0.001584375,0.002302818,-3.573083e-05,-0.06862076,0.07326718,-9.864044,0,0,38.41349,1,1,7745,3872
9494,60301888,2,0.001234454,0.00165108,-0.0001595043,-0.06978821,0.07125758,-9.86378,0,0,38.41358,1,1,7745,3872
9525,60304079,2,0.001175682,0.0002712058,0.0002491738,-0.07240016000000001,0.06940899,-9.863920999999999,0,0,38.41364,1,1,7745,3872
9528,60306995,2,0.001364795,1.304804e-05,0.0001696227,-0.07733083,0.06824544,-9.86307,0,0,38.41368,1,1,7745,3872
9531,60309390,2,0.002082455,7.839875e-05,0.000165721,-0.08044095,0.06846992,-9.862076,0,0,38.41374,1,1,7745,3872
9534,60312308,2,0.002811526,9.048085000000001e-05,0.0003656582,-0.08618012999999999,0.06961674,-9.859071,0,0,38.4138,1,1,7745,3872
9565,60315897,2,0.00385848,-0.0002677093,-0.0002110673,-0.09116871999999999,0.07067746,-9.861154000000001,0,0,38.41388,1,1,7745,3872
9569,60317249,2,0.003911883,-0.0002271151,0.0002059865,-0.09406035,0.07178266,-9.8606,0,0,38.41394,1,1,7745,3872
9572,60319910,2,0.003632609,-0.0002882214,0.0006391587,-0.09586558000000001,0.07139674999999999,-9.861068,0,0,38.41397,1,1,7745,3872
9575,60322305,2,0.003486315,-0.0003371452,0.001671793,-0.09783881,0.06936692,-9.862741,0,0,38.41402,1,1,7745,3872
9606,60328070,2,0.004291871,0.000237639,0.001836139,-0.1024602,0.06161717,-9.868979,0,0,38.41418,1,1,7745,3872
9610,60330009,2,0.004549481,0.0004687906,0.0008010602,-0.1046046,0.05701741,-9.874155,0,0,38.41429,1,1,7745,3872
9613,60332177,2,0.004302202,0.0002911116,0.0001205122,-0.1050788,0.05480658,-9.875367000000001,0,0,38.41436,1,1,7745,3872
9644,60334550,2,0.004664915,-0.0003855172,-0.0008582244,-0.1062715,0.05294824,-9.87664,0,0,38.41447,1,1,7745,3872
9647,60337561,2,0.00552688,-0.0005264498,-0.0005061739,-0.1070941,0.05093736,-9.878392,0,0,38.41454,1,1,7745,3872
9650,60339959,2,0.006013679,-0.0001006981,-0.0003036074,-0.109204,0.04908413,-9.881940999999999,0,0,38.41464,1,1,7745,3872
9655,60342652,2,0.005735517,0.0002512744,-0.0004227544,-0.1109502,0.04844886,-9.883621,0,0,38.41471,1,1,7745,3872
9686,60344940,2,0.005049115,-0.0002806438,0.0005987027999999999,-0.1130243,0.04835294,-9.884152,0,0,38.41482,1,1,7745,3872
9689,60347406,2,0.004237559,-0.0001121721,0.00173871,-0.1117024,0.04852418,-9.881916,0,0,38.41494,1,1,7745,3872
9693,60350389,2,0.003962842,0.0003663141,0.001535303,-0.1100613,0.04765308,-9.87898,0,0,38.41501,1,1,7745,3872
9696,60353160,2,0.003179507,0.0005991221,0.0005112099,-0.1068861,0.04623718,-9.873996,0,0,38.41512,1,1,7745,3872
9727,60355970,2,0.002761303,0.0005915244,0.0009364008,-0.1030255,0.04543124,-9.868872,0,0,38.41521,1,1,7745,3872
9730,60357972,2,0.0020936,0.0008288327,0.0009481536,-0.1006645,0.04612697,-9.865539999999999,0,0,38.41528,1,1,7745,3872
9733,60360565,2,0.001775775,0.001084666,0.001283258,-0.09717198000000001,0.04754901,-9.86209,0,0,38.41536,1,1,7745,3872
9736,60363724,2,0.002048152,0.0008767315,0.0008608933,-0.09471253,0.04787229,-9.861635,0,0,38.41542,1,1,7745,3872
9767,60366376,2,0.001957909,2.523721e-05,0.001503641,-0.09245369000000001,0.04774661,-9.863076,0,0,38.41554,1,1,7745,3872
9770,60368515,2,0.002401616,0.0006726252,0.00306462,-0.09107129,0.04659797,-9.867409,0,0,38.41563,1,1,7745,3872
9774,60371121,2,0.002441741,0.0007545811,0.003308749,-0.09209324000000001,0.04552055,-9.868218000000001,0,0,38.41568,1,1,7745,3872
9777,60373947,2,0.001538664,0.0007421594,0.00291043,-0.09204117000000001,0.04196897,-9.868834,0,0,38.41575,1,1,7745,3872
9808,60376557,2,0.0009859077000000001,0.0007835476,0.001303622,-0.09215318,0.03853054,-9.87017,0,0,38.41581,1,1,7745,3872
9815,60379445,2,0.001231917,0.001063045,0.0008874589,-0.09152907,0.0370694,-9.869631,0,0,38.41585,1,1,7745,3872
9819,60380829,2,0.0009411593,0.000858381,0.0002075244,-0.09076633000000001,0.03649125,-9.866483000000001,0,0,38.41589,1,1,7745,3872
9824,60384170,2,0.0003301098,0.0006426237,-0.001440077,-0.09013636999999999,0.03536719,-9.861921000000001,0,0,38.41595,1,1,7745,3872
9855,60386411,2,-0.0004035692,0.0007776316,-0.001459325,-0.09207599,0.03557228,-9.857901999999999,0,0,38.41601,1,1,7745,3872
9858,60389523,2,-0.0006960255,0.0004198624,-0.0008086094,-0.09377496,0.03537887,-9.855124,0,0,38.41606,1,1,7745,3872
9861,60391995,2,-0.001591335,-0.0006112924,-0.0001037665,-0.0985776,0.03614703,-9.853225999999999,0,0,38.41612,1,1,7745,3872
9864,60394152,2,-0.002172614,-0.0006753867,0.0001113811,-0.1011519,0.03803436,-9.856439,0,0,38.41617,1,1,7745,3872
9895,60396378,2,-0.001980329,-0.0003275736,-7.14538e-05,-0.1030924,0.04151238,-9.860682000000001,0,0,38.41623,1,1,7745,3872
9898,60398948,2,-0.002206821,0.0004622001,-0.0002131763,-0.1032898,0.04245849,-9.861191,0,0,38.41628,1,1,7745,3872
9902,60402117,2,-0.002333852,0.0005707334000000001,-0.000283857,-0.1028208,0.0452276,-9.859685000000001,0,0,38.41637,1,1,7745,3872
9905,60404534,2,-0.002234189,0.0001890729,-0.0006366135,-0.1023202,0.04658207,-9.856979000000001,0,0,38.41642,1,1,7745,3872
9936,60406904,2,-0.002426522,5.092013e-05,-0.001080865,-0.1006531,0.04747394,-9.855209,0,0,38.4165,1,1,7745,3872
9939,60409974,2,-0.002290106,-0.0003477552,-0.0004673191,-0.09929163000000001,0.04897312,-9.856552000000001,0,0,38.41657,1,1,7745,3872
9942,60412389,2,-0.002357471,-0.0003013841,0.0002388373,-0.09806371999999999,0.05006289,-9.857882,0,0,38.41661,1,1,7745,3872
9945,60414586,2,-0.002395937,0.0002598936,0.0009534181,-0.09323338,0.05397807,-9.859693,0,0,38.41668,1,1,7745,3872
9976,60418254,2,-0.001420281,0.0004594193,-0.0002577855,-0.08703855000000001,0.05968272,-9.861775,0,0,38.41674,1,1,7745,3872
9979,60419917,2,-0.001122884,0.001140738,-0.0002155941,-0.08427545,0.06463671,-9.864611999999999,0,0,38.41676,1,1,7745,3872
9983,60422289,2,-0.001196557,0.001392849,1.525886e-05,-0.08293629,0.06949165,-9.867578999999999,0,0,38.41679,1,1,7745,3872
9986,60427968,2,-0.0009835286,0.00178051,-0.001242829,-0.08347656000000001,0.07647084,-9.876633,0,0,38.41689,1,1,7745,3872
10019,60430257,2,-0.001120405,0.001187009,-0.001242506,-0.08398046000000001,0.07691858,-9.877048,0,0,38.41694,1,1,7745,3872
10023,60432730,2,-0.001677168,0.002110911,-0.001045491,-0.08327474,0.0753611,-9.876677000000001,0,0,38.41697,1,1,7745,3872
10026,60435955,2,-0.002254416,0.002682055,-0.001298081,-0.08365743,0.07230664000000001,-9.875895,0,0,38.417,1,1,7745,3872
10029,60437804,2,-0.002402003,0.002605622,-0.0005576241,-0.08369051,0.07062329000000001,-9.874516,0,0,38.41701,1,1,7745,3872
10060,60440760,2,-0.001851296,0.002205237,-0.0004297078,-0.08453751,0.0683699,-9.871207999999999,0,0,38.41702,1,1,7745,3872
10063,60443131,2,-0.001044809,0.001906211,-0.001208954,-0.08624174,0.06785426,-9.867787999999999,0,0,38.41702,1,1,7745,3872
10066,60445585,2,0.0002738453,0.001722316,-0.001886847,-0.08854073,0.0682473,-9.8634,0,0,38.41702,1,1,7745,3872
10069,60448333,2,0.0004905924,0.001783016,-0.001712334,-0.08941194,0.06863083,-9.860080999999999,0,0,38.41701,1,1,7745,3872
10100,60451310,2,-5.792019e-05,0.001498281,-0.001641026,-0.09053079999999999,0.06943119,-9.858015999999999,0,0,38.41697,1,1,7745,3872
10105,60453556,2,-0.0003085768,0.002041963,-0.001623041,-0.09123452,0.06841112000000001,-9.861731000000001,0,0,38.41693,1,1,7745,3872
10108,60456039,2,-6.127218e-05,0.002356733,-0.00114968,-0.09004547,0.06723158,-9.865418,0,0,38.4169,1,1,7745,3872
10112,60458319,2,0.0005531329,0.001925893,-0.0003866373,-0.08778722,0.06588836000000001,-9.868080000000001,0,0,38.41689,1,1,7745,3872
10143,60461292,2,0.0003562005,0.00179592,-0.0005046507,-0.08572339,0.0648175,-9.870175,0,0,38.41688,1,1,7745,3872
10146,60463989,2,0.0007439987,0.001612429,-0.0008181629,-0.08188186,0.06358989,-9.875394999999999,0,0,38.41687,1,1,7745,3872
10149,60466366,2,0.0007921618,0.001262686,-0.001311965,-0.07953581,0.06255960000000001,-9.876567,0,0,38.41685,1,1,7745,3872
10152,60468403,2,0.00132594,0.001186655,-0.0001727903,-0.07674967000000001,0.06048822,-9.876129000000001,0,0,38.41684,1,1,7745,3872
10183,60470967,2,0.002101406,0.0006778824,0.0008912028,-0.07470006999999999,0.05821588,-9.874948,0,0,38.41683,1,1,7745,3872
10187,60473929,2,0.003246872,0.0002103718,0.001927941,-0.07344317,0.05535204,-9.872862,0,0,38.41682,1,1,7745,3872
10190,60476487,2,0.003383047,0.0007619556,0.001699328,-0.0742512,0.05441735,-9.870844999999999,0,0,38.41682,1,1,7745,3872
10193,60478264,2,0.002611611,0.001722046,0.001241339,-0.07690799,0.05229741,-9.867027999999999,0,0,38.41684,1,1,7745,3872
10228,60481277,2,0.002467279,0.001901267,0.0007165594,-0.07888824,0.04978225,-9.864456000000001,0,0,38.41684,1,1,7745,3872
10231,60483354,2,0.002610246,0.002288821,0.0005636347000000001,-0.08128712,0.04824718,-9.861204000000001,0,0,38.41685,1,1,7745,3872
10234,60486319,2,0.003063141,0.002375752,0.000692563,-0.08347068000000001,0.0491371,-9.85988,0,0,38.41687,1,1,7745,3872
10238,60489075,2,0.004378111,0.001797271,0.001081576,-0.08651932,0.05101135,-9.859942999999999,0,0,38.41689,1,1,7745,3872
10269,60491246,2,0.003828294,0.0005604331,0.001854215,-0.08801675,0.05234403,-9.861996,0,0,38.4169,1,1,7745,3872
10273,60494151,2,0.003846334,0.0004175836,0.001957908,-0.08909923,0.05466137,-9.862242999999999,0,0,38.41691,1,1,7745,3872
10276,60496358,2,0.003162108,2.024875e-05,0.001619464,-0.08996434,0.05692714,-9.858713,0,0,38.41693,1,1,7745,3872
10279,60499401,2,0.002694455,8.627670999999999e-06,0.00147927,-0.0892821,0.05696757,-9.855131999999999,0,0,38.41692,1,1,7745,3872
10310,60501994,2,0.00348106,0.000625213,0.002236123,-0.08582075,0.05860245,-9.852980000000001,0,0,38.41692,1,1,7745,3872
10313,60504073,2,0.004215814,0.0001957311,0.003042696,-0.08446045000000001,0.05989018,-9.853904999999999,0,0,38.41693,1,1,7745,3872
10316,60506369,2,0.004118884,-0.0002809828,0.003218496,-0.08653035000000001,0.05948522,-9.856883,0,0,38.41695,1,1,7745,3872
10319,60508696,2,0.003609287,-0.0008979312,0.003358711,-0.08925594000000001,0.05959557,-9.859696,0,0,38.41697,1,1,7745,3872
10350,60511918,2,0.002403261,-0.0005926221,0.003331634,-0.09228009,0.05977069,-9.864853,0,0,38.41698,1,1,7745,3872
10354,60516384,2,0.002459471,-0.0003867346,0.001370719,-0.09388433,0.05574018,-9.869222000000001,0,0,38.41698,1,1,7745,3872
10357,60518955,2,0.002265585,-0.0002063483,0.0007233753000000001,-0.09418691,0.05311593,-9.871743,0,0,38.41698,1,1,7745,3872
10388,60521316,2,0.002890407,-0.0002801456,0.0004418153,-0.0943751,0.05123554,-9.874872999999999,0,0,38.41697,1,1,7745,3872
10392,60527377,2,0.003162449,-6.904465e-05,-0.0001929977,-0.09228851,0.0463916,-9.877681000000001,0,0,38.41692,1,1,7745,3872
10395,60528962,2,0.00249094,0.0001316573,-4.048131e-05,-0.09211815,0.04570492,-9.878658,0,0,38.41691,1,1,7745,3872
10426,60531305,2,0.001336379,-0.0001415617,-0.0001317393,-0.09341236,0.04526384,-9.875474000000001,0,0,38.41689,1,1,7745,3872
10429,60534164,2,0.0002487252,-0.0005636333,-0.0002571027,-0.09257915999999999,0.04328807,-9.871013,0,0,38.41689,1,1,7745,3872
10432,60536999,2,-0.0001069214,-0.0002893077,0.000969006,-0.09058744000000001,0.04207449,-9.864832,0,0,38.41685,1,1,7745,3872
10435,60539386,2,0.0002392282,-0.0001588486,0.002057825,-0.09047204,0.04249267,-9.863326000000001,0,0,38.41685,1,1,7745,3872
10466,60541490,2,0.001008082,0.0004199472,0.002595289,-0.09229177,0.04474239,-9.862095999999999,0,0,38.41686,1,1,7745,3872
10470,60544027,2,0.0003302041,0.0001166636,0.001865034,-0.09420837,0.04721639,-9.862503999999999,0,0,38.41689,1,1,7745,3872
10473,60546290,2,-0.000563864,-0.0002658524,0.0009461147,-0.09539013,0.05084133,-9.86225,0,0,38.41695,1,1,7745,3872
10476,60549419,2,-0.0007475754,-0.0005653038,0.0009337824,-0.09569158,0.05265966,-9.862916999999999,0,0,38.41698,1,1,7745,3872
10507,60552006,2,0.0002265618,-0.0006384651,-0.0003188114,-0.09548686000000001,0.05417695,-9.866182,0,0,38.41703,1,1,7745,3872
10510,60554459,2,-0.0008475675,0.0005316345,-0.0004055272,-0.09594945000000001,0.0532814,-9.867865,0,0,38.41708,1,1,7745,3872
10513,60556988,2,-0.001667309,0.0005023406,-0.0007051381,-0.09656364000000001,0.05221054,-9.867395999999999,0,0,38.41712,1,1,7745,3872
10516,60559784,2,-0.001755233,6.548922e-05,-0.0006982058,-0.0985307,0.05220867,-9.865462000000001,0,0,38.41719,1,1,7745,3872
10547,60562344,2,-0.001028571,-0.001003684,-0.0003931685,-0.1012527,0.05385017,-9.863084000000001,0,0,38.41722,1,1,7745,3872
10551,60564364,2,-1.86861e-05,-0.002013439,-0.0003110786,-0.1042917,0.05788603,-9.860268,0,0,38.41726,1,1,7745,3872
10555,60567163,2,-0.0005566151,-0.002078593,-0.0005082021,-0.1054553,0.05974836,-9.860358,0,0,38.41728,1,1,7745,3872
10558,60569464,2,-0.000260239,-0.001654316,-0.0007454943,-0.1059681,0.06060413,-9.859316,0,0,38.41729,1,1,7745,3872
10589,60571977,2,0.0003838453,-0.0009815157000000001,-0.0009164162,-0.1056103,0.05963098,-9.859165000000001,0,0,38.41727,1,1,7745,3872
10592,60574953,2,-5.928554e-05,-0.0002161458,-0.001596142,-0.1031372,0.05836679,-9.863295000000001,0,0,38.41724,1,1,7745,3872
10595,60576604,2,-0.0004236255,0.0004009216,-0.0009946846,-0.100063,0.0571678,-9.867679000000001,0,0,38.41721,1,1,7745,3872
10598,60579967,2,-0.0005651841,0.0007749872000000001,-6.101492e-05,-0.09483953000000001,0.05456692,-9.873934,0,0,38.41717,1,1,7745,3872
10633,60582538,2,-0.0005783112,-0.0001279863,0.0009373081,-0.09190769999999999,0.05379723,-9.876642,0,0,38.41713,1,1,7745,3872
10637,60585298,2,-0.0001914227,0.0001955931,0.001006383,-0.09122405,0.05388778,-9.875847,0,0,38.41711,1,1,7745,3872
10640,60587492,2,0.0004681541,0.0007952842,0.0008246228,-0.09058495,0.05379577,-9.877893,0,0,38.41708,1,1,7745,3872
10645,60590379,2,0.0005125247,0.0007684588,7.80593e-05,-0.08959543,0.05394716,-9.879346,0,0,38.41706,1,1,7745,3872
10676,60593322,2,0.0002354897,0.0005289906,-0.001937633,-0.08973465999999999,0.05398868,-9.875571000000001,0,0,38.41705,1,1,7745,3872
10680,60595334,2,0.0001452166,0.0002504104,-0.002013413,-0.09203765,0.05479512,-9.868278999999999,0,0,38.41705,1,1,7745,3872
10683,60598293,2,-3.524178e-06,-0.0002019381,-0.00146136,-0.09274762,0.05650577,-9.865284000000001,0,0,38.41706,1,1,7745,3872
10686,60600401,2,-7.634720999999999e-05,-0.0002265102,-0.0003952556,-0.09468227999999999,0.0603241,-9.864635,0,0,38.41707,1,1,7745,3872
10717,60603142,2,4.163574e-05,0.0004053679,-0.0003813341,-0.09665273000000001,0.06436279,-9.863109,0,0,38.41707,1,1,7745,3872
10720,60605982,2,0.0004968912999999999,0.0006715621,-0.0003309937,-0.09900038999999999,0.07087594999999999,-9.860844,0,0,38.4171,1,1,7745,3872
10723,60607896,2,0.0007661888,0.000420977,-2.443936e-05,-0.09959141000000001,0.07348868,-9.861198999999999,0,0,38.41712,1,1,7745,3872
10726,60610559,2,-9.034469e-05,4.670471e-05,0.0008280808,-0.09978852000000001,0.07330639,-9.865043,0,0,38.41718,1,1,7745,3872
10757,60613365,2,-0.0003292637,-0.0002801701,0.0002906869,-0.09984268,0.07193709,-9.869433000000001,0,0,38.41721,1,1,7745,3872
10761,60615352,2,0.0002045808,0.0003188493,0.0002352221,-0.09915892,0.06967213999999999,-9.875081,0,0,38.41726,1,1,7745,3872
10764,60618172,2,0.0007949215,0.001291683,0.0001762381,-0.09866233000000001,0.06874619999999999,-9.876480000000001,0,0,38.41728,1,1,7745,3872
10767,60620404,2,0.00211068,0.001774878,-0.0002987384,-0.09701155,0.06732053,-9.877390999999999,0,0,38.4173,1,1,7745,3872
10798,60623099,2,0.002470513,0.001933016,-0.0001455926,-0.09516995,0.06654473,-9.876640999999999,0,0,38.41731,1,1,7745,3872
10801,60630749,2,0.001590356,0.001859793,-0.0001417251,-0.09584953,0.0595201,-9.871555000000001,0,0,38.41729,1,1,7745,3872
10832,60633533,2,0.002062425,0.001480404,0.0006385415,-0.09912714,0.05666472,-9.868575,0,0,38.41727,1,1,7745,3872
10836,60636481,2,0.002109804,0.00168917,5.929542e-07,-0.1028879,0.05560001,-9.865684,0,0,38.41726,1,1,7745,3872
10839,60638314,2,0.002474126,0.001895244,-0.0004660558,-0.1077042,0.05532077,-9.865807,0,0,38.41722,1,1,7745,3872
10842,60641273,2,0.002171401,0.001817765,-0.0001713666,-0.1081526,0.05661789,-9.867448,0,0,38.4172,1,1,7745,3872
10873,60643565,2,0.002205199,0.0006824032,0.0007100771,-0.1070406,0.05946684,-9.870181000000001,0,0,38.41718,1,1,7745,3872
10876,60645922,2,0.00265061,-1.726517e-05,0.001629797,-0.1066939,0.06075754,-9.871642,0,0,38.41715,1,1,7745,3872
10879,60648974,2,0.002845238,0.001062999,0.002976211,-0.1065611,0.06209795,-9.872135999999999,0,0,38.41712,1,1,7745,3872
10882,60650955,2,0.001986806,0.002001439,0.003875859,-0.1064677,0.06344846,-9.870492,0,0,38.41711,1,1,7745,3872
10913,60653882,2,0.001580488,0.002293088,0.004033923,-0.1042014,0.06528479,-9.867119000000001,0,0,38.41711,1,1,7745,3872
10917,60655951,2,0.001665495,0.00223734,0.003610231,-0.1025743,0.06577192,-9.866096000000001,0,0,38.41711,1,1,7745,3872
10920,60658365,2,0.002166135,0.002434105,0.003043341,-0.1021801,0.06498245,-9.864891999999999,0,0,38.41711,1,1,7745,3872
10923,60661258,2,0.002605987,0.002379111,0.003472118,-0.1022326,0.06237276,-9.862266999999999,0,0,38.41711,1,1,7745,3872
10940,60686362,2,0.001844028,0.00059538,0.001868545,-0.09373239999999999,0.05733259,-9.864824,0,0,38.41733,1,1,7745,3872
10944,60688307,2,0.001150357,0.0004672469,0.0009668666999999999,-0.09165472,0.05843956,-9.865710999999999,0,0,38.4174,1,1,7745,3872
10947,60690996,2,0.0004959595,0.0006136923,0.001341617,-0.09211269,0.05887764,-9.865385,0,0,38.41744,1,1,7745,3872
10978,60694014,2,0.001185881,0.0006063123,0.0007982907999999999,-0.09368218,0.0628586,-9.866388000000001,0,0,38.41755,1,1,7745,3872
10981,60695964,2,0.001410202,0.000241341,1.406263e-05,-0.09412682999999999,0.06415158,-9.867288,0,0,38.4176,1,1,7745,3872
10984,60698767,2,0.001552561,0.0007164526,-0.0004832299,-0.09605671,0.06344627,-9.866452000000001,0,0,38.41768,1,1,7745,3872
10987,60700951,2,0.0004915722,0.001778364,-0.0006273308,-0.09783615,0.06383545,-9.863928,0,0,38.41772,1,1,7745,3872
11018,60703389,2,-0.0002140509,0.001141677,-0.0005092745000000001,-0.09745015,0.06352305,-9.862501999999999,0,0,38.4178,1,1,7745,3872
11022,60706337,2,0.0001586091,0.000569205,-0.0007167626,-0.09593169,0.06180917,-9.861731000000001,0,0,38.41785,1,1,7745,3872
11025,60708279,2,0.0006416314,0.001397136,-0.001037231,-0.09341089,0.05999062,-9.860117000000001,0,0,38.41794,1,1,7745,3872
11028,60711473,2,0.0005438817,0.00155964,-0.0009903593,-0.09294665000000001,0.05952284,-9.858858,0,0,38.41798,1,1,7745,3872
11059,60713739,2,0.0003855426,0.001020987,-0.0005047975,-0.09264245,0.05893059,-9.852357,0,0,38.41805,1,1,7745,3872
11062,60716688,2,0.0001182993,0.0002310294,0.0005810899,-0.09337542,0.05909698,-9.849717,0,0,38.41809,1,1,7745,3872
11065,60721176,2,-0.0004827353,0.0001429346,0.002346186,-0.0963388,0.06212925,-9.849299,0,0,38.41821,1,1,7745,3872
11096,60726271,2,0.0002589408,0.002339406,0.0004393552,-0.1005436,0.06557726999999999,-9.849686999999999,0,0,38.41831,1,1,7745,3872
11100,60729028,2,-0.0004500313,0.002228299,-0.0005916419,-0.1018488,0.06646487,-9.851940000000001,0,0,38.41834,1,1,7745,3872
11103,60732007,2,-0.0007325673,0.002040887,-0.0004813393,-0.1030821,0.06555738999999999,-9.855340999999999,0,0,38.41837,1,1,7745,3872
11134,60734152,2,-0.0002925339,0.001346559,-0.0009144038,-0.1023318,0.06183301,-9.862508,0,0,38.41843,1,1,7745,3872
11137,60737090,2,0.0002782709,0.0009903512000000001,-0.0006496779,-0.09909116,0.06037412,-9.86453,0,0,38.41845,1,1,7745,3872
11141,60739341,2,0.001290636,0.001357874,-0.0002691546,-0.09378918999999999,0.05934148,-9.868819,0,0,38.41848,1,1,7745,3872
11144,60741990,2,0.002111919,0.001201959,-0.0005909049,-0.09227291,0.05947427,-9.869866999999999,0,0,38.41854,1,1,7745,3872
11175,60744785,2,0.003434866,0.0005556548,-0.002138068,-0.09054130000000001,0.05769691,-9.875964,0,0,38.41859,1,1,7745,3872
11178,60747010,2,0.003605489,0.0002687419,-0.002227716,-0.09089389,0.05695561,-9.876723,0,0,38.41861,1,1,7745,3872
11181,60749917,2,0.002021598,0.001002943,-0.002055209,-0.09317031000000001,0.05462936,-9.875654000000001,0,0,38.41865,1,1,7745,3872
11184,60751632,2,0.001280069,0.001385992,-0.002434613,-0.09460033,0.0529947,-9.873327,0,0,38.4187,1,1,7745,3872
11215,60754166,2,0.0002673646,0.001170666,-0.002167114,-0.09587766,0.05158847,-9.871249000000001,0,0,38.41872,1,1,7745,3872
11218,60757146,2,-0.0008003665,0.0006935264,-0.0009905054,-0.09663429,0.04783338,-9.867034,0,0,38.41873,1,1,7745,3872
11222,60759029,2,-0.001016518,0.0004306875,-0.000629431,-0.09604407,0.04609968,-9.863205000000001,0,0,38.41875,1,1,7745,3872
11226,60762299,2,-0.0006095409,-0.000219199,-0.001088804,-0.09450728,0.04617856,-9.858732,0,0,38.41878,1,1,7745,3872
11257,60764490,2,0.0005936783,-0.0003650076,-0.001022361,-0.09223843,0.04874007,-9.856225,0,0,38.41882,1,1,7745,3872
11260,60767450,2,0.0009968047,-0.0004292409,-0.0004419661,-0.09035492000000001,0.05109515,-9.853999999999999,0,0,38.41884,1,1,7745,3872
11263,60769982,2,0.0001819314,-0.0008430172,-0.001058271,-0.08739421999999999,0.05341269,-9.853372,0,0,38.41887,1,1,7745,3872
11266,60772062,2,-0.0008396639999999999,-0.001278599,-0.001339984,-0.08550911,0.0546004,-9.854892,0,0,38.4189,1,1,7745,3872
11297,60775074,2,-0.0007311046,-7.021081e-05,-0.0008158592,-0.08350098,0.05546856,-9.856161999999999,0,0,38.41892,1,1,7745,3872
11300,60776942,2,4.948365e-05,0.0008636303,0.0005200873,-0.08153407,0.05718638,-9.856871,0,0,38.41894,1,1,7745,3872
11304,60780272,2,0.001088171,0.001734963,0.001636748,-0.07971172999999999,0.0587328,-9.857586,0,0,38.41895,1,1,7745,3872
11308,60782283,2,0.001613474,0.001678662,0.002388371,-0.07918348,0.0574029,-9.855945999999999,0,0,38.41896,1,1,7745,3872
11343,60785043,2,0.001274412,0.001037387,0.001682219,-0.07868484000000001,0.05645881,-9.85195,0,0,38.41898,1,1,7745,3872
11346,60787557,2,0.001316225,0.0005046424000000001,0.001805788,-0.07838146,0.05718575,-9.849054000000001,0,0,38.41898,1,1,7745,3872
11350,60789988,2,0.001822129,-0.0002698241,0.00304565,-0.0775672,0.05792659,-9.848713,0,0,38.41898,1,1,7745,3872
11353,60792565,2,0.002007848,-0.0001103115,0.003435134,-0.07710784,0.05604691,-9.852615999999999,0,0,38.41897,1,1,7745,3872
11385,60794934,2,0.001681214,-0.0003929816,0.004018868,-0.07603893,0.05419811,-9.858461,0,0,38.41896,1,1,7745,3872
11388,60797493,2,0.001565555,-0.0009343999,0.003957883,-0.07640124,0.05541207,-9.861496000000001,0,0,38.41895,1,1,7745,3872
11391,60800126,2,0.001632382,-0.001769134,0.003358981,-0.07815207,0.05495169,-9.862159,0,0,38.41893,1,1,7745,3872
11394,60803000,2,0.001851106,-0.002226705,0.003010485,-0.08061841,0.05328691,-9.860894999999999,0,0,38.41892,1,1,7745,3872
11425,60805728,2,0.00234724,-0.001849554,0.001617253,-0.083229,0.05271753,-9.859057999999999,0,0,38.4189,1,1,7745,3872
11428,60807909,2,0.002295116,-0.001445953,0.0009170587,-0.08578761999999999,0.05275431,-9.856372,0,0,38.4189,1,1,7745,3872
11433,60810107,2,0.002137239,-0.001185375,0.0008675928,-0.08762383,0.05177138,-9.852331,0,0,38.41888,1,1,7745,3872
11438,60812983,2,0.001920368,-0.0005176478,0.001199962,-0.09030952,0.0498108,-9.848457,0,0,38.41887,1,1,7745,3872
11469,60815806,2,0.00230792,-0.0004880555,0.0004358631,-0.09153037999999999,0.04848287,-9.847268,0,0,38.41886,1,1,7745,3872
11472,60817581,2,0.002303816,-0.0002048544,0.0003049806,-0.09286752,0.04763131,-9.846264,0,0,38.41885,1,1,7745,3872
11475,60820093,2,0.00243809,0.0001038246,0.001526305,-0.09318092,0.04886933,-9.84595,0,0,38.41883,1,1,7745,3872
11478,60825091,2,0.001578803,-0.0004799845,0.002766328,-0.09428250000000001,0.05480511,-9.858171,0,0,38.4188,1,1,7745,3872
11509,60830469,2,-0.0001013644,1.927622e-05,0.002046596,-0.09772562999999999,0.05611141,-9.867015,0,0,38.41878,1,1,7745,3872
11513,60832560,2,0.000267187,4.450537e-05,0.002030729,-0.09736864000000001,0.05687599,-9.868038,0,0,38.41879,1,1,7745,3872
11516,60836075,2,0.001021294,-5.880867e-05,0.001922794,-0.09678624,0.05674593,-9.868423,0,0,38.41881,1,1,7745,3872
11519,60837462,2,0.001588806,0.0001751437,0.001508817,-0.09349518,0.05437111,-9.87293,0,0,38.41885,1,1,7745,3872
11550,60840364,2,0.001171751,0.0006392808,0.000443201,-0.09113692,0.05346008,-9.877326,0,0,38.41886,1,1,7745,3872
11554,60842464,2,0.0006153106,0.0007345971,-0.001223537,-0.08951481,0.0515636,-9.880201,0,0,38.41888,1,1,7745,3872
11557,60845514,2,0.0004415419,0.0009391711,-0.0008369974000000001,-0.09022380000000001,0.05024162,-9.879319000000001,0,0,38.41888,1,1,7745,3872
11561,60847465,2,0.000151575,0.001260746,-0.001024532,-0.08994613,0.04946976,-9.877378,0,0,38.4189,1,1,7745,3872
11592,60849977,2,8.248034000000001e-05,0.001066883,-0.001358973,-0.08889985,0.04942911,-9.876196999999999,0,0,38.41891,1,1,7745,3872
11595,60853014,2,-0.000648914,0.0002778536,0.0003531356,-0.08770940000000001,0.05109253,-9.876573,0,0,38.41891,1,1,7745,3872
11598,60855319,2,-0.0006687135,0.0004590528,0.0008918088,-0.08746569999999999,0.05324326,-9.876652,0,0,38.4189,1,1,7745,3872
11601,60857953,2,9.913714e-06,0.0003495233,0.0009225508,-0.08797497999999999,0.05797449,-9.874756,0,0,38.41886,1,1,7745,3872
11632,60860708,2,0.001268907,-0.001188222,-0.000346824,-0.08819107,0.06069185,-9.874847000000001,0,0,38.41883,1,1,7745,3872
11636,60862581,2,0.001238261,-0.001751855,-0.002088605,-0.08824733,0.06262769,-9.876951999999999,0,0,38.4188,1,1,7745,3872
11639,60864948,2,0.0009345735,-0.001774787,-0.003231515,-0.08804939000000001,0.06414842,-9.878380999999999,0,0,38.41878,1,1,7745,3872
11642,60867488,2,0.0001374567,-0.001138932,-0.002742249,-0.08792781,0.06349455,-9.877687,0,0,38.41875,1,1,7745,3872
