LineNo,TimeUS,I,GyrX,GyrY,GyrZ,AccX,AccY,AccZ,EG,EA,T,GH,AH,GHz,AHz
182,57935342,0,0.003092316,0.001523581,0.0005922656,-0.1655778,0.1184572,-9.754735,0,0,44.79901,1,1,8008,4004
293,57959320,0,-0.001058464,0.0006520881,-0.0006145717,-0.1689679,0.1083904,-9.74776,0,0,44.79987,1,1,8008,4004
324,57961474,0,-0.00161678,0.0003480143,0.0001876196,-0.1675825,0.1075574,-9.737855,0,0,44.79993,1,1,8008,4004
407,57983380,0,-0.00432248,-0.001220539,0.0005516202,-0.154659,0.1182871,-9.735725,0,0,44.80032,1,1,8008,4004
520,58007322,0,-0.001009759,-0.002467314,-0.001243808,-0.159712,0.1282218,-9.741123999999999,0,0,44.80138,1,1,8008,4004
523,58008537,0,-0.00168444,-0.002915994,-0.00191425,-0.1585347,0.1283883,-9.742580999999999,0,0,44.80151,1,1,8008,4004
554,58011556,0,-0.0006640517000000001,-0.003247656,-0.0008084819,-0.1560841,0.1279492,-9.741543,0,0,44.80173,1,1,8008,4004
629,58031151,0,0.0003392508,-0.001148988,-0.0008908769,-0.1709542,0.12043,-9.740313,0,0,44.80291,1,1,8008,4004
745,58052943,0,0.002259462,-0.0004656907,-0.002100021,-0.1629203,0.1398643,-9.747422,0,0,44.80424,1,1,8008,4004
776,58055921,0,0.002210465,-0.0004420869,-0.00144275,-0.163345,0.140416,-9.748752,0,0,44.80434,1,1,8008,4004
856,58073777,0,0.001718216,-0.00181857,0.0001651347,-0.1664344,0.1188834,-9.739903,0,0,44.80539,1,1,8008,4004
972,58096323,0,0.0006265434,0.0004147373,-0.0009961322999999999,-0.1798881,0.1137468,-9.743852,0,0,44.80704,1,1,8008,4004
1087,58140049,0,-0.00363595,-0.0008077063,-0.0001649483,-0.1821339,0.1199985,-9.757338000000001,0,0,44.81052,1,1,8008,4004
1202,58229943,0,0.001079127,-0.0007721329,-0.001113386,-0.1652028,0.1153239,-9.731676999999999,0,0,44.81726,1,1,8008,4004
1293,58278012,0,-0.0008329704,-0.0002956208,-0.0007259191,-0.1736899,0.1177281,-9.739252,0,0,44.8202,1,1,8008,4004
1324,58281358,0,-0.001651996,-3.029689e-05,-7.554368e-05,-0.1727197,0.1181208,-9.74259,0,0,44.82037,1,1,8008,4004
1387,58291252,0,-0.002568651,-0.002205123,-0.001311579,-0.1703634,0.1167009,-9.754689000000001,0,0,44.8209,1,1,8008,4004
1390,58293102,0,-0.002416385,-0.00337969,-0.002028633,-0.1731627,0.1182152,-9.752427000000001,0,0,44.82103,1,1,8008,4004
1421,58295811,0,-0.001136996,-0.003417994,-0.002447846,-0.1759402,0.1197939,-9.749154000000001,0,0,44.82116,1,1,8008,4004
1482,58309576,0,-9.44074e-06,-0.0005426235,-0.0002626686,-0.1664941,0.1227581,-9.739042,0,0,44.82181,1,1,8008,4004
1570,58327414,0,-0.001366712,0.0002337776,-0.0006245875,-0.1850599,0.1449935,-9.7476,0,0,44.82233,1,1,8008,4004
1601,58329904,0,-0.0009094304000000001,-0.0002059739,-0.001496589,-0.1883143,0.1462155,-9.74648,0,0,44.82243,1,1,8008,4004
1614,58332701,0,-0.000941894,-0.0005484798,-0.001325124,-0.1893699,0.1453257,-9.745222,0,0,44.82246,1,1,8008,4004
1617,58334556,0,-0.001048004,-0.001007817,-0.001703958,-0.1869791,0.1446177,-9.742432000000001,0,0,44.82255,1,1,8008,4004
1624,58337752,0,8.776865999999999e-06,-0.001173478,-0.002095823,-0.183676,0.1441131,-9.740831,0,0,44.82259,1,1,8008,4004
1655,58340600,0,0.002155881,-0.001161174,-0.00148438,-0.1787828,0.1417792,-9.741345000000001,0,0,44.82272,1,1,8008,4004
1658,58342908,0,0.002288796,-0.0009198242,-0.0009147665,-0.1750756,0.1383252,-9.743558999999999,0,0,44.82281,1,1,8008,4004
1661,58345547,0,0.001244577,-0.000914213,-0.0004890107,-0.1731343,0.1355855,-9.743342,0,0,44.82285,1,1,8008,4004
1665,58347744,0,0.0002349227,-0.001189538,-0.0002077998,-0.1716538,0.1327745,-9.741799,0,0,44.82284,1,1,8008,4004
1696,58350155,0,-0.0001957988,-0.001672148,-0.0002440701,-0.1718201,0.1289942,-9.740769999999999,0,0,44.82281,1,1,8008,4004
1699,58353074,0,-0.0002901262,-0.001932781,-0.0008080929,-0.1733668,0.1265894,-9.739490999999999,0,0,44.82277,1,1,8008,4004
1702,58355160,0,0.0001116073,-0.001524362,-0.0008337816,-0.1746532,0.126114,-9.737989000000001,0,0,44.82264,1,1,8008,4004
1705,58358011,0,-8.438818e-05,-0.0008520002,-0.00031892,-0.1759577,0.1250069,-9.736151,0,0,44.82258,1,1,8008,4004
1736,58360322,0,0.0001371803,-0.001123553,0.0005997848,-0.1775949,0.1217354,-9.736338,0,0,44.82252,1,1,8008,4004
1739,58363060,0,0.0003083409,-0.002097651,0.0009097927,-0.1773911,0.1194432,-9.73969,0,0,44.8225,1,1,8008,4004
1742,58366032,0,0.0001330449,-0.001966167,0.000461004,-0.1765555,0.1193595,-9.741607,0,0,44.82249,1,1,8008,4004
1746,58368386,0,0.001019187,0.0001284863,-0.001306351,-0.1741934,0.1203186,-9.743715999999999,0,0,44.8225,1,1,8008,4004
1777,58370978,0,0.0003996385,0.001102627,-0.001396082,-0.1728745,0.1211286,-9.747059999999999,0,0,44.82256,1,1,8008,4004
1780,58373525,0,-0.0007904357000000001,0.000774903,-0.00070824,-0.1724423,0.121528,-9.750291000000001,0,0,44.82262,1,1,8008,4004
1783,58377519,0,-0.001416682,-0.0001766628,0.0001428665,-0.172372,0.1232669,-9.753781999999999,0,0,44.82276,1,1,8008,4004
1786,58381541,0,0.0005171621,-0.0008481611,0.000974954,-0.1809809,0.1311161,-9.757631,0,0,44.82306,1,1,8008,4004
1818,58384556,0,0.0008695279,-0.0006821286,9.571962e-05,-0.1841297,0.1345882,-9.756074999999999,0,0,44.82316,1,1,8008,4004
1821,58387334,0,0.001314826,-6.67198e-05,-0.0007358597,-0.185353,0.1375165,-9.75277,0,0,44.82336,1,1,8008,4004
1824,58389676,0,0.0008455699,0.0007091679,-0.0007475999,-0.1846557,0.1375182,-9.751244,0,0,44.82346,1,1,8008,4004
1829,58392703,0,-0.0002619997,0.0008989841,-0.0007851906000000001,-0.1823688,0.137821,-9.750285999999999,0,0,44.82365,1,1,8008,4004
1860,58395020,0,-1.592887e-05,0.0006429202,-0.0002560273,-0.179641,0.1364813,-9.749375000000001,0,0,44.82383,1,1,8008,4004
1864,58397493,0,0.0005975916,0.0002647845,0.0001187691,-0.1789365,0.1341492,-9.747911,0,0,44.82396,1,1,8008,4004
1867,58400555,0,0.001089291,-0.000344456,0.0009237845,-0.1785733,0.1288162,-9.745782,0,0,44.82412,1,1,8008,4004
1870,58402552,0,0.00136988,-0.0008539663000000001,0.001304925,-0.177922,0.1260599,-9.745872,0,0,44.82421,1,1,8008,4004
1901,58405550,0,0.0008480854,-0.0001878574,0.0003127429,-0.1782919,0.122131,-9.749321999999999,0,0,44.82434,1,1,8008,4004
1905,58407561,0,0.000526019,0.001059132,-0.000635637,-0.1789617,0.1203443,-9.750061000000001,0,0,44.82443,1,1,8008,4004
1908,58410156,0,0.000207842,0.00196802,-0.0009892475999999999,-0.1793022,0.1177773,-9.747204999999999,0,0,44.82457,1,1,8008,4004
1911,58413280,0,0.000298001,0.001985268,-0.0007433319000000001,-0.1793737,0.1163865,-9.745623,0,0,44.82465,1,1,8008,4004
1942,58415493,0,2.164135e-05,0.001457647,-0.0004733537,-0.1776277,0.1156345,-9.748466000000001,0,0,44.82479,1,1,8008,4004
1946,58418335,0,-0.000849491,0.0005648789,-0.0006424387,-0.1751366,0.1142975,-9.752183,0,0,44.82497,1,1,8008,4004
1949,58420708,0,-0.001154993,-0.0006006529,-0.0007623113,-0.172901,0.1131301,-9.7537,0,0,44.82508,1,1,8008,4004
1952,58423738,0,-0.0009531999,-0.0009317569,-0.0002190816,-0.1696157,0.1133161,-9.752796999999999,0,0,44.82524,1,1,8008,4004
1983,58425967,0,-0.00169853,-0.0009259937,2.206734e-05,-0.1682359,0.1156387,-9.751030999999999,0,0,44.82538,1,1,8008,4004
1986,58428955,0,-0.001665405,-0.0004587964,0.0001890027,-0.1676915,0.1169686,-9.749321,0,0,44.82547,1,1,8008,4004
1989,58431330,0,-0.001345891,0.000701214,0.0005324311,-0.1682009,0.1185172,-9.747605,0,0,44.82564,1,1,8008,4004
1993,58434332,0,-0.001018765,0.0007264098,0.0001697112,-0.1697665,0.1205872,-9.746964,0,0,44.82578,1,1,8008,4004
2024,58436643,0,-0.0008393908,-8.513896e-05,0.0006339026,-0.1702819,0.1214265,-9.745381,0,0,44.82592,1,1,8008,4004
2028,58439908,0,-0.0009688448,-0.0007534612,0.0003035397,-0.1704701,0.1209355,-9.74484,0,0,44.82603,1,1,8008,4004
2036,58442030,0,-0.0003133975,-0.0008638885,-0.0007472569000000001,-0.170866,0.1207865,-9.742851999999999,0,0,44.82628,1,1,8008,4004
2039,58444178,0,-0.0002682292,-0.0006381875,-0.001088679,-0.1719888,0.1219973,-9.742392000000001,0,0,44.82639,1,1,8008,4004
2072,58447246,0,-0.001005189,-0.0002859666,-0.001617207,-0.1731947,0.1236601,-9.744973,0,0,44.82656,1,1,8008,4004
2075,58449934,0,-0.00184261,-0.0003814066,-0.00166131,-0.1719198,0.1240249,-9.748008,0,0,44.82665,1,1,8008,4004
2078,58451518,0,-0.0007729816,0.00039698,-0.001643149,-0.1687895,0.1259245,-9.751137999999999,0,0,44.82683,1,1,8008,4004
2081,58454591,0,-0.0001676051,8.746856e-05,-0.001599089,-0.1669575,0.1281946,-9.752281999999999,0,0,44.82692,1,1,8008,4004
2112,58456775,0,-5.723688e-05,-9.314562000000001e-05,-0.002109312,-0.1646447,0.1299914,-9.755553000000001,0,0,44.8271,1,1,8008,4004
2116,58459877,0,0.0008268664999999999,3.835548e-05,-0.001763016,-0.1632296,0.1300759,-9.757524,0,0,44.8272,1,1,8008,4004
2119,58462164,0,0.001529053,-0.0001270458,-0.0005701324999999999,-0.1622374,0.1287293,-9.758540999999999,0,0,44.82734,1,1,8008,4004
2122,58464359,0,0.0008923911,-0.0006903409,0.0003259846,-0.1631874,0.1259475,-9.758682,0,0,44.82747,1,1,8008,4004
2153,58466611,0,-0.0007697726,-0.001068169,0.0001321433,-0.1668952,0.1228385,-9.757682000000001,0,0,44.82755,1,1,8008,4004
2156,58469468,0,-0.001182716,-0.0009503755,-0.0007460479,-0.169899,0.1214176,-9.756318,0,0,44.82761,1,1,8008,4004
2159,58472866,0,-0.001819753,0.000211526,-0.001860745,-0.1726527,0.1196222,-9.751471,0,0,44.82767,1,1,8008,4004
2162,58474397,0,-0.002227382,0.0006616289,-0.001094953,-0.1745607,0.1195191,-9.748434,0,0,44.8277,1,1,8008,4004
2193,58477393,0,-0.001800738,-0.0001249449,0.0006860638,-0.1775722,0.1213676,-9.745339,0,0,44.82774,1,1,8008,4004
2197,58479363,0,-0.001363984,-0.001046912,0.0009359855,-0.1794761,0.1235272,-9.74572,0,0,44.82775,1,1,8008,4004
2200,58482481,0,-0.001249264,-0.001934134,-0.0001463938,-0.1788758,0.1262412,-9.747911,0,0,44.82779,1,1,8008,4004
2203,58484389,0,-0.001075001,-0.001609909,-0.000614007,-0.1773788,0.1280819,-9.749207999999999,0,0,44.8278,1,1,8008,4004
2234,58486706,0,-0.0003671732,-0.0007129268,-0.0007674891,-0.1752364,0.1301624,-9.751787999999999,0,0,44.82784,1,1,8008,4004
2238,58490561,0,-0.0001102626,-0.0002664137,-0.001037919,-0.1743323,0.1300028,-9.754052,0,0,44.82786,1,1,8008,4004
2241,58491803,0,0.0001696254,-0.0002039816,-0.001757882,-0.1729652,0.128033,-9.756432999999999,0,0,44.82789,1,1,8008,4004
2245,58495116,0,0.0005527381,-0.0005585363,-0.002090817,-0.1726222,0.1269676,-9.757550999999999,0,0,44.82791,1,1,8008,4004
2276,58497249,0,-0.0002392507,-0.00187694,-0.001678659,-0.172157,0.127093,-9.758338999999999,0,0,44.82794,1,1,8008,4004
2279,58500695,0,-0.0009025465,-0.002459037,-0.0009618395,-0.1713858,0.1282901,-9.756944000000001,0,0,44.82796,1,1,8008,4004
2282,58501964,0,-0.0008342664,-0.001566573,-8.334374e-05,-0.1692298,0.1293653,-9.755223000000001,0,0,44.82799,1,1,8008,4004
2288,58504961,0,-0.0003985593,-0.0009427186,0.0006747053,-0.1676827,0.1298211,-9.755174999999999,0,0,44.82801,1,1,8008,4004
2319,58507534,0,0.000131179,-0.0006193556,0.001168458,-0.1643064,0.130524,-9.754256,0,0,44.82803,1,1,8008,4004
2323,58509925,0,0.001036067,-0.0008420522,0.0009530958,-0.1619348,0.1311557,-9.751803000000001,0,0,44.82807,1,1,8008,4004
2326,58512324,0,0.001642364,-0.0003764026,0.0004977825,-0.1592923,0.1313936,-9.749987000000001,0,0,44.82816,1,1,8008,4004
2329,58514494,0,0.0006899485,-0.0008076798,0.0003711828,-0.1576519,0.1320955,-9.748979,0,0,44.82823,1,1,8008,4004
2360,58516894,0,-0.0003073605,-0.001505485,3.929889e-05,-0.1569225,0.1342137,-9.748113999999999,0,0,44.82831,1,1,8008,4004
2363,58520029,0,-0.0006146255,-0.001051002,-7.908373e-06,-0.1569802,0.1352641,-9.746661,0,0,44.82835,1,1,8008,4004
2366,58522020,0,-0.0002710537,-0.001022326,-0.00136299,-0.1583889,0.1349698,-9.744767,0,0,44.82838,1,1,8008,4004
2369,58524806,0,0.0003673423,-0.001340461,-0.002564496,-0.1612349,0.1352958,-9.746226999999999,0,0,44.8284,1,1,8008,4004
2400,58527520,0,0.001164616,-0.00217399,-0.0023495,-0.1659821,0.1374365,-9.753564000000001,0,0,44.82839,1,1,8008,4004
2404,58529883,0,0.001260712,-0.001897102,-0.001304739,-0.1683567,0.1399577,-9.757923999999999,0,0,44.82835,1,1,8008,4004
2407,58532329,0,0.0007761859,-0.001700228,0.0004865758,-0.1710978,0.141496,-9.759748999999999,0,0,44.82827,1,1,8008,4004
2410,58534507,0,0.0004558954,-0.001148959,0.001440039,-0.1718803,0.1414364,-9.758058999999999,0,0,44.82821,1,1,8008,4004
2441,58537128,0,-0.0001697392,-0.001384893,0.001222887,-0.1718624,0.1412295,-9.753752,0,0,44.82814,1,1,8008,4004
2445,58540167,0,-0.0006674859,-0.0008512466,0.0008388032,-0.1716463,0.1381675,-9.752818,0,0,44.82809,1,1,8008,4004
2453,58542275,0,-0.0007150514,8.354005000000001e-05,0.0008107874,-0.1713835,0.1324029,-9.756899000000001,0,0,44.82806,1,1,8008,4004
2456,58545116,0,-0.000379237,0.0004697109,0.0005872758,-0.1710258,0.1283207,-9.758293,0,0,44.82807,1,1,8008,4004
2487,58547326,0,0.00106635,-8.661357e-05,0.0005077661999999999,-0.1709727,0.1246145,-9.755716,0,0,44.82811,1,1,8008,4004
2491,58550161,0,0.001025944,-0.0003000284,0.0002831752,-0.170024,0.1234629,-9.749325000000001,0,0,44.82819,1,1,8008,4004
2494,58553013,0,0.001124053,-0.0001306004,1.612239e-05,-0.1689715,0.1238627,-9.747064,0,0,44.82825,1,1,8008,4004
2497,58555561,0,0.001567185,0.0001568555,-0.0005896799000000001,-0.1684586,0.1235742,-9.747638999999999,0,0,44.82838,1,1,8008,4004
2528,58557875,0,0.0004841266,-0.0002202477,-0.00124128,-0.1689327,0.1224207,-9.749301000000001,0,0,44.82847,1,1,8008,4004
2532,58560574,0,-0.0003126294,3.791885e-05,-0.001522288,-0.1697836,0.1220489,-9.749653,0,0,44.8285,1,1,8008,4004
2535,58563048,0,-0.0009780246000000001,-0.0002508304,-0.0008990524,-0.1719628,0.1224857,-9.747906,0,0,44.82851,1,1,8008,4004
2538,58565972,0,-0.0003916254,-0.0004235881,-0.0007337534,-0.1734864,0.1240066,-9.747350000000001,0,0,44.82851,1,1,8008,4004
2569,58568967,0,0.0001977009,-9.782181e-05,-0.0004560124,-0.176514,0.1273599,-9.745851999999999,0,0,44.8285,1,1,8008,4004
2572,58570461,0,0.0009081336,-0.0004498875,6.661909e-05,-0.1788249,0.1286086,-9.743080000000001,0,0,44.82847,1,1,8008,4004
2575,58573023,0,0.0004510057,-0.001773595,0.0007108101,-0.1811444,0.1288417,-9.739328,0,0,44.82838,1,1,8008,4004
2578,58575549,0,-0.000228973,-0.001794597,0.0003608704,-0.1810073,0.1280184,-9.737657,0,0,44.82828,1,1,8008,4004
2612,58582304,0,-0.002027668,-0.0001190397,0.001990608,-0.180959,0.1231488,-9.741835999999999,0,0,44.82814,1,1,8008,4004
2616,58583493,0,-0.00227827,-0.0003359694,0.001621253,-0.1825163,0.1211814,-9.743691,0,0,44.82817,1,1,8008,4004
2619,58585932,0,-0.00170666,-0.0009497307,0.001332965,-0.1825392,0.1203766,-9.745075,0,0,44.82821,1,1,8008,4004
2650,58588361,0,-0.001234308,-0.001479752,0.001391722,-0.1831037,0.1184937,-9.749454,0,0,44.82832,1,1,8008,4004
2653,58591256,0,-0.0008290597,-0.00197016,0.001544542,-0.1850633,0.1167268,-9.752058,0,0,44.82843,1,1,8008,4004
2657,58593955,0,-0.0007874419,-0.002339199,0.001453027,-0.18657,0.1154885,-9.753605,0,0,44.8285,1,1,8008,4004
2662,58597020,0,-0.0007262111,-0.002903881,0.0006531668,-0.1879479,0.1152406,-9.755526,0,0,44.82857,1,1,8008,4004
2693,58599125,0,-0.001339051,-0.002170827,0.0004580236,-0.1881023,0.1146412,-9.759569000000001,0,0,44.82861,1,1,8008,4004
2696,58601922,0,-0.002587465,-0.001354254,6.294411999999999e-05,-0.1873426,0.1131447,-9.762003,0,0,44.82866,1,1,8008,4004
2700,58604322,0,-0.003593956,-0.0006010425,-0.0005569977,-0.1867305,0.1125808,-9.76337,0,0,44.82869,1,1,8008,4004
2703,58607178,0,-0.003787565,-9.316871e-05,-0.0007981492,-0.1859865,0.1138711,-9.762708,0,0,44.82873,1,1,8008,4004
2734,58610001,0,-0.002910201,0.0004089426,-0.0009039763,-0.185648,0.1145739,-9.758659,0,0,44.82876,1,1,8008,4004
2737,58612369,0,-0.002277712,0.001037559,-0.0004290117,-0.1868033,0.1179153,-9.750654000000001,0,0,44.82881,1,1,8008,4004
2741,58614485,0,-0.001804403,0.0007626889,-0.001149839,-0.1887195,0.1211179,-9.746212,0,0,44.82884,1,1,8008,4004
2744,58616933,0,-0.0006698403,-0.0008481126,-0.001983745,-0.1899873,0.1253789,-9.743824999999999,0,0,44.82888,1,1,8008,4004
2775,58619951,0,-0.0009159149,-0.001244778,-0.001440154,-0.1896099,0.1265696,-9.742710000000001,0,0,44.82891,1,1,8008,4004
2778,58622328,0,-0.001907192,-0.0006843418,-0.0003145239,-0.1894214,0.1276987,-9.743161000000001,0,0,44.82895,1,1,8008,4004
2781,58624391,0,-0.002625122,-0.000540921,-5.526445e-06,-0.1889007,0.1285339,-9.744914,0,0,44.82898,1,1,8008,4004
2784,58626887,0,-0.003064585,-0.001593977,0.0002044288,-0.1878741,0.1293472,-9.749634,0,0,44.82903,1,1,8008,4004
2816,58629995,0,-0.00316584,-0.00229496,6.767843e-05,-0.1864432,0.1293911,-9.753,0,0,44.82906,1,1,8008,4004
2819,58632323,0,-0.003633629,-0.002200876,0.0001815974,-0.1843149,0.1285366,-9.756216,0,0,44.82911,1,1,8008,4004
2823,58634908,0,-0.003416067,-0.001254774,-0.0001420515,-0.1833942,0.1274889,-9.756618,0,0,44.82912,1,1,8008,4004
2827,58637516,0,-0.001664476,0.0002158976,-0.0009930087999999999,-0.181892,0.1244056,-9.755402999999999,0,0,44.82914,1,1,8008,4004
2858,58639890,0,0.0005330488,-0.0002112649,-0.001882877,-0.1810016,0.1238484,-9.751741000000001,0,0,44.82919,1,1,8008,4004
2861,58642376,0,0.001634609,-0.0007840833,-0.002164674,-0.1806797,0.1241459,-9.749321,0,0,44.82926,1,1,8008,4004
2868,58645887,0,0.001824726,-0.001216774,-0.002484835,-0.1831761,0.1219691,-9.746103,0,0,44.8294,1,1,8008,4004
2871,58647315,0,0.001451329,-0.001372383,-0.002310115,-0.1858028,0.1198795,-9.745559999999999,0,0,44.82951,1,1,8008,4004
2902,58650356,0,0.0007052184,-0.0009654699,-0.001946192,-0.1880965,0.1172999,-9.745785,0,0,44.82965,1,1,8008,4004
2905,58652308,0,5.801578e-05,-0.0001698145,-0.001867237,-0.1886906,0.1165967,-9.744507,0,0,44.82973,1,1,8008,4004
2909,58654892,0,-0.0005965016,0.0007347166,-0.001427731,-0.1865274,0.1158948,-9.740854000000001,0,0,44.82983,1,1,8008,4004
2912,58657986,0,-0.001261102,0.0009996263999999999,-0.001674076,-0.1834315,0.1152783,-9.739242000000001,0,0,44.8299,1,1,8008,4004
2943,58660130,0,-0.001588935,0.0001839097,-0.002148172,-0.1793618,0.1136908,-9.737155,0,0,44.83,1,1,8008,4004
2946,58663043,0,-0.002122943,0.0002702242,-0.002163923,-0.1745504,0.1144244,-9.735765000000001,0,0,44.8301,1,1,8008,4004
2950,58665879,0,-0.0009313971,0.000236725,-0.001639306,-0.1716279,0.1162864,-9.735412,0,0,44.83017,1,1,8008,4004
2953,58668347,0,0.001159672,-0.0001149358,0.0002284276,-0.1665347,0.1182119,-9.735037,0,0,44.83031,1,1,8008,4004
2984,58670784,0,0.001061251,8.681313999999999e-05,0.0002936104,-0.1624356,0.1188562,-9.734779,0,0,44.83049,1,1,8008,4004
2988,58673404,0,0.0005432169,0.0008746524,-0.0004411578,-0.1607131,0.1192619,-9.734688,0,0,44.83057,1,1,8008,4004
2991,58676044,0,-0.0004785528,0.001711253,-0.0009434359,-0.1591462,0.1210573,-9.734742000000001,0,0,44.83066,1,1,8008,4004
2994,58679038,0,-0.0007767346,0.001301252,-0.001316452,-0.1580524,0.1226924,-9.735522,0,0,44.83073,1,1,8008,4004
3025,58682872,0,-0.0003311988,0.0003477701,-0.001346589,-0.1566021,0.125143,-9.738346999999999,0,0,44.83075,1,1,8008,4004
3028,58684160,0,0.0007152804,0.0001039256,-0.0008452924,-0.1574897,0.1268702,-9.743836999999999,0,0,44.83071,1,1,8008,4004
3032,58686604,0,0.001674243,6.75515e-05,-0.000616594,-0.1604746,0.1296348,-9.747806000000001,0,0,44.83067,1,1,8008,4004
3035,58689369,0,0.001637882,-0.0007399078,-0.0008292378,-0.16263,0.1306411,-9.749444,0,0,44.83062,1,1,8008,4004
3066,58692709,0,0.00188742,-0.00128127,-0.001948915,-0.165461,0.1313603,-9.750902999999999,0,0,44.83052,1,1,8008,4004
3069,58694268,0,0.001896718,-0.0008973054,-0.00218972,-0.1672496,0.1326992,-9.751199,0,0,44.83049,1,1,8008,4004
3072,58697122,0,0.0008781418,-1.618086e-05,-0.001440903,-0.1670211,0.1337371,-9.752929999999999,0,0,44.83046,1,1,8008,4004
3075,58699142,0,-0.0002634071,-0.0001597306,-0.0006246357,-0.1658019,0.132498,-9.756017,0,0,44.83046,1,1,8008,4004
3106,58701562,0,-0.000857187,-0.0007759134,0.0007902071000000001,-0.1635367,0.1280627,-9.761366000000001,0,0,44.83049,1,1,8008,4004
3109,58704897,0,-0.0002707562,-0.0008514035,0.0008616662,-0.1626782,0.1249621,-9.764991,0,0,44.83052,1,1,8008,4004
3113,58706551,0,0.001048354,0.0008722284,0.001380316,-0.163104,0.1192902,-9.766750999999999,0,0,44.83061,1,1,8008,4004
3116,58711893,0,0.001568229,-7.537828e-05,0.0010315,-0.1681778,0.1104197,-9.758656999999999,0,0,44.8308,1,1,8008,4004
3147,58714513,0,0.001336646,-0.0005492081,0.00100988,-0.1682259,0.1097156,-9.755925,0,0,44.83088,1,1,8008,4004
3150,58717350,0,0.0009503551,-0.0001698367,0.001131088,-0.1670785,0.1098586,-9.753289000000001,0,0,44.83102,1,1,8008,4004
3153,58719795,0,0.0003072085,0.0001112792,0.001679748,-0.1655912,0.111329,-9.751486,0,0,44.8311,1,1,8008,4004
3156,58722505,0,9.331479e-06,3.390978e-05,0.002689234,-0.1635657,0.115123,-9.748905000000001,0,0,44.83124,1,1,8008,4004
3187,58724981,0,0.0007231149000000001,-0.0007653264,0.002608869,-0.1633457,0.1179146,-9.746325000000001,0,0,44.83137,1,1,8008,4004
3191,58727332,0,0.0004951188,-0.0008631225,0.001884501,-0.1636295,0.1177281,-9.745666999999999,0,0,44.83146,1,1,8008,4004
3194,58730352,0,0.0003799614,-0.0007788765,0.0007117032,-0.1649975,0.1162556,-9.745184999999999,0,0,44.83161,1,1,8008,4004
3197,58733015,0,5.949031e-05,-0.0006395616,0.0002814029,-0.1663724,0.115297,-9.744267000000001,0,0,44.83173,1,1,8008,4004
3228,58735475,0,0.0001837802,-0.001107594,-0.0001730868,-0.1685126,0.1139762,-9.742592,0,0,44.83193,1,1,8008,4004
3231,58737753,0,-0.00113351,-0.001534404,0.0001478496,-0.1698947,0.1126081,-9.739445,0,0,44.83213,1,1,8008,4004
3234,58740466,0,-0.001911033,-0.001472699,0.0002215067,-0.1687731,0.1116389,-9.737791,0,0,44.83226,1,1,8008,4004
3239,58743499,0,-0.001417078,-0.00170574,0.0001323532,-0.1677421,0.1117054,-9.736865999999999,0,0,44.83253,1,1,8008,4004
3270,58746454,0,-0.0006238454,-0.001447804,0.0007939509,-0.1677334,0.1139789,-9.736196,0,0,44.83278,1,1,8008,4004
3278,58749013,0,-0.0006371703,-0.001098332,0.0009787423,-0.1686982,0.1167727,-9.737406999999999,0,0,44.83296,1,1,8008,4004
3281,58751069,0,-0.0005200112,-0.0003571596,0.0005640475,-0.1702373,0.1199997,-9.741293000000001,0,0,44.83323,1,1,8008,4004
3284,58753507,0,-0.000372569,-0.0001249669,0.0006786768,-0.170909,0.1205021,-9.744054,0,0,44.83341,1,1,8008,4004
3315,58756773,0,-0.0001615963,-0.001412464,0.001273315,-0.1696643,0.1213715,-9.748665000000001,0,0,44.83368,1,1,8008,4004
3318,58759457,0,0.0002100461,-0.001922062,0.0007281646,-0.1682737,0.1234388,-9.754018,0,0,44.83396,1,1,8008,4004
3321,58761309,0,0.0003250616,-0.001387197,0.0004092772,-0.167346,0.1242485,-9.758423000000001,0,0,44.83421,1,1,8008,4004
3324,58763885,0,0.0001810502,-0.001025558,-0.0004857104,-0.1641202,0.1262597,-9.764996,0,0,44.83445,1,1,8008,4004
3355,58766323,0,-0.0003698959,-0.0002424126,-0.0008851822000000001,-0.1624497,0.1276559,-9.769572999999999,0,0,44.8346,1,1,8008,4004
3358,58769562,0,-0.001756813,0.0006130834,-9.973071e-05,-0.1623124,0.1298633,-9.771307999999999,0,0,44.83484,1,1,8008,4004
3361,58772105,0,-0.002514079,0.0004551902,-0.0001682556,-0.1642689,0.130839,-9.769064,0,0,44.835,1,1,8008,4004
3364,58773894,0,-0.001867826,4.038947e-05,-0.000260458,-0.1683167,0.1306363,-9.765511,0,0,44.83528,1,1,8008,4004
3395,58776255,0,-0.0004197794,-0.0002331034,-0.0007186842,-0.1709771,0.1294689,-9.761289,0,0,44.8354,1,1,8008,4004
3398,58778757,0,0.000495526,-0.001262362,-0.0006954605,-0.1737493,0.1266957,-9.756373,0,0,44.83561,1,1,8008,4004
3403,58782246,0,0.001006748,-0.001002307,-0.0005142234,-0.1737972,0.1230643,-9.754009,0,0,44.83574,1,1,8008,4004
3406,58784397,0,0.0007243160999999999,-0.000509895,-0.00156134,-0.1736571,0.1170724,-9.753417000000001,0,0,44.83593,1,1,8008,4004
3437,58786780,0,-0.0001451737,0.0006650744,-0.002126437,-0.1733892,0.1137052,-9.75656,0,0,44.83612,1,1,8008,4004
3440,58789600,0,-0.0003665085,0.0004391786,-0.001845323,-0.173418,0.1140179,-9.758502999999999,0,0,44.83623,1,1,8008,4004
3444,58793437,0,-0.0006559283,-0.0008057731,-0.00110343,-0.1737409,0.1153032,-9.760524999999999,0,0,44.83643,1,1,8008,4004
3447,58794702,0,0.0003518372,-0.001557518,-0.001067025,-0.1738312,0.1173482,-9.762109000000001,0,0,44.83657,1,1,8008,4004
3478,58800104,0,-0.0002132493,-0.001219507,-0.0007883296,-0.1693822,0.1203388,-9.76681,0,0,44.83691,1,1,8008,4004
3483,58803156,0,-0.0005295583,-0.0004952082,-0.0006915872,-0.1664084,0.1217433,-9.76878,0,0,44.83717,1,1,8008,4004
3486,58805492,0,-0.0008111556999999999,-0.0003758807,-0.0005319321,-0.1641668,0.1234372,-9.770219000000001,0,0,44.83731,1,1,8008,4004
3517,58807714,0,-0.000757079,-0.001564443,-7.785684e-05,-0.1617221,0.1267867,-9.770998000000001,0,0,44.83762,1,1,8008,4004
3520,58810514,0,-0.0009077684,-0.00287352,-0.0007878044,-0.1620351,0.1269401,-9.769114,0,0,44.83778,1,1,8008,4004
3524,58813504,0,-0.000399073,-0.003925,-0.001863841,-0.1635046,0.1264527,-9.764521999999999,0,0,44.8381,1,1,8008,4004
3527,58815914,0,0.0002857859,-0.003391801,-0.002150821,-0.1654315,0.1275251,-9.76179,0,0,44.83835,1,1,8008,4004
3558,58818009,0,0.0001956811,-0.001583432,-0.001909864,-0.1675692,0.1303819,-9.757584,0,0,44.83864,1,1,8008,4004
3561,58820927,0,0.0004647065,0.0002257507,-0.002079506,-0.1684074,0.1338529,-9.759048,0,0,44.83883,1,1,8008,4004
3564,58823725,0,0.0008888622,0.001073286,-0.002170371,-0.1705505,0.1357149,-9.762639999999999,0,0,44.83896,1,1,8008,4004
3567,58826247,0,0.0005558804000000001,0.0002585248,-0.0008835834,-0.1740383,0.1378538,-9.767306,0,0,44.83915,1,1,8008,4004
3598,58828294,0,0.0001164811,-0.0002142752,0.0007402442,-0.1762073,0.1392078,-9.769558,0,0,44.83926,1,1,8008,4004
3601,58830983,0,-0.001239303,-0.0005924195,0.001719364,-0.1788651,0.1388198,-9.770345000000001,0,0,44.83947,1,1,8008,4004
3605,58833661,0,-0.002374346,-0.0001492265,0.001088452,-0.1789063,0.136429,-9.767068999999999,0,0,44.83962,1,1,8008,4004
3608,58836174,0,-0.002785343,-0.000681672,0.0006090529,-0.1789396,0.1336197,-9.759769,0,0,44.83984,1,1,8008,4004
3639,58839080,0,-0.001765614,-0.001362476,0.0004515613,-0.1798831,0.1328771,-9.753909999999999,0,0,44.83999,1,1,8008,4004
3643,58841505,0,0.0004884907,-0.001127173,0.0002617779,-0.1800648,0.1331092,-9.746264,0,0,44.84021,1,1,8008,4004
3647,58843570,0,0.00178419,-0.0006180878,5.924985e-05,-0.1791304,0.1336262,-9.745215999999999,0,0,44.84036,1,1,8008,4004
3651,58846024,0,0.001952019,-0.0008700792,0.0007357412,-0.1790271,0.1348642,-9.747142999999999,0,0,44.84058,1,1,8008,4004
3682,58848329,0,0.00165961,-0.001036739,0.001577072,-0.1799371,0.1348899,-9.748531,0,0,44.84072,1,1,8008,4004
3689,58851731,0,0.001064086,-0.001549065,0.002103077,-0.1826034,0.1345153,-9.749221,0,0,44.84091,1,1,8008,4004
3693,58853580,0,0.0007215021,-0.001624693,0.001628925,-0.1848183,0.1347518,-9.750874,0,0,44.84103,1,1,8008,4004
3696,58856380,0,-0.0005916845,-0.001234306,0.0003149258,-0.1865017,0.1352425,-9.754288000000001,0,0,44.8412,1,1,8008,4004
3727,58858998,0,-0.0008480052000000001,0.0003738111,-0.0002176649,-0.1865543,0.1346013,-9.75338,0,0,44.84138,1,1,8008,4004
3730,58861767,0,-0.0008519441,0.0006275428,-0.0005542773,-0.185645,0.132895,-9.751972,0,0,44.84148,1,1,8008,4004
3733,58864587,0,-0.0005126419,-0.0002568984,-0.0004380053,-0.1838416,0.1311065,-9.750042000000001,0,0,44.84166,1,1,8008,4004
3737,58866494,0,-0.0003214858,-0.000758599,-4.422811e-05,-0.183312,0.1308073,-9.749478,0,0,44.84177,1,1,8008,4004
3768,58869429,0,-0.0006596363,-0.0003803895,0.0002586665,-0.182091,0.1306394,-9.751417,0,0,44.84192,1,1,8008,4004
3771,58871466,0,-0.0001808166,-2.175705e-05,0.0004208818,-0.1804796,0.1314458,-9.755300999999999,0,0,44.84199,1,1,8008,4004
3775,58873952,0,0.001010811,-0.0002536626,0.001161134,-0.1771234,0.1319617,-9.764341,0,0,44.84211,1,1,8008,4004
3778,58877042,0,0.0009404882,-0.00022309,0.001505952,-0.1748359,0.1308225,-9.769601,0,0,44.84219,1,1,8008,4004
3809,58879802,0,0.001187119,0.000370558,0.001647817,-0.1719373,0.1282174,-9.772878,0,0,44.84231,1,1,8008,4004
3812,58882151,0,0.0005485616,0.0005011467,0.002156722,-0.1702818,0.1263301,-9.772663,0,0,44.84243,1,1,8008,4004
3816,58884374,0,-0.0001438352,-0.0001042006,0.001699589,-0.1693757,0.1253993,-9.769667999999999,0,0,44.84251,1,1,8008,4004
3819,58888277,0,0.0002082785,-0.001338555,5.852476e-05,-0.169871,0.1247782,-9.765387,0,0,44.84265,1,1,8008,4004
3822,58889802,0,-2.69933e-05,-0.001428521,-0.0009964007,-0.1707799,0.1238081,-9.764950000000001,0,0,44.84277,1,1,8008,4004
3853,58892544,0,-0.001220167,-0.0008133767,-0.001312039,-0.1729686,0.1220234,-9.767182999999999,0,0,44.84295,1,1,8008,4004
3856,58894510,0,-0.001179806,-0.0009551469,-0.001636104,-0.1745842,0.1214341,-9.768273000000001,0,0,44.84306,1,1,8008,4004
3859,58897085,0,-0.0007123286,-0.001095095,-0.001598258,-0.1787328,0.1213633,-9.769076,0,0,44.84324,1,1,8008,4004
3862,58900362,0,-0.0004225628,-0.001427162,-0.001577007,-0.1816272,0.1211064,-9.769413999999999,0,0,44.84335,1,1,8008,4004
3893,58902710,0,-0.0006266313,-0.001448145,-1.363513e-05,-0.1863385,0.1222699,-9.764668,0,0,44.84359,1,1,8008,4004
3897,58906794,0,-0.001252442,-0.0009191661,0.000340438,-0.1858185,0.1228407,-9.760795999999999,0,0,44.84371,1,1,8008,4004
3900,58907975,0,-0.001100607,-0.0007161728,-5.867184e-05,-0.1829015,0.1216636,-9.756216,0,0,44.84396,1,1,8008,4004
3903,58911147,0,-0.000786853,-0.0005797942,-0.0008097644,-0.1816189,0.1215107,-9.754236000000001,0,0,44.84405,1,1,8008,4004
3934,58913463,0,-0.0004854075,-0.0002464122,-0.002142704,-0.1805168,0.1213154,-9.752459999999999,0,0,44.8442,1,1,8008,4004
3937,58916370,0,0.0005882168,-0.0003865965,-0.00223959,-0.1784406,0.1200801,-9.749377000000001,0,0,44.8444,1,1,8008,4004
3940,58918350,0,0.0007646413,-0.0001081599,-0.001679775,-0.1767091,0.1200193,-9.745934999999999,0,0,44.8445,1,1,8008,4004
3943,58921112,0,-0.0001743125,-0.0001649738,-0.0009130826000000001,-0.1748644,0.1215425,-9.740838,0,0,44.8447,1,1,8008,4004
3974,58924049,0,-0.0008226687000000001,-0.0007761994,-0.0006896465,-0.1747195,0.1219369,-9.739318000000001,0,0,44.8448,1,1,8008,4004
3978,58926257,0,-0.000951578,-0.001962991,-0.0001827933,-0.1755252,0.1219971,-9.739113,0,0,44.84505,1,1,8008,4004
3981,58929060,0,-0.0008726743,-0.002066288,-9.685508e-05,-0.1747129,0.1225936,-9.737541,0,0,44.84525,1,1,8008,4004
3984,58931122,0,-0.001756798,-0.0006108766,-0.001000253,-0.1734028,0.1235464,-9.734544,0,0,44.84541,1,1,8008,4004
4015,58933431,0,-0.002155587,0.0002660387,-0.001107438,-0.1731036,0.1239837,-9.734126,0,0,44.84552,1,1,8008,4004
4019,58936483,0,-0.001831803,-0.000420699,-2.037563e-05,-0.1739097,0.1256255,-9.735918,0,0,44.84568,1,1,8008,4004
4022,58938332,0,-0.001020389,-0.00139423,0.0007262276,-0.174737,0.1286597,-9.737378,0,0,44.84578,1,1,8008,4004
4025,58941154,0,0.0005499723,-0.001817492,0.0002485965,-0.1759894,0.1339708,-9.741554000000001,0,0,44.84594,1,1,8008,4004
4058,58943560,0,0.0001160152,-0.002188974,-0.0007749916,-0.1771203,0.1356069,-9.744204,0,0,44.84606,1,1,8008,4004
4062,58946038,0,-4.779499e-05,-0.001814152,-0.0005385649,-0.1782487,0.136345,-9.748536,0,0,44.84625,1,1,8008,4004
4066,58949388,0,2.12696e-05,-0.0005521626,-0.00030338,-0.1790353,0.1358414,-9.752872999999999,0,0,44.84635,1,1,8008,4004
4069,58951329,0,0.0002583084,0.0008885322,-0.0003481971,-0.1788874,0.1365055,-9.757987,0,0,44.84649,1,1,8008,4004
4104,58954030,0,0.0004584104,0.0008132324999999999,-0.0002578527,-0.1779106,0.1364426,-9.759767,0,0,44.8466,1,1,8008,4004
4109,58955970,0,-0.0004550815,0.0003549614,-0.0009502505,-0.1767866,0.1354647,-9.761608000000001,0,0,44.84676,1,1,8008,4004
4112,58958404,0,-0.000577861,-0.0002419937,-0.0009166635999999999,-0.175682,0.1344398,-9.75841,0,0,44.84687,1,1,8008,4004
4115,58961343,0,-0.0001792221,-0.0009297059000000001,-8.993867e-05,-0.1737423,0.1325495,-9.747071,0,0,44.84704,1,1,8008,4004
4146,58964144,0,-0.0003793741,-0.001036395,-0.0003024493,-0.1735908,0.1294786,-9.733516,0,0,44.84724,1,1,8008,4004
4150,58966404,0,-0.001348938,-0.001324291,-0.0009721128,-0.1731073,0.1261441,-9.728349,0,0,44.84738,1,1,8008,4004
4153,58968958,0,-0.000941208,-0.001795675,-0.00158966,-0.1719131,0.1231799,-9.724895999999999,0,0,44.84759,1,1,8008,4004
4156,58971531,0,-0.0002637904,-0.00117948,-0.001937708,-0.171037,0.1225215,-9.724367000000001,0,0,44.84769,1,1,8008,4004
4187,58974367,0,-7.020553e-06,-0.0006824677,-0.001634156,-0.1704505,0.1224627,-9.725351,0,0,44.84786,1,1,8008,4004
4191,58976967,0,-0.0009479232,-0.0004603953,-0.0002097849,-0.1698039,0.1226568,-9.726706,0,0,44.84794,1,1,8008,4004
4194,58978801,0,-0.002183069,0.0005779952000000001,0.0006680347,-0.1698356,0.1219464,-9.728702999999999,0,0,44.84811,1,1,8008,4004
4197,58981457,0,-0.002310553,0.000524483,8.129099e-05,-0.1697908,0.1213899,-9.730812999999999,0,0,44.84821,1,1,8008,4004
4228,58983948,0,-0.001629058,-0.0005811747,-0.0003669514,-0.1677834,0.1214191,-9.733433,0,0,44.84842,1,1,8008,4004
4232,58986977,0,-0.0009069789,-0.0008076287,2.040255e-05,-0.1648053,0.1211988,-9.735150000000001,0,0,44.84853,1,1,8008,4004
4237,58989766,0,-0.0003046952,-0.0007601286,0.0006205431,-0.1597184,0.1197817,-9.738523000000001,0,0,44.84875,1,1,8008,4004
4240,58991286,0,0.000580935,-0.0009130099,0.0005413454,-0.1567651,0.1188141,-9.741713000000001,0,0,44.84886,1,1,8008,4004
4271,58994315,0,0.001038407,-0.0003484847,-0.0001692104,-0.1544462,0.1181146,-9.74512,0,0,44.84907,1,1,8008,4004
4275,58996498,0,0.000322484,0.0004265395,-0.0005539278,-0.1544061,0.1177214,-9.746403000000001,0,0,44.84918,1,1,8008,4004
4278,59000472,0,-0.0002286996,0.0007377447000000001,-0.0005478827,-0.1557545,0.1175184,-9.745698000000001,0,0,44.84943,1,1,8008,4004
4281,59003107,0,0.0005689216,8.94521e-05,-0.0008132058,-0.1583177,0.1193385,-9.741883,0,0,44.84965,1,1,8008,4004
4284,59004313,0,0.0005676143,6.207566e-06,-0.0005705481,-0.1593745,0.1232695,-9.737553,0,0,44.84995,1,1,8008,4004
4315,59007068,0,-5.139863e-05,-0.0009280551,-0.0005326362,-0.1591495,0.12613,-9.736048,0,0,44.85009,1,1,8008,4004
4318,59010139,0,-0.001007616,-0.001460711,-0.0007697158,-0.159552,0.1280347,-9.733438,0,0,44.85022,1,1,8008,4004
4321,59012509,0,-0.0008675191,-0.0008493497,-0.001215745,-0.1605035,0.1291896,-9.729773,0,0,44.8505,1,1,8008,4004
4324,59015487,0,-0.0004336135,-0.001122902,-0.001355514,-0.1618773,0.1291125,-9.729996,0,0,44.85072,1,1,8008,4004
4355,59017988,0,-1.5837e-05,-0.002227091,1.111806e-05,-0.1629355,0.1265316,-9.735839,0,0,44.85105,1,1,8008,4004
4359,59020490,0,-0.0002234949,-0.001942864,0.000844453,-0.1643189,0.1260527,-9.737802,0,0,44.85123,1,1,8008,4004
4362,59023363,0,-0.000932063,-0.002008122,0.001120406,-0.1687959,0.1279156,-9.738495,0,0,44.85146,1,1,8008,4004
4365,59025308,0,-0.0005935084,-0.00235857,0.001126756,-0.1723826,0.130612,-9.739129,0,0,44.85159,1,1,8008,4004
4396,59028092,0,-0.0001355404,-0.001932857,0.000520544,-0.1752428,0.1361818,-9.740786999999999,0,0,44.85187,1,1,8008,4004
4400,59030411,0,0.0005104309,-0.0009873213000000001,-0.0003444369,-0.1745923,0.1397674,-9.741476,0,0,44.85206,1,1,8008,4004
4404,59032604,0,0.001791499,-0.0004176462,-0.001859422,-0.1738812,0.1421461,-9.743976,0,0,44.85227,1,1,8008,4004
4407,59035767,0,0.002391628,-0.0005267678,-0.002016388,-0.1726393,0.1413648,-9.744043,0,0,44.85241,1,1,8008,4004
4438,59038413,0,0.00244098,-0.001034257,-0.001565541,-0.1679679,0.1391855,-9.743014000000001,0,0,44.85272,1,1,8008,4004
4441,59040744,0,0.002632122,-0.001303001,-0.001001747,-0.1655131,0.138503,-9.742706,0,0,44.85299,1,1,8008,4004
4444,59043082,0,0.002251494,-0.001214576,-0.0007389704,-0.1629775,0.1360758,-9.741447000000001,0,0,44.85325,1,1,8008,4004
4447,59045499,0,0.001337247,-0.001078011,0.0003306581,-0.1622213,0.134495,-9.742456000000001,0,0,44.85342,1,1,8008,4004
4478,59048511,0,0.0007088896,-0.0003938466,0.0008385574,-0.1637219,0.1316577,-9.745239,0,0,44.85366,1,1,8008,4004
4482,59051076,0,0.0001999009,-0.0009576117000000001,0.0005992678,-0.1653895,0.1296865,-9.747023,0,0,44.85383,1,1,8008,4004
4485,59053005,0,0.0001058643,-0.00155132,0.0002098593,-0.1678942,0.1277594,-9.748502,0,0,44.8541,1,1,8008,4004
4492,59056038,0,-0.0002967468,-0.001586569,0.0002704659,-0.1698323,0.1267089,-9.746487,0,0,44.85427,1,1,8008,4004
4523,59058174,0,-0.000631127,-0.001880916,0.0007880011,-0.1727078,0.1265799,-9.744437,0,0,44.85453,1,1,8008,4004
4527,59061101,0,-0.001074755,-0.001643751,0.001333615,-0.1728454,0.1280999,-9.745616999999999,0,0,44.85471,1,1,8008,4004
4530,59063830,0,-0.001292382,-0.001520061,0.0004412088,-0.1722615,0.1301476,-9.74724,0,0,44.85499,1,1,8008,4004
4533,59065787,0,-0.0007923315999999999,-0.001350298,-0.0001770062,-0.1726191,0.1301791,-9.749108,0,0,44.85518,1,1,8008,4004
4564,59067967,0,-0.0002061541,-0.001608194,-0.0008182354,-0.1743756,0.1290619,-9.754192,0,0,44.85542,1,1,8008,4004
4568,59070762,0,0.0003330946,-0.002030791,-0.0007414963,-0.1755796,0.1288324,-9.754861999999999,0,0,44.85557,1,1,8008,4004
4572,59073574,0,-0.0004087272,-0.001722575,-0.0008596436,-0.1781042,0.128132,-9.751884,0,0,44.85581,1,1,8008,4004
4575,59075583,0,-0.0007499412999999999,-0.001125135,-0.0004300607,-0.1803638,0.1265201,-9.749262,0,0,44.85597,1,1,8008,4004
4606,59078361,0,0.0006221602,-0.0008742771000000001,-0.0002129649,-0.1838285,0.1235498,-9.745146,0,0,44.85624,1,1,8008,4004
4610,59080687,0,0.001428547,-0.0007148448,-0.0003682531,-0.1847675,0.1223503,-9.743836,0,0,44.85642,1,1,8008,4004
4613,59082944,0,0.0005376589,-0.001304082,-0.001559266,-0.1840442,0.1215938,-9.743772,0,0,44.85678,1,1,8008,4004
4616,59086330,0,-0.0001716973,-0.001517181,-0.002031615,-0.1832105,0.1216968,-9.744356,0,0,44.85695,1,1,8008,4004
4647,59089323,0,-0.0007563861,-0.001897522,-0.002346768,-0.1823647,0.1228819,-9.744951,0,0,44.85741,1,1,8008,4004
4650,59091168,0,-0.0005697202,-0.002192279,-0.001753795,-0.1827708,0.1239236,-9.743919,0,0,44.85758,1,1,8008,4004
4653,59093534,0,-0.0004981791,-0.001798358,-0.001357286,-0.1850141,0.1267767,-9.740406999999999,0,0,44.85781,1,1,8008,4004
4656,59098956,0,-0.001116711,-0.001077834,-0.00204968,-0.1833933,0.1277739,-9.734510999999999,0,0,44.8583,1,1,8008,4004
4688,59103036,0,-0.002053417,-0.0009377638,-0.002848752,-0.1802159,0.1253358,-9.733677999999999,0,0,44.85855,1,1,8008,4004
4691,59104380,0,-0.001786424,-0.001214427,-0.003030217,-0.1779426,0.1225265,-9.733862999999999,0,0,44.85871,1,1,8008,4004
4694,59107560,0,-0.001036425,-0.001703651,-0.002475696,-0.1749672,0.120876,-9.737902999999999,0,0,44.859,1,1,8008,4004
4697,59110006,0,-0.0003644119,-0.001748302,-0.001699164,-0.1728935,0.1216344,-9.740240999999999,0,0,44.85913,1,1,8008,4004
4728,59112129,0,0.0001820429,-0.001076999,-0.0008559137000000001,-0.1709256,0.1259145,-9.740019999999999,0,0,44.85939,1,1,8008,4004
4731,59115339,0,0.0005516682,-0.001236326,-0.0001834305,-0.1702138,0.1301373,-9.738144,0,0,44.85957,1,1,8008,4004
4734,59117275,0,0.000703542,-0.002124181,0.0003555639,-0.1702343,0.1323858,-9.737868000000001,0,0,44.85966,1,1,8008,4004
4737,59119966,0,0.0006470048,-0.002171146,1.699158e-05,-0.1725341,0.1324459,-9.739979,0,0,44.85977,1,1,8008,4004
4768,59122734,0,0.0002257427,-0.001001497,-0.0007676207,-0.175049,0.1302016,-9.741692,0,0,44.85984,1,1,8008,4004
4772,59124961,0,-0.0004064427,-6.155281e-05,-0.001674368,-0.1766223,0.1286007,-9.745067000000001,0,0,44.85994,1,1,8008,4004
4775,59127772,0,-0.0002570344,-0.0003554522,-0.00222559,-0.1762646,0.1290352,-9.747731,0,0,44.86002,1,1,8008,4004
4778,59130336,0,0.0003492078,-0.0009229963,-0.0029148,-0.1744371,0.13053,-9.751801,0,0,44.86015,1,1,8008,4004
4809,59133064,0,0.0008194516,-0.001508025,-0.003047704,-0.1728297,0.1321448,-9.754635,0,0,44.86028,1,1,8008,4004
4813,59135281,0,0.000973344,-0.001743842,-0.002848571,-0.1708382,0.1331568,-9.755504,0,0,44.86038,1,1,8008,4004
4816,59138159,0,-0.0005667602,-0.001421211,-0.002006463,-0.1688643,0.1326873,-9.757896000000001,0,0,44.86048,1,1,8008,4004
4819,59140525,0,-0.0009391650000000001,-0.00100892,-0.001955612,-0.1687356,0.1316253,-9.759522,0,0,44.86055,1,1,8008,4004
4850,59142699,0,-0.0006954216,-0.0009683138,-0.001003676,-0.169124,0.1299218,-9.760118,0,0,44.86058,1,1,8008,4004
4853,59145946,0,-0.00037997,-0.00125615,-0.0006108418,-0.1694503,0.1276961,-9.760002,0,0,44.86058,1,1,8008,4004
4856,59147608,0,-0.0002215647,-0.001859754,0.0001489258,-0.169592,0.1239214,-9.759727,0,0,44.8606,1,1,8008,4004
4859,59150538,0,-0.0001197213,-0.001440578,0.0005877221,-0.1701558,0.1211952,-9.760202,0,0,44.86064,1,1,8008,4004
4890,59153729,0,-8.895784e-05,5.102096e-05,0.000242383,-0.1707342,0.1191642,-9.762394,0,0,44.86074,1,1,8008,4004
4894,59155382,0,0.0001556869,0.0002910375,-6.16145e-05,-0.1713362,0.1204167,-9.764377,0,0,44.86076,1,1,8008,4004
4901,59158270,0,0.001059279,0.0002579756,0.0003783003,-0.175451,0.1220695,-9.766133,0,0,44.86073,1,1,8008,4004
4904,59160890,0,0.0007498824,0.000270196,0.0005196689999999999,-0.1788127,0.1217649,-9.768528999999999,0,0,44.86069,1,1,8008,4004
4935,59163147,0,-0.0008225017,0.0009966249000000001,-0.0006192527,-0.1811121,0.1207989,-9.768724000000001,0,0,44.86059,1,1,8008,4004
4938,59165983,0,-0.0006506596,0.0009727002999999999,-0.001028016,-0.1822144,0.1208111,-9.764331,0,0,44.86045,1,1,8008,4004
4941,59168901,0,-0.0001774987,0.001561214,-0.0002891207,-0.1818075,0.1203111,-9.760629,0,0,44.86038,1,1,8008,4004
4944,59171290,0,0.0001114913,0.002106657,1.438927e-05,-0.1792175,0.1202966,-9.756819,0,0,44.86029,1,1,8008,4004
4975,59173928,0,7.263394000000001e-05,0.001582552,2.264082e-05,-0.1774744,0.1212764,-9.755051999999999,0,0,44.86028,1,1,8008,4004
4979,59175952,0,-0.0005900835,0.0004695504,-0.0005648744,-0.1754462,0.1223992,-9.753888999999999,0,0,44.86028,1,1,8008,4004
4983,59178875,0,-0.0007542492,0.0004712956,-5.637909e-05,-0.1740795,0.1219559,-9.753824,0,0,44.8603,1,1,8008,4004
4987,59181065,0,-8.448753e-05,0.0009927028000000001,0.001120726,-0.1725361,0.1212598,-9.756591,0,0,44.86037,1,1,8008,4004
5018,59183893,0,0.0002904426,0.001124081,0.001320228,-0.1721331,0.1206999,-9.756664000000001,0,0,44.86043,1,1,8008,4004
5021,59185971,0,0.0005823753,0.0005276007000000001,0.001363434,-0.1715778,0.1203994,-9.757151,0,0,44.86049,1,1,8008,4004
5024,59188313,0,0.0004970232,0.00103322,0.00165649,-0.1734438,0.1205112,-9.756512000000001,0,0,44.86053,1,1,8008,4004
5027,59190957,0,-0.000236034,0.001868955,0.00109841,-0.1764389,0.1227633,-9.756154,0,0,44.86063,1,1,8008,4004
5060,59194174,0,-0.0004464177,0.001957253,0.001030635,-0.1769596,0.1256431,-9.757933,0,0,44.86068,1,1,8008,4004
5064,59196318,0,-0.001789437,0.001765989,0.001088231,-0.1747141,0.1286498,-9.759404999999999,0,0,44.86073,1,1,8008,4004
5067,59201296,0,-0.002326531,0.0004758401,0.0007000785,-0.1704328,0.130623,-9.751708000000001,0,0,44.86068,1,1,8008,4004
5098,59205030,0,-0.001121972,0.0009914044999999999,0.000383668,-0.1677783,0.1310652,-9.746869,0,0,44.8606,1,1,8008,4004
5101,59206360,0,-8.297421e-05,0.0013819,0.0001550343,-0.1664185,0.1305142,-9.744362000000001,0,0,44.86057,1,1,8008,4004
5104,59209514,0,0.0001286821,0.0003181441,0.0009376174,-0.1651711,0.1298503,-9.740696,0,0,44.86054,1,1,8008,4004
5107,59211206,0,-0.0003992097,-0.0002203871,0.001016002,-0.1647623,0.1300814,-9.738239,0,0,44.8605,1,1,8008,4004
5138,59213562,0,-0.0009772028,-0.0001467032,0.000198647,-0.1657868,0.129671,-9.735194999999999,0,0,44.86045,1,1,8008,4004
5142,59217085,0,-0.0002306931,-0.0001374091,-0.0001648185,-0.1677265,0.1293854,-9.734070000000001,0,0,44.86041,1,1,8008,4004
5145,59218942,0,0.0004494363,-0.001086417,-0.0006398521,-0.1700716,0.1291803,-9.735749999999999,0,0,44.86036,1,1,8008,4004
5148,59221802,0,0.0008760678,-0.001576873,-0.0005281515,-0.1715422,0.128542,-9.737797,0,0,44.86036,1,1,8008,4004
5179,59223981,0,0.00110179,-0.001958466,-0.0001863276,-0.1731445,0.1278982,-9.74165,0,0,44.86038,1,1,8008,4004
5183,59226508,0,0.0004068985,-0.002097141,-0.0006508214999999999,-0.1743458,0.1273185,-9.745521999999999,0,0,44.86038,1,1,8008,4004
5186,59229572,0,0.0002558432,-0.002147055,-0.001005007,-0.1758769,0.1255761,-9.750484,0,0,44.86041,1,1,8008,4004
5189,59231556,0,0.0005400922,-0.002105723,-0.0009307243,-0.1761265,0.1226858,-9.752708,0,0,44.86045,1,1,8008,4004
5220,59234597,0,3.723792e-05,-0.001447359,-0.0004081768,-0.1766478,0.1182665,-9.755015,0,0,44.86053,1,1,8008,4004
5223,59236545,0,-0.0003389179,-0.0009509769,-0.0006150047,-0.1761863,0.115291,-9.757561000000001,0,0,44.86056,1,1,8008,4004
5226,59239084,0,-0.0005644753,-0.000921986,-0.0009902610999999999,-0.1718301,0.1124568,-9.760979000000001,0,0,44.86057,1,1,8008,4004
5229,59242148,0,-0.0006356821,-0.00039376,-0.0006476566,-0.1687718,0.1116646,-9.760973,0,0,44.86057,1,1,8008,4004
5260,59244310,0,-0.0009131308,-0.0004340367,-0.001193008,-0.1676942,0.1109336,-9.760588,0,0,44.86055,1,1,8008,4004
5265,59247523,0,-0.001184128,-0.001470325,-0.001793623,-0.165626,0.1130074,-9.760889000000001,0,0,44.86055,1,1,8008,4004
5268,59249784,0,-0.001097177,-0.001808047,-0.001698222,-0.1633763,0.1152388,-9.760510999999999,0,0,44.86053,1,1,8008,4004
5271,59252671,0,-0.001169859,-0.001071329,-0.001702015,-0.1609143,0.1175352,-9.758793000000001,0,0,44.86047,1,1,8008,4004
5302,59254922,0,-0.001009202,-0.001529362,-0.001191488,-0.1601769,0.1194767,-9.756126,0,0,44.86043,1,1,8008,4004
5305,59257345,0,-0.0006426679,-0.002456875,-0.001049901,-0.1591434,0.1211457,-9.751696000000001,0,0,44.86038,1,1,8008,4004
5312,59261007,0,-4.863864e-05,-0.002739209,-0.0007515221000000001,-0.1565936,0.1211224,-9.741415,0,0,44.86032,1,1,8008,4004
5315,59262371,0,9.130011e-05,-0.002479936,-0.0008786464,-0.1569457,0.1208666,-9.735173,0,0,44.86031,1,1,8008,4004
5346,59265692,0,-2.298165e-06,-0.001990575,-0.0007231836,-0.1595437,0.1214221,-9.730865,0,0,44.86032,1,1,8008,4004
5350,59267357,0,0.0001676023,-0.0008038243,-0.0005689646,-0.1602531,0.1225135,-9.729443,0,0,44.86037,1,1,8008,4004
5353,59270256,0,0.0006089219,0.0007288774,0.0005291375,-0.1605357,0.1247204,-9.728698,0,0,44.8605,1,1,8008,4004
5356,59273140,0,1.475275e-05,0.001001811,0.001137796,-0.1616696,0.1258108,-9.727667,0,0,44.86054,1,1,8008,4004
5387,59275388,0,-0.001528993,0.00018496,0.000896473,-0.1657324,0.1281002,-9.726532000000001,0,0,44.86061,1,1,8008,4004
5391,59278325,0,-0.001293116,-0.001050518,0.001037249,-0.1691985,0.1302056,-9.725355,0,0,44.86065,1,1,8008,4004
5395,59280482,0,-0.001260404,-0.001897372,0.00126214,-0.1698806,0.1310638,-9.725661000000001,0,0,44.86067,1,1,8008,4004
5398,59283570,0,-0.0006053488,-0.001962261,0.0007588102999999999,-0.1671365,0.1317803,-9.727387999999999,0,0,44.86067,1,1,8008,4004
5429,59285966,0,-0.0005412471000000001,-0.001977836,-0.001233621,-0.1641936,0.1313039,-9.726177,0,0,44.86062,1,1,8008,4004
5432,59288574,0,-0.0001858227,-0.002126409,-0.001781661,-0.1638032,0.1308551,-9.725765000000001,0,0,44.86058,1,1,8008,4004
5435,59291351,0,0.0002860672,-0.003090981,-0.002124192,-0.1640253,0.1306035,-9.725944999999999,0,0,44.8605,1,1,8008,4004
5438,59293615,0,-0.0003367809,-0.002718716,-0.002234691,-0.1637928,0.1311758,-9.727682,0,0,44.86042,1,1,8008,4004
5469,59297470,0,6.406270000000001e-05,-0.001916298,-0.00196242,-0.1645332,0.1300624,-9.730585,0,0,44.86033,1,1,8008,4004
5473,59298711,0,0.001351618,-0.001546288,-0.001493689,-0.1648848,0.1265349,-9.733886,0,0,44.86027,1,1,8008,4004
5476,59302791,0,0.0008710721,-0.001906304,-0.00111346,-0.1641221,0.125048,-9.736215,0,0,44.86026,1,1,8008,4004
5479,59304052,0,-0.0004353801,-0.003021629,-0.00136119,-0.1644379,0.1238019,-9.739017,0,0,44.86027,1,1,8008,4004
5510,59307718,0,-0.001177824,-0.002373948,-0.001495449,-0.1655803,0.1231325,-9.74037,0,0,44.86033,1,1,8008,4004
5513,59309360,0,-0.001582816,-0.001399364,-0.001078474,-0.1661537,0.122522,-9.739604,0,0,44.86039,1,1,8008,4004
5516,59311553,0,-0.00169453,-0.0007441597,-0.0008362447,-0.1670088,0.1221602,-9.739008999999999,0,0,44.86047,1,1,8008,4004
5519,59314297,0,-0.0006773231,-0.0001910976,-0.0007895139999999999,-0.169169,0.1221519,-9.738619999999999,0,0,44.86061,1,1,8008,4004
5550,59316554,0,0.0001075872,-0.0004788928,-0.0008463953,-0.1707737,0.121697,-9.739494000000001,0,0,44.86078,1,1,8008,4004
5554,59319385,0,0.0006829536,-0.0006390285,-0.0009840989,-0.1730828,0.1228564,-9.738562999999999,0,0,44.8609,1,1,8008,4004
5557,59321338,0,0.000922643,-0.0009554467,-0.001156573,-0.1756193,0.1236275,-9.738512,0,0,44.86102,1,1,8008,4004
5560,59323925,0,0.0008072435,-0.001070438,-0.0007660142,-0.1792624,0.1256737,-9.738543999999999,0,0,44.8612,1,1,8008,4004
5591,59326798,0,0.0009142357,-0.002052177,-0.0004319251,-0.181282,0.1273922,-9.739079,0,0,44.86132,1,1,8008,4004
5594,59329019,0,0.0008379635,-0.002514066,-0.001247302,-0.1839001,0.1288983,-9.740954,0,0,44.8615,1,1,8008,4004
5597,59331899,0,0.0006807439,-0.002244659,-0.001190129,-0.184747,0.1290461,-9.742766,0,0,44.86164,1,1,8008,4004
5600,59333976,0,0.0008804229,-0.001936901,-0.001135025,-0.1863563,0.1303945,-9.744804,0,0,44.86183,1,1,8008,4004
5631,59336284,0,0.001147132,-0.001132731,-0.0005072973,-0.1877325,0.1323045,-9.745199,0,0,44.86193,1,1,8008,4004
5635,59339405,0,0.001079059,-0.0005607318999999999,0.001298567,-0.188669,0.136317,-9.74569,0,0,44.86207,1,1,8008,4004
5638,59341499,0,0.0005764384,-0.000657927,0.002164572,-0.1884658,0.1393918,-9.745796,0,0,44.86216,1,1,8008,4004
5641,59344293,0,0.0003457287,-0.0011063,0.002238363,-0.1858421,0.1423649,-9.746679,0,0,44.86229,1,1,8008,4004
5672,59346519,0,0.001142394,-0.001222093,0.001395845,-0.181855,0.1426283,-9.744334,0,0,44.86242,1,1,8008,4004
5675,59348761,0,0.001386861,-0.0007369085,0.00104203,-0.1804462,0.1427733,-9.741377999999999,0,0,44.86251,1,1,8008,4004
5678,59351954,0,0.001566747,-0.000859893,0.0005256945,-0.1786898,0.1426263,-9.738350000000001,0,0,44.86266,1,1,8008,4004
5681,59354110,0,0.001313549,-0.001064869,-0.0001602925,-0.1758759,0.1411837,-9.737981,0,0,44.86287,1,1,8008,4004
5712,59356992,0,0.001067942,-0.001000656,-8.005328999999999e-05,-0.1740312,0.1376029,-9.739962,0,0,44.863,1,1,8008,4004
5715,59358955,0,0.0009253583,-0.001294427,0.000223916,-0.1723182,0.1323372,-9.741261,0,0,44.86319,1,1,8008,4004
5722,59361915,0,0.0002108674,-0.001292719,0.0004962676,-0.1709426,0.1281269,-9.741803000000001,0,0,44.86332,1,1,8008,4004
5725,59364518,0,-0.000496743,-0.001764357,0.001395013,-0.1681841,0.120715,-9.742246,0,0,44.86351,1,1,8008,4004
5756,59367250,0,-0.000930474,-0.001792593,0.001904572,-0.1654985,0.1169609,-9.742046,0,0,44.86378,1,1,8008,4004
5760,59369682,0,-0.001105645,-0.0007806757,0.001437393,-0.1657494,0.1168089,-9.74084,0,0,44.86392,1,1,8008,4004
5763,59371781,0,-0.0002313908,-0.000982704,0.0006582587,-0.1681512,0.1174483,-9.741384,0,0,44.86417,1,1,8008,4004
5766,59374555,0,0.0002635135,-0.001360894,0.0001796086,-0.1700794,0.117169,-9.745011,0,0,44.86436,1,1,8008,4004
5797,59377691,0,0.0003561593,-0.000179331,-0.0003895105,-0.1703683,0.1172684,-9.751151,0,0,44.86468,1,1,8008,4004
5800,59380251,0,0.0003533742,0.000138924,-0.000483815,-0.1695513,0.1185533,-9.753714,0,0,44.86486,1,1,8008,4004
5803,59381938,0,0.0007812652999999999,0.0001756299,0.0006991912,-0.1676632,0.1211708,-9.756598,0,0,44.86513,1,1,8008,4004
5807,59384317,0,0.0009259419,0.0001724798,0.0009105104,-0.1675407,0.1224385,-9.756842000000001,0,0,44.86524,1,1,8008,4004
5838,59386942,0,0.000311467,-0.0010829,0.0007685807,-0.1691833,0.123478,-9.756380999999999,0,0,44.86539,1,1,8008,4004
5842,59390806,0,-0.0003279746,-0.001424957,0.001338385,-0.1698626,0.1235932,-9.755336,0,0,44.86549,1,1,8008,4004
5845,59392377,0,0.000114469,-0.001630394,0.002019725,-0.1701691,0.1208607,-9.753455000000001,0,0,44.86564,1,1,8008,4004
5849,59394376,0,0.0002842461,-0.001423144,0.001148902,-0.1704524,0.1186251,-9.750394999999999,0,0,44.86574,1,1,8008,4004
5882,59397325,0,-0.0007362642,-0.001663839,6.277612000000001e-05,-0.1735715,0.1167459,-9.745329,0,0,44.86589,1,1,8008,4004
5885,59399734,0,-0.000677504,-0.001450973,-0.0005628261,-0.1746101,0.1153984,-9.743039,0,0,44.86601,1,1,8008,4004
5888,59402710,0,-0.0006726657,-0.001699297,-0.000794825,-0.1740271,0.1145222,-9.739196,0,0,44.8662,1,1,8008,4004
5891,59406995,0,-0.001167824,-0.001120678,0.0004601178,-0.1731243,0.1156133,-9.736189,0,0,44.86645,1,1,8008,4004
5923,59409894,0,-0.001793642,-0.002126062,0.001606774,-0.1740324,0.1184627,-9.736682,0,0,44.8666,1,1,8008,4004
5926,59412166,0,-0.001760923,-0.002136081,0.001887455,-0.1748214,0.1210938,-9.737541,0,0,44.8667,1,1,8008,4004
5929,59415091,0,-0.001107428,-0.002088862,0.001859963,-0.1750438,0.122108,-9.738541,0,0,44.86679,1,1,8008,4004
5932,59417387,0,-0.0003249771,-0.001262223,-0.000207699,-0.1741421,0.1198116,-9.743242,0,0,44.86694,1,1,8008,4004
5963,59419944,0,-0.0001597639,-0.0005490759,-0.001897788,-0.1747116,0.1188846,-9.749769000000001,0,0,44.86709,1,1,8008,4004
5967,59421965,0,0.0002356317,-0.0001328672,-0.002569554,-0.1733767,0.1204572,-9.752863,0,0,44.8672,1,1,8008,4004
5970,59424333,0,0.0002724237,0.0001027439,-0.002819705,-0.1713245,0.1220446,-9.753822,0,0,44.86732,1,1,8008,4004
5973,59427321,0,-0.0002060335,9.166610999999999e-05,-0.00252065,-0.1700766,0.1238667,-9.753493000000001,0,0,44.86748,1,1,8008,4004
6004,59430265,0,-0.00131622,0.0009840176,-0.00169433,-0.169916,0.1252922,-9.755409999999999,0,0,44.86762,1,1,8008,4004
6007,59431576,0,-0.002116433,0.001374398,-0.0009518673,-0.1690994,0.1251608,-9.758168,0,0,44.86771,1,1,8008,4004
6010,59434344,0,-0.002508366,0.001010799,-0.0006877212,-0.1683002,0.124927,-9.759743,0,0,44.86779,1,1,8008,4004
6013,59436940,0,-0.001911703,0.0004890610000000001,-0.0007868031,-0.1680754,0.1239819,-9.758773,0,0,44.86793,1,1,8008,4004
6046,59439872,0,-0.00158507,0.0007694829,-0.0002504869,-0.1676643,0.1239642,-9.758027,0,0,44.868,1,1,8008,4004
6051,59442721,0,-0.001554045,0.001049464,-0.0004948563,-0.1675512,0.1243942,-9.758699999999999,0,0,44.8681,1,1,8008,4004
6054,59444380,0,-0.00122436,0.0009463446,-0.0006556395,-0.1677157,0.1253381,-9.757514,0,0,44.86821,1,1,8008,4004
6057,59446900,0,-0.001160996,0.0001709191,8.064818e-05,-0.1687365,0.1272635,-9.755279,0,0,44.86834,1,1,8008,4004
6088,59449529,0,-0.001175823,0.0005978664,0.0001604405,-0.1689007,0.1279697,-9.754351,0,0,44.86842,1,1,8008,4004
6091,59452305,0,-0.0006587558,0.0003868081,-0.0001521645,-0.1682159,0.1257504,-9.749898999999999,0,0,44.86854,1,1,8008,4004
6094,59454969,0,-0.0003751762,-0.0001031431,-0.0005006152,-0.1674927,0.1227421,-9.744096000000001,0,0,44.86861,1,1,8008,4004
6097,59456947,0,-0.0001975035,0.0002062693,-0.001944926,-0.1677955,0.1188607,-9.739136999999999,0,0,44.86869,1,1,8008,4004
6128,59459304,0,-0.0002904357,0.000925418,-0.002002451,-0.1672982,0.1188086,-9.738182999999999,0,0,44.86876,1,1,8008,4004
6136,59462349,0,0.0002049023,0.0006645006,-0.001506228,-0.1646338,0.1196938,-9.739661,0,0,44.86884,1,1,8008,4004
6139,59465152,0,0.0003989065,0.0003974443,-0.001465307,-0.161168,0.120726,-9.740237,0,0,44.8689,1,1,8008,4004
6142,59467461,0,-1.0455e-06,-0.0006088122,-0.0008139101,-0.1577418,0.1224449,-9.739560000000001,0,0,44.86899,1,1,8008,4004
6173,59470068,0,-0.0002346737,-0.0002912002,-0.001595279,-0.1580764,0.1241518,-9.740857,0,0,44.86908,1,1,8008,4004
6177,59472092,0,-0.0003279319,-8.540089e-05,-0.001842592,-0.1577605,0.1260236,-9.742675999999999,0,0,44.86914,1,1,8008,4004
6180,59475347,0,0.0005421137,0.000517134,-0.0008293511,-0.1559416,0.1283497,-9.747688999999999,0,0,44.8693,1,1,8008,4004
6183,59477873,0,0.0005735276,-0.0001596097,-0.0004233752,-0.1553143,0.1290557,-9.751503,0,0,44.86942,1,1,8008,4004
6214,59479979,0,-0.0001350495,-0.0003517396,-0.0001511579,-0.1545736,0.1279024,-9.755903,0,0,44.86965,1,1,8008,4004
6217,59482718,0,-0.0005618826,3.726688e-05,-0.0005239251,-0.1554945,0.1259559,-9.753868000000001,0,0,44.86975,1,1,8008,4004
6220,59485257,0,-0.000678646,-0.001005145,-0.0009598507,-0.1597477,0.1232122,-9.745480000000001,0,0,44.8699,1,1,8008,4004
6223,59488158,0,-0.0007951048,-0.002276873,-0.001495621,-0.1620293,0.1214986,-9.739998,0,0,44.87005,1,1,8008,4004
6254,59490974,0,0.000262719,-0.001981179,-0.00147695,-0.162349,0.1205068,-9.734089000000001,0,0,44.8702,1,1,8008,4004
6258,59493302,0,-9.013718999999999e-05,-0.001149228,-0.001266219,-0.1618718,0.1218022,-9.732841000000001,0,0,44.87035,1,1,8008,4004
6263,59495678,0,-8.702445e-05,-0.0006731347,-0.001421138,-0.1641308,0.1240808,-9.733542999999999,0,0,44.87051,1,1,8008,4004
6266,59503411,0,-0.0007601217,0.0007500124,-0.0005941938,-0.1650987,0.1220225,-9.745039999999999,0,0,44.87093,1,1,8008,4004
6297,59506113,0,-0.0001545578,0.0004194777,-0.000593834,-0.1633467,0.1211521,-9.746338,0,0,44.87105,1,1,8008,4004
6301,59508524,0,-0.0006066416,0.0002147297,-0.0004036857,-0.1614127,0.1209265,-9.747120000000001,0,0,44.87113,1,1,8008,4004
6304,59511537,0,-0.0007140147,-3.463401e-05,-0.001105048,-0.1578,0.1189387,-9.749863,0,0,44.87124,1,1,8008,4004
6308,59514256,0,-0.0004130623,-0.0004580083,-0.001364243,-0.1565213,0.1170099,-9.751189,0,0,44.87132,1,1,8008,4004
6339,59517023,0,-0.000359965,-0.001212297,-0.001683473,-0.1561432,0.1143476,-9.750635000000001,0,0,44.87149,1,1,8008,4004
6342,59518926,0,-0.001036521,-0.001901044,-0.001271802,-0.1572719,0.1134438,-9.749366999999999,0,0,44.87157,1,1,8008,4004
6345,59521904,0,-0.001585957,-0.001674558,-0.0009577027,-0.1592674,0.1134956,-9.746677,0,0,44.87166,1,1,8008,4004
6348,59524413,0,-0.001385742,-0.001216177,0.0002053439,-0.1624395,0.1144094,-9.741467999999999,0,0,44.8718,1,1,8008,4004
6379,59527297,0,-0.000352183,-0.001369002,0.0005164004,-0.1672081,0.116844,-9.739240000000001,0,0,44.8719,1,1,8008,4004
6383,59529875,0,0.0008809955,-0.001331728,8.918975e-05,-0.1706615,0.1188371,-9.737772,0,0,44.87195,1,1,8008,4004
6386,59532094,0,0.001250234,-0.0009233538,-0.0008219096,-0.173851,0.122987,-9.739100000000001,0,0,44.87202,1,1,8008,4004
6389,59534403,0,0.0008565232000000001,-0.000942795,-0.0006419674,-0.1733866,0.1249059,-9.740341000000001,0,0,44.87207,1,1,8008,4004
6420,59537363,0,7.882633e-05,-0.001175029,-0.000443733,-0.1707886,0.128,-9.739656,0,0,44.87215,1,1,8008,4004
6423,59539980,0,4.831863e-05,-0.0002380514,-0.0002512027,-0.1688011,0.1304262,-9.740223,0,0,44.8722,1,1,8008,4004
6426,59541942,0,-0.0002304923,0.001074654,0.0001880787,-0.1662877,0.133055,-9.743482999999999,0,0,44.87227,1,1,8008,4004
6429,59544351,0,-0.0002129085,0.001516414,0.0001885604,-0.1663384,0.1339927,-9.744206999999999,0,0,44.87232,1,1,8008,4004
6460,59546918,0,-0.0001234597,0.001413236,0.0001971204,-0.1680156,0.1329395,-9.74274,0,0,44.87239,1,1,8008,4004
6465,59550294,0,-0.000658353,0.001242572,-0.0004414654,-0.1683399,0.1317338,-9.740249,0,0,44.87244,1,1,8008,4004
6468,59552381,0,-0.001244234,0.001145058,-0.0007518683,-0.1673192,0.1293837,-9.737106000000001,0,0,44.8725,1,1,8008,4004
6471,59554868,0,-0.001664097,0.0007254068,-0.0003792151,-0.166049,0.1285555,-9.735348999999999,0,0,44.87255,1,1,8008,4004
6502,59556978,0,-0.001551752,7.249872000000001e-05,-7.899334e-05,-0.1638564,0.1283049,-9.730525,0,0,44.87265,1,1,8008,4004
6505,59559616,0,-0.000789396,-0.0002779307,0.0001208587,-0.1619786,0.1283472,-9.726172,0,0,44.87273,1,1,8008,4004
6508,59562370,0,-0.0008623058,-0.0009944225,-0.0002363582,-0.159421,0.1288492,-9.719849,0,0,44.87289,1,1,8008,4004
6515,59565201,0,-0.001204483,-0.001405189,-0.001273276,-0.1602917,0.1295475,-9.718194,0,0,44.87296,1,1,8008,4004
6546,59567729,0,-0.0008291213,-0.001405911,-0.002799644,-0.1644057,0.1309117,-9.719916,0,0,44.87301,1,1,8008,4004
6550,59570118,0,-0.0007037206,-0.0003251881,-0.002289218,-0.1698328,0.1314394,-9.725906,0,0,44.87306,1,1,8008,4004
6553,59572596,0,-0.001755968,-0.0004385457,-0.0009492314,-0.173167,0.1316201,-9.729506000000001,0,0,44.87309,1,1,8008,4004
6556,59575359,0,-0.001857897,-0.001317535,-0.0001890456,-0.1774071,0.1329058,-9.733912,0,0,44.87313,1,1,8008,4004
6587,59578282,0,-0.001254704,-0.001829947,-0.0002367232,-0.1780948,0.1347086,-9.735593,0,0,44.87317,1,1,8008,4004
6591,59580767,0,-0.0007627902,-0.00149947,-0.00101712,-0.1769748,0.1348583,-9.737617999999999,0,0,44.8732,1,1,8008,4004
6594,59582407,0,-0.001191169,-0.001451685,-0.001736213,-0.1759773,0.1347028,-9.738827000000001,0,0,44.87323,1,1,8008,4004
6599,59585394,0,-0.00206433,-0.001259208,-0.001914981,-0.1738373,0.1339243,-9.739594,0,0,44.87328,1,1,8008,4004
6630,59587719,0,-0.001149688,-0.0004303865,-0.002213318,-0.1730696,0.1323143,-9.741083,0,0,44.87334,1,1,8008,4004
6633,59590522,0,-0.0007896096999999999,-0.0001613242,-0.002550697,-0.1714097,0.1305547,-9.743273,0,0,44.87337,1,1,8008,4004
6636,59592616,0,0.0002879588,-0.0004424813,-0.002336772,-0.1702515,0.1284897,-9.745044,0,0,44.8734,1,1,8008,4004
6640,59595262,0,0.0006673202,-0.0007808766,-0.00123122,-0.1711008,0.1257173,-9.745234999999999,0,0,44.87344,1,1,8008,4004
6671,59597967,0,0.0006486855,-0.0009313938,-0.0005526182,-0.1718463,0.1244912,-9.742193,0,0,44.87345,1,1,8008,4004
6675,59600286,0,0.0005331559,-0.001504741,0.0004786418,-0.1726847,0.1254569,-9.738168999999999,0,0,44.87346,1,1,8008,4004
6679,59603322,0,0.0005136572,-0.001844035,0.0004472801,-0.1727024,0.1264843,-9.736898,0,0,44.87347,1,1,8008,4004
6682,59605211,0,0.0004837945,-0.002007427,0.0003375858,-0.1731961,0.1276775,-9.735519999999999,0,0,44.87349,1,1,8008,4004
6713,59607461,0,0.001080587,-0.001061377,-4.19017e-05,-0.1728324,0.128378,-9.733542,0,0,44.87351,1,1,8008,4004
6716,59611247,0,0.001367075,0.0006303777,0.0003867929,-0.171405,0.1282452,-9.731292,0,0,44.87352,1,1,8008,4004
6719,59612601,0,0.001467118,0.0009242755,0.0002480956,-0.1709092,0.1268995,-9.732392000000001,0,0,44.87352,1,1,8008,4004
6722,59617778,0,0.001252061,0.000175997,-0.001424992,-0.1661888,0.1263327,-9.738934,0,0,44.87349,1,1,8008,4004
6754,59620388,0,0.0009933398,0.0001523368,-0.001683065,-0.166538,0.128049,-9.742070999999999,0,0,44.87348,1,1,8008,4004
6757,59624001,0,-0.0001039122,-0.0003360587,-0.000749273,-0.1699525,0.1321411,-9.74653,0,0,44.87347,1,1,8008,4004
6760,59625318,0,-0.0006884569,-0.001346291,-0.0002399027,-0.1727517,0.1342254,-9.747954999999999,0,0,44.87346,1,1,8008,4004
6763,59628550,0,-0.0009902490999999999,-0.002201453,-0.001426875,-0.1775728,0.1358041,-9.745481,0,0,44.87344,1,1,8008,4004
6794,59630975,0,4.912795e-05,-0.002025578,-0.001796382,-0.1826143,0.1360921,-9.740387,0,0,44.87342,1,1,8008,4004
6797,59633735,0,0.001278756,-0.001705598,-0.001492448,-0.1859097,0.1360917,-9.738488,0,0,44.87341,1,1,8008,4004
6800,59636444,0,0.00125969,-0.0008562584,-0.0009995620000000001,-0.1888513,0.1358763,-9.737451,0,0,44.8734,1,1,8008,4004
6803,59638529,0,0.001126858,-0.0004749123,-0.0008190306,-0.1880647,0.1350172,-9.735514,0,0,44.87339,1,1,8008,4004
6834,59641384,0,0.001248074,-0.0005860018,-0.0003646337,-0.1849112,0.134515,-9.732246,0,0,44.87337,1,1,8008,4004
6838,59643623,0,0.001249167,6.949517e-05,-0.0006428495,-0.1829771,0.1351375,-9.731509000000001,0,0,44.87336,1,1,8008,4004
6841,59646156,0,0.001944318,0.0002692709,-0.0009595479,-0.1787872,0.1343929,-9.730937000000001,0,0,44.87335,1,1,8008,4004
6844,59649313,0,0.002142943,-0.0003365078,-0.0005698215,-0.1764722,0.1323446,-9.728300000000001,0,0,44.87334,1,1,8008,4004
6875,59651514,0,0.0012596,-0.001557587,0.0001579425,-0.1756805,0.1291124,-9.727544,0,0,44.87332,1,1,8008,4004
6878,59654556,0,0.001073179,-0.00292325,0.0008798969,-0.174803,0.1259128,-9.726972999999999,0,0,44.87331,1,1,8008,4004
6881,59656543,0,0.001116833,-0.003118663,0.0008726645000000001,-0.1750375,0.1239571,-9.726977,0,0,44.8733,1,1,8008,4004
6884,59659424,0,0.000599299,-0.002661424,0.0004521894,-0.1767427,0.1195851,-9.727421,0,0,44.87328,1,1,8008,4004
6915,59661760,0,0.0004779437,-0.001511238,0.0001755411,-0.1802141,0.1158369,-9.727999000000001,0,0,44.87327,1,1,8008,4004
6918,59664106,0,0.0004522992,-0.0005021139,-0.0007133422,-0.1826446,0.1147215,-9.729205,0,0,44.87326,1,1,8008,4004
6925,59667258,0,0.0009515372,2.247612e-05,-0.0007217192,-0.1836801,0.1139852,-9.728679,0,0,44.87325,1,1,8008,4004
6928,59669355,0,0.002668678,0.0001517861,-0.0001091188,-0.1834777,0.111842,-9.726334,0,0,44.87323,1,1,8008,4004
6959,59672089,0,0.003131061,0.0001616725,0.0008677231,-0.1821378,0.1102328,-9.726129999999999,0,0,44.87322,1,1,8008,4004
6963,59674178,0,0.002702093,-0.0001440204,0.000814581,-0.1821782,0.1100491,-9.728683999999999,0,0,44.87321,1,1,8008,4004
6966,59676485,0,0.002410975,-5.182684e-05,0.0007228036,-0.1823764,0.1114934,-9.731852999999999,0,0,44.8732,1,1,8008,4004
6969,59679671,0,0.001674336,-2.179471e-05,0.0004364897,-0.1816414,0.1160662,-9.73583,0,0,44.87318,1,1,8008,4004
7000,59682381,0,0.0002251317,-0.0005174133,9.25912e-05,-0.1787954,0.119479,-9.739207,0,0,44.87318,1,1,8008,4004
7003,59684562,0,-0.0004937631,-0.0005496177,0.0004667137,-0.1771203,0.1198288,-9.742620000000001,0,0,44.87318,1,1,8008,4004
7006,59687035,0,-0.0002616492,-0.0002203633,0.001037594,-0.1755915,0.1176963,-9.747780000000001,0,0,44.8732,1,1,8008,4004
7009,59690374,0,0.0008072092,0.0006061555,0.0007305298,-0.1739413,0.1166918,-9.748196999999999,0,0,44.87321,1,1,8008,4004
7040,59692727,0,0.0005382069,0.0007086144,0.0004355365,-0.1721925,0.1162337,-9.746048,0,0,44.87326,1,1,8008,4004
7044,59695362,0,0.0004515616,0.001138528,0.0004740212,-0.1725948,0.1163471,-9.742195000000001,0,0,44.87329,1,1,8008,4004
7047,59698113,0,4.454905e-05,0.001035799,0.0004290918,-0.1737357,0.1154923,-9.739954000000001,0,0,44.87332,1,1,8008,4004
7050,59700129,0,-0.0009900766999999999,0.0002916795,-0.0002343181,-0.1730848,0.1159678,-9.739868,0,0,44.87336,1,1,8008,4004
7081,59703893,0,-0.001289244,0.0003552584,-0.0004452986,-0.1713106,0.1173147,-9.740035000000001,0,0,44.87339,1,1,8008,4004
7085,59705112,0,-0.001090006,-0.0002046502,-0.000260816,-0.1697897,0.1196843,-9.735643,0,0,44.87344,1,1,8008,4004
7089,59710312,0,-0.0004419135,-0.0005317092,-0.0002753972,-0.1665508,0.1240239,-9.727608,0,0,44.87351,1,1,8008,4004
7120,59713522,0,-0.001882771,0.000697892,-0.001248218,-0.1648479,0.1260954,-9.724678000000001,0,0,44.87355,1,1,8008,4004
7123,59715468,0,-0.002565423,0.0008850435,-0.001715247,-0.1653998,0.1275017,-9.725614,0,0,44.87361,1,1,8008,4004
7127,59717521,0,-0.002938127,0.000297006,-0.001562726,-0.1670786,0.1284521,-9.728764,0,0,44.87371,1,1,8008,4004
7130,59720143,0,-0.001806636,-0.000671181,-0.001022296,-0.1687252,0.1295278,-9.734885999999999,0,0,44.87388,1,1,8008,4004
7161,59723129,0,-0.001309523,-0.0006267458,-0.0004294783,-0.1686757,0.1308034,-9.739779,0,0,44.87398,1,1,8008,4004
7165,59725556,0,-0.001370167,-0.0004563102,0.0008489765,-0.1682124,0.1340634,-9.745987,0,0,44.8742,1,1,8008,4004
7168,59727493,0,-0.001098868,-0.0004925097,0.001581512,-0.1691207,0.1364751,-9.748267,0,0,44.87428,1,1,8008,4004
7171,59730411,0,-0.000272438,-0.001845314,0.001227968,-0.170168,0.140627,-9.749688000000001,0,0,44.8744,1,1,8008,4004
7202,59733035,0,0.0003191909,-0.002436185,0.001517936,-0.1718038,0.1437065,-9.751732000000001,0,0,44.87452,1,1,8008,4004
7205,59735358,0,0.0003925954,-0.00189913,0.001020123,-0.1731261,0.1437817,-9.754452000000001,0,0,44.8746,1,1,8008,4004
7208,59738373,0,-0.0006224354,-0.000665909,-0.0004858195,-0.1715419,0.1429936,-9.758373000000001,0,0,44.87472,1,1,8008,4004
7211,59740488,0,-0.001474464,6.88388e-05,-0.0009957125999999999,-0.1701135,0.1425537,-9.761708,0,0,44.87481,1,1,8008,4004
7242,59742746,0,-0.001860506,0.0002437216,-0.0005300326,-0.1681205,0.1422367,-9.763005,0,0,44.87495,1,1,8008,4004
7246,59745901,0,-0.002192222,-4.888051e-05,0.0006784067,-0.1679206,0.1402795,-9.760605999999999,0,0,44.87505,1,1,8008,4004
7249,59747760,0,-0.002181638,-0.0003896016,0.001306383,-0.169953,0.1355274,-9.755205,0,0,44.87515,1,1,8008,4004
7252,59750539,0,-0.002287074,-0.001251688,0.0006157595,-0.1722295,0.1331638,-9.7524,0,0,44.8752,1,1,8008,4004
7283,59753363,0,-0.001920175,-0.001414099,4.410436e-06,-0.1752107,0.1318232,-9.747334,0,0,44.87527,1,1,8008,4004
7287,59755391,0,-0.001368502,-0.0009165111,8.649531e-05,-0.1756585,0.1304892,-9.74497,0,0,44.87531,1,1,8008,4004
7290,59758296,0,-0.001376829,-0.0001859259,-0.0007488125,-0.1742634,0.1308128,-9.746437,0,0,44.87537,1,1,8008,4004
7293,59760587,0,-0.00114548,0.0003738791,-0.0007176699,-0.1724626,0.132812,-9.74807,0,0,44.8754,1,1,8008,4004
7324,59762947,0,-0.001723689,0.001395546,-7.430415e-05,-0.1697318,0.1355311,-9.749658999999999,0,0,44.87547,1,1,8008,4004
7328,59765979,0,-0.001703212,0.002227495,-9.569245e-05,-0.1683273,0.1373182,-9.752007000000001,0,0,44.8755,1,1,8008,4004
7335,59768784,0,-0.0008675999,0.002235353,-0.000904906,-0.1682185,0.1390878,-9.754555,0,0,44.87556,1,1,8008,4004
7338,59770285,0,-0.000419972,0.0015798,-0.001445341,-0.1687433,0.1385214,-9.75469,0,0,44.8756,1,1,8008,4004
7369,59772959,0,-0.0004487024,-0.0008079789,-0.001774289,-0.1712594,0.135295,-9.756003,0,0,44.87566,1,1,8008,4004
7373,59775415,0,0.0001487391,-0.001447964,-0.001713026,-0.174037,0.133135,-9.75709,0,0,44.8757,1,1,8008,4004
7376,59778407,0,0.0008248737,-0.001187753,-0.001584282,-0.1766714,0.1322381,-9.761077999999999,0,0,44.87574,1,1,8008,4004
7379,59780940,0,0.001146812,-0.001254017,-0.001104781,-0.1767462,0.1332597,-9.766036,0,0,44.87576,1,1,8008,4004
7410,59783438,0,0.001559693,-0.001269603,-0.0004875241,-0.1753722,0.1333791,-9.772311,0,0,44.87579,1,1,8008,4004
7413,59785636,0,0.001721577,-0.001177236,-0.0007918513,-0.1738762,0.1326801,-9.775188,0,0,44.87582,1,1,8008,4004
7416,59787767,0,0.001661133,-0.0004139022,-0.00166557,-0.1719166,0.1299766,-9.776747,0,0,44.87592,1,1,8008,4004
7421,59791256,0,0.001933821,-0.0003784795,-0.001999502,-0.1707018,0.1284041,-9.776795999999999,0,0,44.87598,1,1,8008,4004
7453,59793956,0,0.002445656,-0.0008051232,-0.001448813,-0.1682547,0.1270494,-9.771811,0,0,44.87608,1,1,8008,4004
7457,59795937,0,0.002603921,-0.0008246299,-0.0009330313,-0.1657746,0.1274917,-9.762465000000001,0,0,44.87616,1,1,8008,4004
7461,59798296,0,0.001681906,-0.0007381174,-0.001364605,-0.1651133,0.1283122,-9.756525,0,0,44.87618,1,1,8008,4004
7464,59801537,0,0.0007176328,-0.001164013,-0.001147338,-0.1669307,0.1276755,-9.750703,0,0,44.87621,1,1,8008,4004
7495,59805126,0,0.0007396411,-0.00149802,-0.0009438694,-0.1683452,0.1235554,-9.747489,0,0,44.87618,1,1,8008,4004
7498,59806426,0,0.001134458,-0.0008151237,-2.19066e-06,-0.1678574,0.1202886,-9.747256999999999,0,0,44.87614,1,1,8008,4004
7501,59809117,0,0.001480328,-6.101724e-05,0.0005876184,-0.1670199,0.1174011,-9.745514999999999,0,0,44.87603,1,1,8008,4004
7505,59811418,0,0.001178909,-2.039374e-05,1.179378e-05,-0.1650254,0.1162218,-9.745092,0,0,44.87598,1,1,8008,4004
7536,59817248,0,0.0003246841,0.0002229055,-0.0005442945,-0.1594179,0.1162108,-9.746752000000001,0,0,44.87589,1,1,8008,4004
7540,59818793,0,0.001820569,-0.0002197251,-0.0001194858,-0.1590066,0.1178354,-9.74926,0,0,44.87587,1,1,8008,4004
7543,59821431,0,0.003009858,-0.000810175,0.0001123086,-0.1607413,0.1189975,-9.751789,0,0,44.87588,1,1,8008,4004
7574,59823879,0,0.003175695,-0.001575497,8.010928999999999e-05,-0.163199,0.121295,-9.754918999999999,0,0,44.87595,1,1,8008,4004
7577,59826788,0,0.003054115,-0.001131849,-0.0004272402,-0.1648334,0.1219486,-9.753895,0,0,44.87598,1,1,8008,4004
7581,59829581,0,0.002464849,-0.0009321184,-0.001156576,-0.1665503,0.1211479,-9.747301,0,0,44.87605,1,1,8008,4004
7584,59831293,0,0.001796977,-0.0009533223,-0.001029458,-0.1676716,0.120278,-9.743137000000001,0,0,44.87607,1,1,8008,4004
7615,59833959,0,0.0007594798,-0.0009934290000000001,-0.001050824,-0.1697313,0.1190358,-9.738490000000001,0,0,44.87613,1,1,8008,4004
7618,59836520,0,0.001096057,-0.0007098244,-0.001480952,-0.1707022,0.1171362,-9.737897,0,0,44.87618,1,1,8008,4004
7621,59839280,0,0.002465564,-0.0005518391,-0.001985947,-0.1704686,0.1146885,-9.738110000000001,0,0,44.87625,1,1,8008,4004
7624,59841978,0,0.002375679,-0.0006600184,-0.002273463,-0.1705578,0.1145136,-9.739717000000001,0,0,44.87626,1,1,8008,4004
7655,59844301,0,0.002257612,-0.0008572126,-0.001588049,-0.1696628,0.1151059,-9.744388000000001,0,0,44.87624,1,1,8008,4004
7659,59846599,0,0.001944101,3.246992e-05,-0.0002347677,-0.1693199,0.11517,-9.748545999999999,0,0,44.87621,1,1,8008,4004
7663,59849076,0,0.002026353,-0.0003857776,0.0004346781,-0.1702573,0.1154179,-9.747698,0,0,44.87617,1,1,8008,4004
7667,59852260,0,0.001360318,-0.0002941854,0.001405829,-0.1739794,0.1167287,-9.741135999999999,0,0,44.87609,1,1,8008,4004
7698,59855092,0,0.0008049133,0.0004328491,0.0014267,-0.1797739,0.1175757,-9.737081999999999,0,0,44.876,1,1,8008,4004
7701,59857095,0,0.0008000383,0.0007050089,0.001480085,-0.1848912,0.1177875,-9.737437,0,0,44.87596,1,1,8008,4004
7704,59859777,0,0.001077052,0.0001193735,0.001759563,-0.1880692,0.118369,-9.738859,0,0,44.87593,1,1,8008,4004
7707,59861955,0,0.001057837,-0.0003427092,0.001954582,-0.1883395,0.1180608,-9.738273,0,0,44.87593,1,1,8008,4004
7738,59864996,0,0.000481129,-0.0007793855,0.00150558,-0.1871535,0.1172717,-9.736414,0,0,44.87593,1,1,8008,4004
7741,59867403,0,-0.001284708,-0.0008193873,0.001193332,-0.1851551,0.1154644,-9.733566,0,0,44.87595,1,1,8008,4004
7749,59870130,0,-0.002046528,-0.0009364742,0.001377739,-0.1834257,0.1148201,-9.733563999999999,0,0,44.87596,1,1,8008,4004
7752,59871941,0,-0.001364941,-0.001344032,0.0009381219,-0.1810163,0.1153823,-9.734047,0,0,44.87599,1,1,8008,4004
7783,59874943,0,-0.0005609656,-0.001631739,0.0004548848,-0.1796973,0.1166321,-9.733523999999999,0,0,44.87603,1,1,8008,4004
7786,59877563,0,-0.0007810197,-0.001820028,0.0008283642,-0.1784894,0.1183399,-9.732199,0,0,44.87612,1,1,8008,4004
7790,59880088,0,-0.0009468712999999999,-0.001490364,0.0006063342,-0.1780745,0.1203552,-9.731719,0,0,44.87617,1,1,8008,4004
7793,59882262,0,-6.359737000000001e-05,-0.0005490949,0.0003536361,-0.1778904,0.1244017,-9.734064,0,0,44.87624,1,1,8008,4004
7824,59884474,0,0.0004036654,-0.0007413375,0.0008049393,-0.1786795,0.1262467,-9.736798,0,0,44.87629,1,1,8008,4004
7827,59886994,0,-0.0007408974,-0.0007612934,0.001227551,-0.1812835,0.1294065,-9.742089999999999,0,0,44.87634,1,1,8008,4004
7830,59890474,0,-0.001929322,-0.000370235,0.0002119414,-0.1830912,0.131554,-9.746231999999999,0,0,44.87635,1,1,8008,4004
7833,59892381,0,-0.003637798,-0.0003891476,-0.0001490729,-0.1822658,0.1348375,-9.749522000000001,0,0,44.87637,1,1,8008,4004
7864,59894764,0,-0.00410551,-0.0005218865,0.0002970025,-0.1792436,0.137798,-9.751358,0,0,44.87638,1,1,8008,4004
7867,59897287,0,-0.003699226,-0.001066105,4.729202e-05,-0.1765122,0.1385454,-9.752013,0,0,44.87639,1,1,8008,4004
7871,59900003,0,-0.003174446,-0.001367814,0.0001975173,-0.1730179,0.1378113,-9.752129999999999,0,0,44.8764,1,1,8008,4004
7874,59902389,0,-0.003316653,-0.00124813,7.699164e-05,-0.167724,0.136183,-9.755413000000001,0,0,44.87642,1,1,8008,4004
7905,59905896,0,-0.003244666,-0.0006084811000000001,-0.0008627623,-0.1641123,0.1317031,-9.760066999999999,0,0,44.87644,1,1,8008,4004
7908,59907166,0,-0.00283811,-0.0005818506,-0.001103121,-0.1624106,0.1290498,-9.761125,0,0,44.87645,1,1,8008,4004
7911,59910000,0,-0.00211626,-0.0003864756,-0.001248993,-0.1607258,0.1281839,-9.760111,0,0,44.87646,1,1,8008,4004
7914,59911981,0,-0.001400191,0.0002173346,-0.001337511,-0.1583734,0.1266349,-9.753275,0,0,44.87648,1,1,8008,4004
7945,59917936,0,-0.003295667,0.0003656618,0.0005808533,-0.160584,0.1200691,-9.736674000000001,0,0,44.8765,1,1,8008,4004
7949,59919918,0,-0.003562867,0.0008005401,0.0009933492,-0.1648414,0.1182534,-9.730729999999999,0,0,44.87651,1,1,8008,4004
7953,59922041,0,-0.002656993,0.0005027573,0.0009509717999999999,-0.1718293,0.1177311,-9.723929,0,0,44.87653,1,1,8008,4004
7984,59924470,0,-0.002070926,5.275377e-05,0.0006117583,-0.1750956,0.1179729,-9.723084,0,0,44.87655,1,1,8008,4004
7987,59927532,0,-0.001557871,0.0004436208,-0.001344774,-0.1775659,0.119094,-9.723755000000001,0,0,44.87659,1,1,8008,4004
7990,59929919,0,-0.001323811,-0.001090845,-0.002768768,-0.1782067,0.1190694,-9.724271,0,0,44.87665,1,1,8008,4004
7994,59932528,0,-0.001617546,-0.002275503,-0.002432259,-0.1761995,0.1194517,-9.727122,0,0,44.87676,1,1,8008,4004
8027,59935030,0,-0.002167819,-0.002226476,-0.0007475376,-0.1736971,0.1224355,-9.731875,0,0,44.87691,1,1,8008,4004
8030,59937356,0,-0.002394371,-0.001549202,-0.0001486604,-0.1724549,0.1255132,-9.734613,0,0,44.87701,1,1,8008,4004
8034,59940398,0,-0.001737024,-0.001221874,-0.0008246264,-0.1688388,0.1311223,-9.736521,0,0,44.87717,1,1,8008,4004
8037,59942993,0,-0.0007607774000000001,-0.001688308,-0.001363209,-0.1664396,0.1345014,-9.737299999999999,0,0,44.87729,1,1,8008,4004
8068,59945747,0,0.0009767078999999999,-0.001190883,-0.001588121,-0.1633955,0.1380176,-9.740596999999999,0,0,44.87744,1,1,8008,4004
8071,59947956,0,0.0002429814,-5.299387e-05,-0.0004266251,-0.15974,0.1373895,-9.745748000000001,0,0,44.87757,1,1,8008,4004
8074,59950418,0,-0.0004955566,0.0001450941,0.0001257378,-0.1580161,0.1358129,-9.749150999999999,0,0,44.87766,1,1,8008,4004
8077,59953397,0,-0.00127702,0.0003074792,0.0005377517,-0.1555294,0.1317124,-9.752578,0,0,44.87784,1,1,8008,4004
8109,59956278,0,-0.001454357,7.667549e-07,-0.0001000524,-0.1542986,0.12951,-9.754783,0,0,44.87797,1,1,8008,4004
8112,59958290,0,-0.0009976989999999999,-0.0002458258,-0.001031549,-0.1549352,0.1303845,-9.756137000000001,0,0,44.87806,1,1,8008,4004
8116,59960933,0,0.0002312071,2.683317e-05,-0.001082252,-0.1573946,0.1341882,-9.753617999999999,0,0,44.87821,1,1,8008,4004
8119,59963523,0,0.000637489,0.0009200577,-0.000832936,-0.1593021,0.1368458,-9.750379000000001,0,0,44.8783,1,1,8008,4004
8150,59966502,0,0.0008827301,0.001171075,-0.0006583327,-0.1596013,0.1392352,-9.743752000000001,0,0,44.87848,1,1,8008,4004
8153,59969025,0,0.0008064694,0.0009288935,-0.0008522806,-0.1590318,0.1392825,-9.73969,0,0,44.87859,1,1,8008,4004
8161,59971258,0,0.001475821,0.0009194127,0.0002091183,-0.1603136,0.1391638,-9.735264000000001,0,0,44.87874,1,1,8008,4004
8166,59973375,0,0.002033885,0.0008693244,0.001431277,-0.1619086,0.139276,-9.73292,0,0,44.87884,1,1,8008,4004
8197,59975998,0,0.00194033,6.94733e-05,0.001832737,-0.1640725,0.1400681,-9.729023,0,0,44.87899,1,1,8008,4004
8200,59978786,0,0.0009597981999999999,0.0002723345,0.001293413,-0.1650848,0.1399606,-9.727074999999999,0,0,44.87909,1,1,8008,4004
8204,59981367,0,0.001537464,-0.0001191584,-0.0004830461,-0.167411,0.138843,-9.72832,0,0,44.87924,1,1,8008,4004
8207,59983364,0,0.002098565,-0.0001984573,-0.001177155,-0.1678482,0.1371156,-9.728935999999999,0,0,44.87936,1,1,8008,4004
8238,59985923,0,0.002925029,0.0005003514,-0.001687177,-0.1682483,0.1338958,-9.730517000000001,0,0,44.87953,1,1,8008,4004
8241,59988389,0,0.003289546,-5.188279e-05,-0.001703281,-0.1687405,0.1315495,-9.732352000000001,0,0,44.87963,1,1,8008,4004
8245,59991362,0,0.003107226,-0.001201387,-0.00133577,-0.1690417,0.1281289,-9.736362,0,0,44.87976,1,1,8008,4004
8250,59994303,0,0.00271464,-0.001710473,-0.0008135052,-0.1682637,0.1267338,-9.737598999999999,0,0,44.87984,1,1,8008,4004
8281,59996763,0,0.002362752,-0.001566786,-0.001250002,-0.1686231,0.1260326,-9.735643,0,0,44.87996,1,1,8008,4004
8284,59998759,0,0.002825969,-0.0005458391,-0.001403215,-0.1695183,0.1279321,-9.732608000000001,0,0,44.88007,1,1,8008,4004
8287,60001586,0,0.002735319,-0.0006307245,-0.001274385,-0.1700873,0.1298907,-9.730568999999999,0,0,44.88015,1,1,8008,4004
8290,60004531,0,0.001429421,-0.001027315,-0.0002982704,-0.1713998,0.1323853,-9.731968,0,0,44.88027,1,1,8008,4004
8321,60007282,0,-7.598028999999999e-05,-0.0006191442,0.0005110409,-0.1713089,0.1327215,-9.736516,0,0,44.88042,1,1,8008,4004
8324,60009942,0,-0.0005472954,-0.001107631,0.00060473,-0.1707138,0.1303048,-9.741965,0,0,44.88054,1,1,8008,4004
8328,60012166,0,0.0007669909,-0.001804608,0.00120806,-0.1696589,0.1271626,-9.749470000000001,0,0,44.88074,1,1,8008,4004
8331,60014493,0,0.001447382,-0.001652799,0.001272826,-0.1671878,0.1258566,-9.754828,0,0,44.88082,1,1,8008,4004
8362,60018418,0,0.001876156,-0.000685153,0.001733892,-0.1618863,0.1257442,-9.762198,0,0,44.88092,1,1,8008,4004
8365,60022364,0,0.001360771,0.0001950537,0.002016179,-0.1605456,0.1239738,-9.772088999999999,0,0,44.8811,1,1,8008,4004
8369,60024975,0,0.001296668,3.149456e-06,0.0007978525,-0.1595626,0.1203739,-9.773987999999999,0,0,44.8812,1,1,8008,4004
8400,60027376,0,0.00115252,-0.0003114069,-2.57715e-05,-0.1588274,0.1186591,-9.774727,0,0,44.88126,1,1,8008,4004
8403,60030715,0,0.0009992184,-0.0005404184,-0.0004849949,-0.158432,0.1149899,-9.775995999999999,0,0,44.88137,1,1,8008,4004
8406,60032513,0,0.000402845,-0.0009579022,-0.000651259,-0.1592886,0.1139799,-9.773038,0,0,44.88145,1,1,8008,4004
8411,60035379,0,-0.0001854743,-0.001105272,-0.0002632969,-0.1592469,0.1152423,-9.762667,0,0,44.88158,1,1,8008,4004
8442,60038274,0,9.29113e-05,-0.0006571097,-0.0007564558,-0.1588729,0.1165894,-9.755784,0,0,44.88168,1,1,8008,4004
8445,60040163,0,0.0006250914,5.598341e-05,-0.001684621,-0.1592294,0.1172068,-9.752941,0,0,44.88176,1,1,8008,4004
8448,60042973,0,0.0006311638,0.0005275765,-0.00194622,-0.160753,0.1182331,-9.750507000000001,0,0,44.88178,1,1,8008,4004
8452,60044964,0,0.0001769504,-5.4758e-05,-0.0005899399,-0.1644544,0.1185295,-9.748533,0,0,44.88178,1,1,8008,4004
8483,60047921,0,-0.000377006,-0.001030671,-0.000246825,-0.1664595,0.1170471,-9.747446999999999,0,0,44.88176,1,1,8008,4004
8486,60050128,0,-0.001271912,-0.001852067,1.594997e-05,-0.1693432,0.1144538,-9.745914000000001,0,0,44.88171,1,1,8008,4004
8489,60052541,0,-0.001522387,-0.001499144,0.000176901,-0.1712987,0.1138482,-9.745400999999999,0,0,44.88166,1,1,8008,4004
8492,60055533,0,-0.002522271,-0.00151469,0.0004900976,-0.1725399,0.1136354,-9.744412000000001,0,0,44.88156,1,1,8008,4004
8523,60057968,0,-0.00394309,-0.001169308,0.0002408018,-0.1729922,0.1134371,-9.743351000000001,0,0,44.88147,1,1,8008,4004
8526,60060409,0,-0.004369599,-0.0007471706,-2.5877e-05,-0.1733097,0.1132334,-9.743907,0,0,44.8814,1,1,8008,4004
8529,60062574,0,-0.004125151,-0.0007299704,4.802372e-05,-0.1735817,0.1121109,-9.744228,0,0,44.88137,1,1,8008,4004
8533,60065165,0,-0.003608913,-0.00012827,0.000150432,-0.1735747,0.1103237,-9.747496999999999,0,0,44.88139,1,1,8008,4004
8564,60067873,0,-0.003329827,0.0001632282,-0.0001495043,-0.1736297,0.1102912,-9.750107,0,0,44.88142,1,1,8008,4004
8567,60070131,0,-0.002808933,-0.0002763949,-0.0003868073,-0.1748219,0.1124763,-9.752508000000001,0,0,44.88149,1,1,8008,4004
8574,60072950,0,-0.003301181,-0.0006627042,-0.00059785,-0.1754038,0.1149654,-9.752765,0,0,44.88156,1,1,8008,4004
8578,60075747,0,-0.003371728,-0.0007423113,-0.0006155364,-0.1758124,0.1201548,-9.753544,0,0,44.8817,1,1,8008,4004
8609,60078310,0,-0.002932783,-0.00161771,-0.0007686451,-0.1742401,0.1246384,-9.7545,0,0,44.8818,1,1,8008,4004
8612,60080800,0,-0.003408779,-0.001874865,-0.0008837599,-0.1741501,0.1265728,-9.753525,0,0,44.88184,1,1,8008,4004
8615,60083095,0,-0.003958118,-0.0009353111,-0.001170222,-0.1741294,0.1278345,-9.749556,0,0,44.88187,1,1,8008,4004
8619,60085601,0,-0.004334925,-0.0008772326,-0.001311895,-0.1738356,0.1281673,-9.747363999999999,0,0,44.88187,1,1,8008,4004
8650,60088515,0,-0.004435885,-2.96847e-05,-0.0003597366,-0.1728356,0.129546,-9.746620999999999,0,0,44.88183,1,1,8008,4004
8653,60091304,0,-0.004309302,0.0002375768,1.613349e-06,-0.1723587,0.129654,-9.747025000000001,0,0,44.88177,1,1,8008,4004
8656,60092913,0,-0.004603303,0.0002378773,-0.0002694713,-0.1729156,0.1273418,-9.749962,0,0,44.88166,1,1,8008,4004
8660,60095572,0,-0.004900208,-0.0002686117,-0.0008777584,-0.1730611,0.1248498,-9.752916000000001,0,0,44.88161,1,1,8008,4004
8691,60097971,0,-0.004682774,-0.0004123287,-0.001527353,-0.1728984,0.1203593,-9.757782000000001,0,0,44.88152,1,1,8008,4004
8694,60101005,0,-0.004094773,0.0005053559,-0.001945769,-0.1724514,0.1186636,-9.760638,0,0,44.88149,1,1,8008,4004
8697,60103437,0,-0.003662148,0.0007407613,-0.001466722,-0.172957,0.1174138,-9.765307,0,0,44.88147,1,1,8008,4004
8700,60106140,0,-0.003664437,-0.0003180601,-0.0002057384,-0.1744452,0.1180337,-9.767299,0,0,44.88149,1,1,8008,4004
8731,60108344,0,-0.003883712,-2.684935e-05,0.0007072543,-0.1785745,0.1211037,-9.767974000000001,0,0,44.8815,1,1,8008,4004
8734,60110985,0,-0.00259942,-0.0004910055,0.000839531,-0.1831929,0.1253356,-9.767073999999999,0,0,44.88152,1,1,8008,4004
8737,60114922,0,-0.001805021,-0.0004560883,0.001145751,-0.1863796,0.128675,-9.766966999999999,0,0,44.88154,1,1,8008,4004
8740,60117664,0,-0.00138612,-0.0005039179,0.0004930616,-0.1885287,0.1316377,-9.765252,0,0,44.88157,1,1,8008,4004
8743,60118803,0,-0.001018158,-0.001319316,-0.000424858,-0.1900778,0.1325861,-9.762183,0,0,44.8816,1,1,8008,4004
8775,60121472,0,-0.0006986312,-0.001690753,-0.0007908206,-0.1900643,0.13417,-9.761373000000001,0,0,44.88161,1,1,8008,4004
8778,60125159,0,-0.0001767765,-0.001623001,-0.002086287,-0.1876914,0.1371609,-9.762115,0,0,44.8816,1,1,8008,4004
8781,60126301,0,-3.204338e-05,-0.001213742,-0.002690124,-0.1850672,0.1379468,-9.761523,0,0,44.88159,1,1,8008,4004
8784,60129440,0,0.001184928,-0.001753095,-0.002875752,-0.1808454,0.1394816,-9.755579000000001,0,0,44.88157,1,1,8008,4004
8815,60131763,0,0.001270928,-0.002902161,-0.00271023,-0.1762663,0.1398191,-9.74807,0,0,44.88148,1,1,8008,4004
8820,60134308,0,0.0009484426,-0.002623289,-0.002166365,-0.173496,0.1385454,-9.743728000000001,0,0,44.88145,1,1,8008,4004
8824,60137290,0,0.0007618647,-0.001519681,-0.001960333,-0.1701095,0.1358602,-9.741299,0,0,44.8814,1,1,8008,4004
8827,60139160,0,0.0006714473,-0.001073153,-0.001528233,-0.1693981,0.132294,-9.742290000000001,0,0,44.88139,1,1,8008,4004
8858,60142338,0,0.001628097,-0.000555644,-0.0009669018,-0.1697819,0.1252217,-9.743690000000001,0,0,44.88144,1,1,8008,4004
8861,60144306,0,0.002259549,-2.401627e-05,-0.00116754,-0.1717763,0.1214361,-9.745834,0,0,44.88149,1,1,8008,4004
8864,60147019,0,0.002692489,0.0001048426,-0.001150742,-0.1767972,0.1182813,-9.749653,0,0,44.88161,1,1,8008,4004
8867,60149988,0,0.003556764,0.0002644858,-0.00064998,-0.1801491,0.1176078,-9.750745,0,0,44.88166,1,1,8008,4004
8898,60152303,0,0.003917278,0.0002299348,-0.0006678583,-0.1838178,0.1162731,-9.749017,0,0,44.88174,1,1,8008,4004
8902,60155503,0,0.003753894,0.0001127269,-0.0004959977,-0.185288,0.117667,-9.746619000000001,0,0,44.88176,1,1,8008,4004
8905,60157297,0,0.003390149,-0.0002873867,-0.0002289165,-0.1857882,0.1207922,-9.746259999999999,0,0,44.88176,1,1,8008,4004
8908,60159961,0,0.00262495,-0.0002672022,0.0001345396,-0.185504,0.1246895,-9.746264999999999,0,0,44.88173,1,1,8008,4004
8939,60162789,0,0.002896523,-2.358065e-05,-0.0001250249,-0.1852626,0.1258642,-9.746052000000001,0,0,44.8817,1,1,8008,4004
8942,60164937,0,0.004292656,0.0008624236,-0.0006449991,-0.1837983,0.1269225,-9.744263,0,0,44.88165,1,1,8008,4004
8945,60167789,0,0.004609057,0.001004906,-0.001192373,-0.1821258,0.1275012,-9.742549,0,0,44.88158,1,1,8008,4004
8948,60170163,0,0.003406161,0.0008215157,-0.00158905,-0.1782644,0.1284426,-9.738282999999999,0,0,44.88156,1,1,8008,4004
8979,60172357,0,0.003178607,0.000276475,-0.001886321,-0.1750793,0.1283047,-9.736799,0,0,44.88157,1,1,8008,4004
8987,60175948,0,0.004456797,-0.0003943917,-0.00205187,-0.1737871,0.1285167,-9.736846,0,0,44.8816,1,1,8008,4004
8990,60177151,0,0.004863213,-0.0004397239,-0.002510462,-0.1738724,0.1301513,-9.736846999999999,0,0,44.88166,1,1,8008,4004
8995,60180314,0,0.004543512,-0.0009293847,-0.00202274,-0.1738592,0.131379,-9.738697,0,0,44.88171,1,1,8008,4004
9026,60183118,0,0.003830221,-0.002029855,-0.0005337194,-0.1745532,0.1291172,-9.741185,0,0,44.88171,1,1,8008,4004
9030,60185879,0,0.003818246,-0.001390093,-6.398172000000001e-05,-0.1749934,0.1272749,-9.741966,0,0,44.8817,1,1,8008,4004
9034,60187717,0,0.002487925,-0.0001524179,0.0007674579,-0.1752027,0.1222896,-9.744194999999999,0,0,44.88164,1,1,8008,4004
9037,60190337,0,0.002761109,-7.627123e-05,0.001435729,-0.1763399,0.1192123,-9.745982,0,0,44.88157,1,1,8008,4004
9068,60193045,0,0.002518173,0.0005107258,0.002092417,-0.1776074,0.1162449,-9.748177999999999,0,0,44.88146,1,1,8008,4004
9071,60195955,0,0.001751403,0.0008098259,0.00222651,-0.1765242,0.1150221,-9.750381000000001,0,0,44.88138,1,1,8008,4004
9074,60198262,0,0.000795993,0.0006573233,0.002193594,-0.1736119,0.1118581,-9.752014000000001,0,0,44.88127,1,1,8008,4004
9077,60200336,0,0.0006366582,0.0007146789,0.001939582,-0.1718177,0.1094715,-9.752230000000001,0,0,44.88122,1,1,8008,4004
9108,60202551,0,0.0001569656,0.001010776,0.0005278814,-0.1691847,0.108017,-9.752901,0,0,44.88115,1,1,8008,4004
9112,60205282,0,-0.0005245006,0.001101944,-0.0008084023000000001,-0.1687014,0.1074739,-9.752319999999999,0,0,44.8811,1,1,8008,4004
9115,60208140,0,-0.001012464,0.0005444528,-0.001373593,-0.1697263,0.107411,-9.749219999999999,0,0,44.881,1,1,8008,4004
9118,60210885,0,-0.0007659504,0.001096292,-0.00139657,-0.1705916,0.1068694,-9.744393000000001,0,0,44.88092,1,1,8008,4004
9149,60214288,0,-0.0007027417999999999,0.001607287,-0.001052332,-0.1719831,0.1057417,-9.738887999999999,0,0,44.88081,1,1,8008,4004
9152,60215868,0,-0.0005712976,0.0005587399,-0.0004431725,-0.1739103,0.1062102,-9.737778,0,0,44.8807,1,1,8008,4004
9155,60218254,0,-0.001332864,-0.0005466535,0.0004819085,-0.176079,0.1075171,-9.738257000000001,0,0,44.88062,1,1,8008,4004
9158,60220723,0,-0.002289404,-0.0007801631,0.0009486941,-0.1795374,0.1088315,-9.738733999999999,0,0,44.88052,1,1,8008,4004
9189,60224351,0,-0.002826026,-0.0005262019,0.0007845738000000001,-0.1847336,0.109916,-9.738545,0,0,44.88034,1,1,8008,4004
9193,60226398,0,-0.00300561,-0.0003729961,0.0002678813,-0.1852174,0.1086285,-9.73799,0,0,44.88015,1,1,8008,4004
9196,60228030,0,-0.002867769,-0.0007267695,-1.099753e-05,-0.1838873,0.1073143,-9.737541,0,0,44.88005,1,1,8008,4004
9199,60230756,0,-0.003705884,-0.0006695091999999999,-2.140818e-05,-0.180964,0.1068463,-9.737054000000001,0,0,44.87995,1,1,8008,4004
9230,60233000,0,-0.004892985,-0.0007196107,-0.0004962196,-0.17834,0.1070752,-9.734576000000001,0,0,44.8798,1,1,8008,4004
9233,60236380,0,-0.005052746,-0.0003806065,-0.0009143014,-0.1751672,0.1079071,-9.732265999999999,0,0,44.87971,1,1,8008,4004
9237,60238656,0,-0.004257169,-0.0007538804,-0.0009710354,-0.1695293,0.1115942,-9.731794000000001,0,0,44.87955,1,1,8008,4004
9240,60240924,0,-0.004073641,-0.001939281,-0.001284429,-0.1654171,0.1142262,-9.731875,0,0,44.87937,1,1,8008,4004
9271,60243025,0,-0.00432694,-0.002254225,-0.001266907,-0.1610661,0.1167964,-9.735033,0,0,44.87918,1,1,8008,4004
9275,60245633,0,-0.00450292,-0.001164046,-0.0008908832,-0.1617292,0.1161918,-9.737791,0,0,44.87912,1,1,8008,4004
9278,60248553,0,-0.004502859,-0.0004259182,-0.000118401,-0.1631772,0.1150145,-9.741256,0,0,44.87906,1,1,8008,4004
9281,60250960,0,-0.004167427,-0.0004247348,0.0009311833,-0.1648985,0.1139762,-9.745533,0,0,44.879,1,1,8008,4004
9312,60253540,0,-0.003621422,-0.0007609671,0.0009480975,-0.1657075,0.1130493,-9.749981999999999,0,0,44.87894,1,1,8008,4004
9316,60255917,0,-0.002894604,-0.001277474,-0.000702284,-0.1634053,0.1146786,-9.750871,0,0,44.8789,1,1,8008,4004
9320,60258036,0,-0.003245231,-0.001218714,-0.002462246,-0.1621072,0.1168064,-9.750748,0,0,44.87884,1,1,8008,4004
9323,60261383,0,-0.003844667,-0.0002205731,-0.003577207,-0.1619656,0.1195974,-9.751576999999999,0,0,44.87878,1,1,8008,4004
9354,60263726,0,-0.004095266,0.0007630284,-0.003484828,-0.1622686,0.1247403,-9.752229,0,0,44.8787,1,1,8008,4004
9357,60266888,0,-0.003843408,0.001089656,-0.002761376,-0.1633874,0.1288392,-9.7509,0,0,44.87866,1,1,8008,4004
9360,60268669,0,-0.0027601,0.001240088,-0.001603712,-0.1666531,0.1337984,-9.746448000000001,0,0,44.87859,1,1,8008,4004
9363,60271253,0,-0.002128522,0.0008699134,-0.001221169,-0.1683535,0.1356719,-9.743520999999999,0,0,44.87852,1,1,8008,4004
9394,60274280,0,-0.001788344,-0.0007986358,-0.0009829487,-0.1703763,0.1366379,-9.741351,0,0,44.8784,1,1,8008,4004
9402,60276951,0,-0.002493122,-0.001279203,-0.0002351931,-0.170733,0.137485,-9.739485999999999,0,0,44.87831,1,1,8008,4004
9405,60278674,0,-0.0040263,-0.001047718,0.0004611082,-0.1704609,0.140328,-9.738491,0,0,44.87817,1,1,8008,4004
9408,60281164,0,-0.002759543,-6.678536e-06,0.0009702104,-0.1700273,0.1430754,-9.738984,0,0,44.87811,1,1,8008,4004
9439,60284128,0,-0.001835697,0.0002591433,0.001182467,-0.1706433,0.1445098,-9.740591999999999,0,0,44.87809,1,1,8008,4004
9442,60286719,0,-0.001085492,-0.0005662713,0.0003327145,-0.1707883,0.1443932,-9.741250000000001,0,0,44.87808,1,1,8008,4004
9445,60289357,0,-0.001610719,-0.001418021,-0.0005314906,-0.1701412,0.1436387,-9.74281,0,0,44.87811,1,1,8008,4004
9449,60291275,0,-0.002374143,-0.002557545,-0.0008216975,-0.1712637,0.1425303,-9.74532,0,0,44.87816,1,1,8008,4004
9480,60293703,0,-0.001040773,-0.002906006,-0.0009708424,-0.1731014,0.1413765,-9.7471,0,0,44.8783,1,1,8008,4004
9484,60296253,0,-1.61376e-05,-0.001737749,-0.001558144,-0.173395,0.1405803,-9.746541000000001,0,0,44.87838,1,1,8008,4004
9487,60299338,0,0.00129687,-0.0004916123,-0.002404217,-0.172026,0.1381075,-9.743273,0,0,44.87846,1,1,8008,4004
9492,60301888,0,0.001916811,-0.0005672606,-0.002400979,-0.171775,0.1362934,-9.73991,0,0,44.87848,1,1,8008,4004
9523,60304079,0,0.001733649,-0.001589235,-0.002458845,-0.1734643,0.1349462,-9.736812,0,0,44.87849,1,1,8008,4004
9526,60306995,0,0.001596014,-0.001468892,-0.002107601,-0.1752028,0.1356934,-9.736718,0,0,44.87848,1,1,8008,4004
9529,60309390,0,0.00239323,-0.001185093,-0.001523968,-0.1779287,0.1387565,-9.7386,0,0,44.87842,1,1,8008,4004
9532,60312308,0,0.001604586,-0.002137601,-0.0007919985,-0.1816374,0.140077,-9.742239,0,0,44.87832,1,1,8008,4004
9563,60315897,0,0.001959573,-0.001853295,-0.0005600917,-0.1832365,0.1381229,-9.744338000000001,0,0,44.87822,1,1,8008,4004
9567,60317249,0,0.001738456,-0.0008707171000000001,-0.0005481903,-0.1841553,0.1346936,-9.744408,0,0,44.87817,1,1,8008,4004
9570,60319910,0,0.001148019,-0.0004885651,-0.0003414558,-0.1859906,0.1295862,-9.747014999999999,0,0,44.87806,1,1,8008,4004
9573,60322305,0,0.00108261,-0.001111824,-0.0002534229,-0.1862399,0.1272475,-9.749457,0,0,44.878,1,1,8008,4004
9604,60328070,0,0.00234131,-0.001260851,0.0004743372,-0.181812,0.1209657,-9.75189,0,0,44.8779,1,1,8008,4004
9608,60330009,0,0.002599156,0.0002388746,0.000726113,-0.1801798,0.1187741,-9.754046000000001,0,0,44.87784,1,1,8008,4004
9611,60332177,0,0.002897935,6.538504e-05,8.868559e-05,-0.1795784,0.1192935,-9.757296999999999,0,0,44.8778,1,1,8008,4004
9642,60334550,0,0.003662124,-0.0005782279,-0.0005855555,-0.1782453,0.12047,-9.761331,0,0,44.87774,1,1,8008,4004
9645,60337561,0,0.00520755,-0.0007597249,-0.001134935,-0.1772964,0.1204466,-9.763809,0,0,44.87768,1,1,8008,4004
9648,60339959,0,0.005696706,6.252024999999999e-05,-0.001537779,-0.1773163,0.120278,-9.761932,0,0,44.8776,1,1,8008,4004
9653,60342652,0,0.005208469,0.0004047187,-0.002092817,-0.1767901,0.1206386,-9.761621999999999,0,0,44.87756,1,1,8008,4004
9684,60344940,0,0.004502242,0.0008297351,-0.001900932,-0.1764954,0.1199088,-9.761291,0,0,44.87748,1,1,8008,4004
9687,60347406,0,0.003997384,0.0007483336,-0.001226171,-0.1770207,0.1201632,-9.760532,0,0,44.87745,1,1,8008,4004
9691,60350389,0,0.003392536,0.0003393874,-0.001003682,-0.1777699,0.1206381,-9.758801999999999,0,0,44.87739,1,1,8008,4004
9694,60353160,0,0.002450102,0.0001638712,-0.0004571731,-0.1783009,0.1211445,-9.757918999999999,0,0,44.87734,1,1,8008,4004
9725,60355970,0,0.0009311051,0.0005454241,-0.0001334511,-0.1799426,0.1207368,-9.754504000000001,0,0,44.87724,1,1,8008,4004
9728,60357972,0,0.001244982,-0.0003569446,-0.00171365,-0.1816622,0.1184233,-9.750934000000001,0,0,44.87712,1,1,8008,4004
9731,60360565,0,0.001306978,-7.309554e-05,-0.002318151,-0.1826877,0.1170332,-9.748594000000001,0,0,44.87701,1,1,8008,4004
9734,60363724,0,0.001080751,-0.0003845456,-0.001731618,-0.1835982,0.1143865,-9.744590000000001,0,0,44.87688,1,1,8008,4004
9765,60366376,0,-0.0002073088,-0.0008022976,-0.00114693,-0.1834147,0.1107055,-9.741599000000001,0,0,44.87678,1,1,8008,4004
9768,60368515,0,-0.001010837,-0.0007789854,-0.0008354376,-0.1843062,0.1084209,-9.740325,0,0,44.87671,1,1,8008,4004
9772,60371121,0,-0.0007777,-0.0006216503,-0.0003888656,-0.1863241,0.1072417,-9.739352999999999,0,0,44.8766,1,1,8008,4004
9775,60373947,0,-0.0004336641,-0.0008308786000000001,-0.0006159999,-0.1870381,0.1060602,-9.738165,0,0,44.8765,1,1,8008,4004
9806,60376557,0,-0.0007222253000000001,-0.0008858083,5.172611e-05,-0.185921,0.1044189,-9.736457,0,0,44.8764,1,1,8008,4004
9813,60379445,0,-0.0007203860000000001,-0.0009745308,0.0003201934,-0.1837056,0.1035544,-9.735737,0,0,44.87633,1,1,8008,4004
9817,60380829,0,-0.0008489606,0.0001376228,-0.0001498869,-0.1796243,0.1037719,-9.737022,0,0,44.87624,1,1,8008,4004
9822,60384170,0,-0.001423259,0.0002289459,-0.0003398962,-0.178411,0.104467,-9.738481999999999,0,0,44.87618,1,1,8008,4004
9853,60386411,0,-0.001856368,0.0001124683,-0.0001346509,-0.1788033,0.1058777,-9.740304,0,0,44.87608,1,1,8008,4004
9856,60389523,0,-0.00229161,6.40053e-05,-0.0001560363,-0.1798379,0.1072444,-9.742841,0,0,44.87602,1,1,8008,4004
9859,60391995,0,-0.003116609,-2.313907e-05,-0.0004911547,-0.1800088,0.1090293,-9.746756,0,0,44.87601,1,1,8008,4004
9862,60394152,0,-0.002615674,-0.0006324718,-0.0004690395,-0.1807545,0.1125517,-9.753344,0,0,44.87602,1,1,8008,4004
9893,60396378,0,-0.001810066,-0.0005828674,-0.0007259862,-0.1816137,0.1153863,-9.758324999999999,0,0,44.87605,1,1,8008,4004
9896,60398948,0,-0.001770163,-0.001244664,-0.0008842136,-0.1831545,0.1190696,-9.762479000000001,0,0,44.87605,1,1,8008,4004
9900,60402117,0,-0.002654597,-0.001642873,-0.0007942962,-0.1833051,0.1202926,-9.763016,0,0,44.87602,1,1,8008,4004
9903,60404534,0,-0.003077789,-0.002584096,-0.000869358,-0.1822866,0.120509,-9.763370999999999,0,0,44.87598,1,1,8008,4004
9934,60406904,0,-0.002897442,-0.001903143,-0.0005997446,-0.1834452,0.1221722,-9.763718000000001,0,0,44.87595,1,1,8008,4004
9937,60409974,0,-0.002331346,-0.001411092,-0.0003492771,-0.183661,0.1239851,-9.764923,0,0,44.87595,1,1,8008,4004
9940,60412389,0,-0.001851743,-0.0003192897,-0.0008541905,-0.182127,0.1254306,-9.763152,0,0,44.87597,1,1,8008,4004
9943,60414586,0,-0.001707489,-0.0002793718,-0.001135319,-0.181189,0.1253241,-9.761689000000001,0,0,44.87601,1,1,8008,4004
9974,60418254,0,-0.001599645,-0.0009548057,-0.002207376,-0.1792704,0.123793,-9.763840999999999,0,0,44.87607,1,1,8008,4004
9977,60419917,0,-0.001521265,-0.0001950834,-0.001976834,-0.1766945,0.1232767,-9.767882999999999,0,0,44.87614,1,1,8008,4004
9981,60422289,0,-0.002204893,-0.0005074812,-0.001309508,-0.1748262,0.1226856,-9.770353999999999,0,0,44.87617,1,1,8008,4004
9984,60427968,0,-0.002702772,-0.0009792983000000001,-0.0008160454,-0.1712626,0.1262983,-9.767946,0,0,44.87617,1,1,8008,4004
10017,60430257,0,-0.001440445,-0.0003112856,-0.0008546214,-0.1704691,0.1299649,-9.767848000000001,0,0,44.87612,1,1,8008,4004
10021,60432730,0,-0.002075747,-0.0009591121,-0.000597358,-0.170132,0.1312431,-9.764526999999999,0,0,44.87604,1,1,8008,4004
10024,60435955,0,-0.002397802,-0.0005745483999999999,-0.0004588853,-0.16912,0.1308174,-9.76239,0,0,44.876,1,1,8008,4004
10027,60437804,0,-0.001913252,-0.0002553001,-5.763217e-06,-0.1665744,0.1280233,-9.759695000000001,0,0,44.87595,1,1,8008,4004
10058,60440760,0,-0.0009759809,-0.0001030156,-0.000608358,-0.1644533,0.1266168,-9.757593999999999,0,0,44.87595,1,1,8008,4004
10061,60443131,0,-0.0001578619,-0.0004994678,-0.001776759,-0.1614566,0.1259094,-9.756186,0,0,44.87599,1,1,8008,4004
10064,60445585,0,-0.0006157715,-6.414886e-05,-0.001433358,-0.1599537,0.1268135,-9.756821,0,0,44.87603,1,1,8008,4004
10067,60448333,0,-0.001081245,0.0005076585,-0.0005638882,-0.1609152,0.1281243,-9.756143,0,0,44.87609,1,1,8008,4004
10098,60451310,0,-0.001540842,-0.0003589244,-0.0004503424,-0.1650812,0.1294207,-9.753612,0,0,44.87609,1,1,8008,4004
10103,60453556,0,-0.001412158,-0.000330949,9.459940999999999e-05,-0.1682173,0.1303919,-9.752046999999999,0,0,44.8761,1,1,8008,4004
10106,60456039,0,-0.0008822107,-0.0004323482,0.000230273,-0.1724808,0.1321633,-9.749694,0,0,44.8761,1,1,8008,4004
10110,60458319,0,-0.000652283,-0.000449376,3.103875e-05,-0.1731382,0.1338417,-9.748796,0,0,44.8761,1,1,8008,4004
10141,60461292,0,-0.0003110871,0.0003695017,-0.0008151821000000001,-0.1748707,0.1372402,-9.748870999999999,0,0,44.87608,1,1,8008,4004
10144,60463989,0,0.0001021012,0.0005283208,-0.0008637524,-0.1759345,0.1389651,-9.750959,0,0,44.87606,1,1,8008,4004
10147,60466366,0,0.0004294147,0.0008197213,8.437764e-05,-0.176152,0.139544,-9.756251000000001,0,0,44.87605,1,1,8008,4004
10150,60468403,0,0.0006087243,0.001127888,0.0003012244,-0.1759088,0.1390442,-9.759966,0,0,44.87605,1,1,8008,4004
10181,60470967,0,0.001390532,0.0004031972,0.0001769243,-0.1749147,0.1369303,-9.761983000000001,0,0,44.87605,1,1,8008,4004
10185,60473929,0,0.002380346,-0.0002065763,-0.0001356863,-0.1743393,0.1347592,-9.762930000000001,0,0,44.87606,1,1,8008,4004
10188,60476487,0,0.002550197,0.0003296216,-0.00192124,-0.1747794,0.1315167,-9.763323,0,0,44.87606,1,1,8008,4004
10191,60478264,0,0.001793073,0.0009499583,-0.002341171,-0.1749794,0.1315192,-9.761013,0,0,44.87605,1,1,8008,4004
10226,60481277,0,0.000803332,0.00203106,-0.001383806,-0.1742106,0.132333,-9.758095000000001,0,0,44.87605,1,1,8008,4004
10229,60483354,0,0.001440189,0.001950366,-0.001002971,-0.1729208,0.1325957,-9.757638999999999,0,0,44.87607,1,1,8008,4004
10232,60486319,0,0.001335882,0.001058413,-0.0003283026,-0.169718,0.1329658,-9.756879,0,0,44.87605,1,1,8008,4004
10236,60489075,0,0.001137719,0.0002767576,9.409034e-05,-0.1674061,0.1333176,-9.756727,0,0,44.87602,1,1,8008,4004
10267,60491246,0,0.001471888,-0.0008304924,0.001194396,-0.1649841,0.1337526,-9.75895,0,0,44.87592,1,1,8008,4004
10271,60494151,0,0.00197539,-0.001125882,0.001767147,-0.1616984,0.1334059,-9.757047,0,0,44.87587,1,1,8008,4004
10274,60496358,0,0.002853524,-0.0009976067999999999,0.001436694,-0.1603764,0.1336889,-9.754695,0,0,44.87583,1,1,8008,4004
10277,60499401,0,0.00374212,-0.0006527688999999999,0.001181145,-0.1587484,0.1329498,-9.751830999999999,0,0,44.87583,1,1,8008,4004
10308,60501994,0,0.002775958,0.0004746343,0.001025812,-0.1572017,0.1311961,-9.753356999999999,0,0,44.8759,1,1,8008,4004
10311,60504073,0,0.001994977,0.000289937,0.0007529681000000001,-0.1570505,0.1306164,-9.756174,0,0,44.87597,1,1,8008,4004
10314,60506369,0,0.001828155,-2.813798e-05,0.0005101599,-0.1576218,0.1293173,-9.758858999999999,0,0,44.87603,1,1,8008,4004
10317,60508696,0,0.003176142,-0.0008972778,0.001058596,-0.1586707,0.1264078,-9.762821000000001,0,0,44.87615,1,1,8008,4004
10348,60511918,0,0.003662674,-0.001385045,0.0009360182,-0.1590898,0.1253482,-9.763722,0,0,44.87619,1,1,8008,4004
10352,60516384,0,0.003273269,-0.001511216,0.000484384,-0.1607248,0.1224693,-9.764536,0,0,44.87625,1,1,8008,4004
10355,60518955,0,0.003230228,-0.001960436,-0.0002401335,-0.1600768,0.1196101,-9.7643,0,0,44.87623,1,1,8008,4004
10386,60521316,0,0.002778869,-0.002581045,-0.000348449,-0.1596173,0.1180286,-9.765915,0,0,44.87623,1,1,8008,4004
10390,60527377,0,0.00189428,-0.001967248,0.0003501387,-0.1605604,0.1153818,-9.773139,0,0,44.87617,1,1,8008,4004
10393,60528962,0,0.002665093,-0.000601238,-0.0008003105,-0.1622654,0.1122298,-9.779816,0,0,44.87611,1,1,8008,4004
10424,60531305,0,0.002300778,-0.0003578009,-0.001221858,-0.1651022,0.110457,-9.781669000000001,0,0,44.87606,1,1,8008,4004
10427,60534164,0,0.001501461,-0.0007492917,-0.0006291373,-0.16944,0.1091395,-9.779377999999999,0,0,44.87598,1,1,8008,4004
10430,60536999,0,0.0009611025,-0.0008378509,2.320446e-05,-0.1698879,0.1087843,-9.777058,0,0,44.87592,1,1,8008,4004
10433,60539386,0,2.602594e-05,-0.001182196,-0.0001406434,-0.1694565,0.111211,-9.773070000000001,0,0,44.87583,1,1,8008,4004
10464,60541490,0,-0.0007714949,-0.0006439788,-0.0005383829,-0.1698504,0.114626,-9.764707,0,0,44.87576,1,1,8008,4004
10468,60544027,0,-0.001146569,-0.001047026,-0.0004508939,-0.1701006,0.1164473,-9.7613,0,0,44.87574,1,1,8008,4004
10471,60546290,0,-0.001848651,-0.00196435,-0.0005536428,-0.1709334,0.1169004,-9.7577,0,0,44.87571,1,1,8008,4004
10474,60549419,0,-0.002277507,-0.003339653,-0.001034421,-0.1738347,0.1173293,-9.750583000000001,0,0,44.87566,1,1,8008,4004
10505,60552006,0,-0.001572411,-0.003367999,-0.001708826,-0.1760121,0.118654,-9.742918,0,0,44.87561,1,1,8008,4004
10508,60554459,0,-0.001350587,-0.003877866,-0.001954605,-0.1762856,0.1191829,-9.737966999999999,0,0,44.87559,1,1,8008,4004
10511,60556988,0,-0.00202782,-0.003132118,-0.001665376,-0.1768454,0.11946,-9.731170000000001,0,0,44.87553,1,1,8008,4004
10514,60559784,0,-0.002481142,-0.002741163,-0.001176719,-0.1771391,0.119977,-9.729137,0,0,44.8755,1,1,8008,4004
10545,60562344,0,-0.001350545,-0.001950278,-0.0009107678,-0.1780513,0.1188778,-9.727919999999999,0,0,44.87544,1,1,8008,4004
10549,60564364,0,-0.0008774605,-0.002146037,-0.001235223,-0.1791223,0.1167258,-9.730212,0,0,44.87541,1,1,8008,4004
10553,60567163,0,-0.001354967,-0.002695367,-0.001174531,-0.1809273,0.1142284,-9.735868,0,0,44.87537,1,1,8008,4004
10556,60569464,0,-0.001516538,-0.002921595,-0.001665888,-0.1814987,0.1136811,-9.736362,0,0,44.87536,1,1,8008,4004
10587,60571977,0,-0.001200398,-0.002266879,-0.002080434,-0.1825018,0.1143308,-9.735021,0,0,44.87534,1,1,8008,4004
10590,60574953,0,-0.001822468,-0.001940648,-0.001590167,-0.1818406,0.1155773,-9.736922,0,0,44.87533,1,1,8008,4004
10593,60576604,0,-0.003155191,-0.001781982,-0.0003107508,-0.1800645,0.1166809,-9.742209000000001,0,0,44.87531,1,1,8008,4004
10596,60579967,0,-0.003105039,-0.001696597,7.9786e-05,-0.1786146,0.1185409,-9.746931,0,0,44.8753,1,1,8008,4004
10631,60582538,0,-0.002000374,-0.001278984,0.0002878871,-0.1762354,0.1223698,-9.755141999999999,0,0,44.87529,1,1,8008,4004
10635,60585298,0,-0.001634954,1.275753e-05,0.0005269704,-0.1752943,0.1232783,-9.759864,0,0,44.87532,1,1,8008,4004
10638,60587492,0,-0.001592413,0.0003825279,0.0004146535,-0.175045,0.1229381,-9.761003000000001,0,0,44.87535,1,1,8008,4004
10643,60590379,0,-0.002226854,0.0007474483000000001,0.0005816381,-0.1750923,0.1217523,-9.764829000000001,0,0,44.87542,1,1,8008,4004
10674,60593322,0,-0.003255451,0.001195289,0.0001616339,-0.1752126,0.1202974,-9.768046999999999,0,0,44.87546,1,1,8008,4004
10678,60595334,0,-0.003377139,0.0009153803,-0.000772352,-0.1754927,0.1209015,-9.770146,0,0,44.87549,1,1,8008,4004
10681,60598293,0,-0.003022829,0.0008825586,-0.001914776,-0.1770983,0.122479,-9.771139,0,0,44.87553,1,1,8008,4004
10684,60600401,0,-0.002909012,0.001009304,-0.002175394,-0.1781142,0.1227008,-9.771182,0,0,44.87556,1,1,8008,4004
10715,60603142,0,-0.002478562,0.001202188,-0.0009402216,-0.1780018,0.1248458,-9.769102,0,0,44.87561,1,1,8008,4004
10718,60605982,0,-0.001995469,0.001262285,-0.0008885593999999999,-0.1764928,0.1268497,-9.765485,0,0,44.87566,1,1,8008,4004
10721,60607896,0,-0.001634287,0.00118181,-0.001793905,-0.1727641,0.1307974,-9.754875,0,0,44.87574,1,1,8008,4004
10724,60610559,0,-0.001224364,0.0005296097,-0.002530467,-0.1695749,0.1328716,-9.747210000000001,0,0,44.87579,1,1,8008,4004
10755,60613365,0,8.465756e-05,-0.0007507273,-0.002365694,-0.1656155,0.1362737,-9.739212999999999,0,0,44.87587,1,1,8008,4004
10759,60615352,0,0.0004798477,-0.0007179571,-0.00146349,-0.1637966,0.1378449,-9.733857,0,0,44.87596,1,1,8008,4004
10762,60618172,0,0.0003847313,0.0001125111,-0.0008746174,-0.1634383,0.1393207,-9.729426,0,0,44.87611,1,1,8008,4004
10765,60620404,0,0.0003388467,0.0004272274,-0.0006670947,-0.1631608,0.1400436,-9.729122,0,0,44.87619,1,1,8008,4004
10796,60623099,0,0.0004468423,-0.0001887312,-0.001101207,-0.1637094,0.1404701,-9.73185,0,0,44.87628,1,1,8008,4004
10799,60630749,0,0.002694509,-0.001106861,-0.001262882,-0.1752312,0.1413393,-9.742763999999999,0,0,44.87633,1,1,8008,4004
10830,60633533,0,0.002471627,-0.00151232,-0.0006914264,-0.1781775,0.1402699,-9.742661,0,0,44.87635,1,1,8008,4004
10834,60636481,0,0.00268736,-0.00175648,3.632059e-05,-0.1816774,0.1352116,-9.73915,0,0,44.87641,1,1,8008,4004
10837,60638314,0,0.002791153,-0.001145215,-7.34342e-05,-0.1833955,0.1314835,-9.736558,0,0,44.87645,1,1,8008,4004
10840,60641273,0,0.003473517,-0.001452645,0.0008245098,-0.1845646,0.1296881,-9.731764,0,0,44.87653,1,1,8008,4004
10871,60643565,0,0.003261214,-0.002352098,0.001206502,-0.1860233,0.1296631,-9.729568,0,0,44.87656,1,1,8008,4004
10874,60645922,0,0.002430062,-0.003431714,0.0008199725,-0.1874591,0.1283356,-9.730437,0,0,44.87663,1,1,8008,4004
10877,60648974,0,0.002030128,-0.003263546,0.0004109534,-0.1864194,0.1289703,-9.732219000000001,0,0,44.87666,1,1,8008,4004
10880,60650955,0,0.001834172,-0.002005683,0.0007300297,-0.1833914,0.1306674,-9.738509000000001,0,0,44.87672,1,1,8008,4004
10911,60653882,0,0.00245631,-0.001142209,0.001587139,-0.181917,0.129602,-9.745442000000001,0,0,44.87676,1,1,8008,4004
10915,60655951,0,0.002465863,0.0003156188,0.002963285,-0.1817929,0.1234296,-9.752649,0,0,44.87684,1,1,8008,4004
10918,60658365,0,0.001838858,0.0006585877,0.003676156,-0.1831222,0.120468,-9.755537,0,0,44.87688,1,1,8008,4004
10921,60661258,0,0.001201842,0.0003735059,0.003612767,-0.1847863,0.11897,-9.759212,0,0,44.87695,1,1,8008,4004
10938,60686362,0,-4.52981e-05,0.0001805486,-0.001775705,-0.1737119,0.1292748,-9.759277000000001,0,0,44.8771,1,1,8008,4004
10942,60688307,0,3.816848e-05,0.0006642001,-0.002103281,-0.1713718,0.1322628,-9.763313,0,0,44.87705,1,1,8008,4004
10945,60690996,0,-0.0007571913,0.0009907506000000001,-0.001036464,-0.1692,0.1343751,-9.766579,0,0,44.87695,1,1,8008,4004
10976,60694014,0,-0.0007729859,0.001443617,0.0002034235,-0.1682786,0.1356274,-9.767201999999999,0,0,44.87691,1,1,8008,4004
10979,60695964,0,-0.0003122786,0.002094364,0.0008531375,-0.1669729,0.1364684,-9.766660999999999,0,0,44.8769,1,1,8008,4004
10982,60698767,0,-0.0001421286,0.001668556,0.0004304209,-0.1664438,0.1357463,-9.763951,0,0,44.87691,1,1,8008,4004
10985,60700951,0,-3.767309e-05,-9.570286000000001e-05,0.0002078292,-0.1667071,0.1335842,-9.757918999999999,0,0,44.87698,1,1,8008,4004
11016,60703389,0,-0.000252826,-0.0008441518,-0.0003655349,-0.1677949,0.1327169,-9.754533,0,0,44.87708,1,1,8008,4004
11020,60706337,0,-0.0003785406,-0.00120765,-0.001134078,-0.1691597,0.1312111,-9.750845999999999,0,0,44.87728,1,1,8008,4004
11023,60708279,0,-0.0005136108,-0.0009337990999999999,-0.001070266,-0.1700843,0.1304646,-9.749185000000001,0,0,44.87738,1,1,8008,4004
11026,60711473,0,-0.0009487640000000001,0.0003568693,-0.0002084288,-0.1719255,0.1288952,-9.748661999999999,0,0,44.8775,1,1,8008,4004
11057,60713739,0,-0.001279072,0.0009166525,-0.0002053268,-0.1722874,0.1281874,-9.750494,0,0,44.87761,1,1,8008,4004
11060,60716688,0,-0.0009811145999999999,0.0008699619,-0.0006514397,-0.1727825,0.1273522,-9.751277999999999,0,0,44.87767,1,1,8008,4004
11063,60721176,0,-0.0004059178,0.0003161587,-9.829797e-05,-0.1736106,0.1278211,-9.750766,0,0,44.87792,1,1,8008,4004
11094,60726271,0,-0.0008417128000000001,-0.0008788526,-0.0001304803,-0.1725789,0.1352986,-9.748332,0,0,44.87808,1,1,8008,4004
11098,60729028,0,-0.0007088424,-0.000516569,-0.00166631,-0.1719321,0.1399716,-9.746873000000001,0,0,44.87817,1,1,8008,4004
11101,60732007,0,-0.001427815,8.555599e-05,-0.002809993,-0.172473,0.1422448,-9.747825000000001,0,0,44.87823,1,1,8008,4004
11132,60734152,0,-0.002341742,0.0009618395,-0.002890544,-0.172491,0.1452935,-9.750368999999999,0,0,44.87831,1,1,8008,4004
11135,60737090,0,-0.002451878,0.0008453088,-0.001979124,-0.1684478,0.1462355,-9.755108999999999,0,0,44.87834,1,1,8008,4004
11139,60739341,0,-0.002650109,0.0003590558,-0.001872142,-0.1643292,0.145725,-9.757103000000001,0,0,44.87835,1,1,8008,4004
11142,60741990,0,-0.002632903,-1.323889e-05,-0.001121603,-0.1597295,0.1435661,-9.757044,0,0,44.87833,1,1,8008,4004
11173,60744785,0,-0.001748495,-0.0003066787,-0.0006466519999999999,-0.1578275,0.1410367,-9.757250000000001,0,0,44.8783,1,1,8008,4004
11176,60747010,0,-0.0001445055,-0.0002708216,-0.0007323965,-0.1577334,0.1357959,-9.758162,0,0,44.87827,1,1,8008,4004
11179,60749917,0,-6.870528999999999e-05,-0.0002396541,-0.001197675,-0.1567473,0.1327238,-9.759842000000001,0,0,44.87822,1,1,8008,4004
11182,60751632,0,0.0007635643,-0.001740152,-0.002036935,-0.1555124,0.1292259,-9.759655,0,0,44.87822,1,1,8008,4004
11213,60754166,0,0.0003329696,-0.00209307,-0.001944943,-0.1554363,0.1273998,-9.757168,0,0,44.87823,1,1,8008,4004
11216,60757146,0,-0.001159315,-0.001874104,-0.002409066,-0.1543692,0.1268762,-9.751697999999999,0,0,44.87824,1,1,8008,4004
11220,60759029,0,-0.0008037086,-0.001981403,-0.002544657,-0.1546443,0.1263024,-9.748073,0,0,44.87823,1,1,8008,4004
11224,60762299,0,-0.000495156,-0.001769365,-0.001953391,-0.1544797,0.1254437,-9.741070000000001,0,0,44.87822,1,1,8008,4004
11255,60764490,0,-0.0005845227,-0.001440855,-0.001417654,-0.154512,0.1248311,-9.735802,0,0,44.8782,1,1,8008,4004
11258,60767450,0,-0.0006664309,-0.0006379145,-0.0008058576,-0.1573069,0.1250313,-9.729616999999999,0,0,44.87822,1,1,8008,4004
11261,60769982,0,-0.0004504687,-0.0005628992,-0.001082931,-0.1614259,0.1248088,-9.727918000000001,0,0,44.87822,1,1,8008,4004
11264,60772062,0,0.0002314115,-0.001060443,-0.001301121,-0.1680566,0.1244226,-9.728488,0,0,44.87821,1,1,8008,4004
11295,60775074,0,3.386474e-05,-0.000808237,-0.001208314,-0.1700144,0.1253754,-9.728235,0,0,44.87819,1,1,8008,4004
11298,60776942,0,0.0003062892,-0.0001056195,-0.0004367649,-0.1707526,0.1273022,-9.726336,0,0,44.87817,1,1,8008,4004
11302,60780272,0,0.001275352,-3.289966e-05,-0.0006313776,-0.1693898,0.1285568,-9.72471,0,0,44.87817,1,1,8008,4004
11306,60782283,0,0.001758555,-0.0002021198,-0.0007003691,-0.1672211,0.1292992,-9.725249,0,0,44.8782,1,1,8008,4004
11341,60785043,0,0.001130833,-0.0001038173,-0.0001349301,-0.1661162,0.129269,-9.726176000000001,0,0,44.87823,1,1,8008,4004
11344,60787557,0,0.001481997,-0.0008585757,0.000889866,-0.1647475,0.1295917,-9.728681999999999,0,0,44.87826,1,1,8008,4004
11348,60789988,0,0.001779361,-0.001376837,0.0003989313,-0.1634321,0.1295397,-9.731809,0,0,44.87828,1,1,8008,4004
11351,60792565,0,0.001786613,-0.001546752,0.0005147738,-0.1605074,0.1284718,-9.73508,0,0,44.8783,1,1,8008,4004
11383,60794934,0,0.0006555116,-0.001678042,0.0009475918,-0.1589198,0.1268786,-9.738522,0,0,44.87831,1,1,8008,4004
11386,60797493,0,-0.0001141626,-0.001684795,0.001041328,-0.1594235,0.1245478,-9.741863,0,0,44.8783,1,1,8008,4004
11389,60800126,0,-0.0005948622,-0.0001824399,0.001517116,-0.1601325,0.1182659,-9.747066,0,0,44.87824,1,1,8008,4004
11392,60803000,0,-0.001408742,0.0003827449,0.001584737,-0.1608124,0.1153441,-9.750809,0,0,44.87819,1,1,8008,4004
11423,60805728,0,-0.001395483,-0.0001908333,0.001114552,-0.1618305,0.1130595,-9.755888000000001,0,0,44.87812,1,1,8008,4004
11426,60807909,0,-0.001343528,-0.0009693966,0.0007310598,-0.162605,0.1140646,-9.758057000000001,0,0,44.87807,1,1,8008,4004
11431,60810107,0,1.594032e-05,-0.001338626,0.001028684,-0.1608751,0.1167061,-9.760716,0,0,44.87805,1,1,8008,4004
11436,60812983,0,0.0007573939,-0.001876028,0.001510203,-0.1595073,0.11828,-9.760987999999999,0,0,44.87805,1,1,8008,4004
11467,60815806,0,0.0005047073,-0.001947037,0.002099157,-0.1601188,0.1219658,-9.759988999999999,0,0,44.87809,1,1,8008,4004
11470,60817581,0,0.000391655,-0.001563114,0.002058902,-0.1609613,0.1245221,-9.758308,0,0,44.87813,1,1,8008,4004
11473,60820093,0,0.000938075,-0.0007671046,0.002409508,-0.1642652,0.1242396,-9.759397999999999,0,0,44.87822,1,1,8008,4004
11476,60825091,0,0.00177172,2.743068e-05,0.002664228,-0.1728279,0.1190029,-9.767314000000001,0,0,44.87836,1,1,8008,4004
11507,60830469,0,0.002449235,-0.0007069271,0.0004705758,-0.1729994,0.1159048,-9.768134999999999,0,0,44.87846,1,1,8008,4004
11511,60832560,0,0.001624381,-0.001420648,0.0001736929,-0.1712751,0.1128114,-9.766875000000001,0,0,44.87848,1,1,8008,4004
11514,60836075,0,0.001136003,-0.001678308,0.000272217,-0.1699774,0.1105702,-9.763375,0,0,44.87848,1,1,8008,4004
11517,60837462,0,0.0007976713,-0.001661943,0.0003890266,-0.1698233,0.1100653,-9.760377999999999,0,0,44.87844,1,1,8008,4004
11548,60840364,0,-0.0009240481,-0.0006107414,0.001121719,-0.1699968,0.1103534,-9.756238,0,0,44.87836,1,1,8008,4004
11552,60842464,0,-0.001345517,-0.0002573839,0.001388472,-0.1703618,0.1118116,-9.754254,0,0,44.8783,1,1,8008,4004
11555,60845514,0,-0.001094181,-0.0001616807,0.0008877239,-0.1710487,0.1152061,-9.756354999999999,0,0,44.87817,1,1,8008,4004
11559,60847465,0,-0.001400228,-0.0008687410999999999,0.0002122828,-0.171493,0.1181494,-9.758188000000001,0,0,44.87808,1,1,8008,4004
11590,60849977,0,-0.001528275,-0.0006425346,-0.0001680787,-0.1726274,0.122239,-9.756485,0,0,44.87794,1,1,8008,4004
11593,60853014,0,-0.00132871,0.00019646,-0.0006096228,-0.1737338,0.1236391,-9.75184,0,0,44.87785,1,1,8008,4004
11596,60855319,0,-0.002039495,0.0003839047,-0.00056523,-0.1767999,0.1266024,-9.741482,0,0,44.87767,1,1,8008,4004
11599,60857953,0,-0.002406487,-0.000247052,-0.0006611369,-0.1783716,0.127711,-9.734942999999999,0,0,44.87755,1,1,8008,4004
11630,60860708,0,-0.0008844764,-0.0004761493,-0.0008908196,-0.179432,0.129958,-9.729391,0,0,44.87744,1,1,8008,4004
11634,60862581,0,-0.0004777811,-0.0006503842,0.0002077413,-0.1816884,0.1313398,-9.728818,0,0,44.87736,1,1,8008,4004
11637,60864948,0,-0.001942824,-0.0005113265000000001,0.0006804034,-0.1860133,0.1314719,-9.732559999999999,0,0,44.87722,1,1,8008,4004
11640,60867488,0,-0.002461033,-0.0001039663,0.0002909256,-0.1867993,0.1311637,-9.737655,0,0,44.87714,1,1,8008,4004
11671,60870524,0,-0.001602946,-0.0001490167,-0.0002442204,-0.1864266,0.1311456,-9.745044,0,0,44.87701,1,1,8008,4004
11674,60873029,0,-0.001258915,-0.0003958976,-0.00116828,-0.1854495,0.129837,-9.749154000000001,0,0,44.87694,1,1,8008,4004
11678,60875354,0,-0.0008975369,0.000212639,-0.001323958,-0.1839309,0.1237345,-9.754003000000001,0,0,44.87687,1,1,8008,4004
11681,60877546,0,-0.001328291,0.0003307858,-0.0007083796,-0.183628,0.11911,-9.756855,0,0,44.87683,1,1,8008,4004
11713,60880112,0,-0.002293756,-5.185476e-05,-0.001350949,-0.1839447,0.1138179,-9.757308999999999,0,0,44.87679,1,1,8008,4004
11717,60883057,0,-0.00290195,-0.0003133559,-0.002095794,-0.1833154,0.1115839,-9.753263,0,0,44.87676,1,1,8008,4004
11725,60885906,0,-0.002834161,0.0004199361,-0.002862899,-0.1818174,0.1113187,-9.744023,0,0,44.87671,1,1,8008,4004
11728,60887758,0,-0.002176833,0.0009941888000000001,-0.002790139,-0.1793181,0.1114584,-9.739117,0,0,44.87666,1,1,8008,4004
11759,60890248,0,-0.0009753780000000001,0.000598559,-0.002680259,-0.1741215,0.1110695,-9.737028,0,0,44.87658,1,1,8008,4004
11762,60892560,0,-0.0005228982,0.0003126166,-0.00210341,-0.171926,0.1137548,-9.737026,0,0,44.87654,1,1,8008,4004
11765,60895398,0,-0.0008885218,0.0007531823,-0.001308817,-0.1681127,0.1199652,-9.734439999999999,0,0,44.87646,1,1,8008,4004
11768,60897961,0,-0.001571454,0.0008989541,-0.0009739996,-0.1663108,0.1224963,-9.732417999999999,0,0,44.87641,1,1,8008,4004
11799,60900172,0,-0.0017619,0.0003621984,-0.001195241,-0.1648029,0.1243907,-9.731507000000001,0,0,44.87634,1,1,8008,4004
11803,60903283,0,-0.001120852,4.705571e-06,-0.001526289,-0.1645676,0.1257627,-9.730402,0,0,44.87629,1,1,8008,4004
11806,60905241,0,-0.0005983716,-0.0006143747,-0.001246368,-0.1638342,0.1283057,-9.729260999999999,0,0,44.87618,1,1,8008,4004
11809,60907955,0,-0.0004522009,-0.0004772616,-0.0009567784,-0.1633418,0.1297976,-9.728236000000001,0,0,44.8761,1,1,8008,4004
11840,60910332,0,0.0001740977,-0.0009616366,-0.0006789406,-0.1640076,0.1291625,-9.727104000000001,0,0,44.87596,1,1,8008,4004
11844,60912990,0,-7.009562e-05,-0.001719526,-0.001208251,-0.16818,0.1273342,-9.725645999999999,0,0,44.87582,1,1,8008,4004
11847,60915950,0,-0.0002149414,-0.001806863,-0.001240754,-0.1713987,0.1261353,-9.725332999999999,0,0,44.87574,1,1,8008,4004
11850,60918379,0,-5.297807e-05,-0.001519679,-0.001044718,-0.1751368,0.1235843,-9.729286,0,0,44.87564,1,1,8008,4004
11883,60920882,0,0.0007379874,-0.001681288,-0.0007986682,-0.1787588,0.1209717,-9.737157,0,0,44.8755,1,1,8008,4004
11887,60923495,0,0.0002983724,-0.002684217,-0.0005696099,-0.1806176,0.1195549,-9.741118,0,0,44.87543,1,1,8008,4004
11890,60926137,0,-0.0006025201,-0.003029238,-0.0004652411,-0.1825475,0.1201398,-9.743081999999999,0,0,44.87528,1,1,8008,4004
11893,60932075,0,-0.001629174,-0.001695354,-0.0008359514,-0.1864392,0.1273214,-9.743129,0,0,44.87501,1,1,8008,4004
11897,60933765,0,-0.001200097,-0.001495822,-0.001125522,-0.1876184,0.1314799,-9.747021999999999,0,0,44.87491,1,1,8008,4004
11928,60936134,0,0.000661776,-0.001424523,-0.001642175,-0.1866811,0.1377223,-9.754963999999999,0,0,44.87477,1,1,8008,4004
11931,60938625,0,0.00141699,-0.001491727,-0.001255219,-0.1847324,0.1447859,-9.758157000000001,0,0,44.87464,1,1,8008,4004
11934,60941376,0,0.002073247,-0.001023727,-0.0009168029,-0.1842857,0.1494717,-9.757137,0,0,44.87452,1,1,8008,4004
11937,60944955,0,0.002043326,0.0001035254,-0.0007725483,-0.1846403,0.1547791,-9.757298,0,0,44.87434,1,1,8008,4004
11940,60946566,0,0.00126884,0.0002655672,-0.0007869624,-0.1852068,0.1558403,-9.757436,0,0,44.87424,1,1,8008,4004
11971,60948957,0,0.0008433870999999999,-0.000313111,-0.0001801205,-0.1841156,0.1544068,-9.754448999999999,0,0,44.8741,1,1,8008,4004
