LineNo,TimeUS,I,GyrX,GyrY,GyrZ,AccX,AccY,AccZ,EG,EA,T,GH,AH,GHz,AHz
183,57935342,1,0.007623509,0.006028069,0.003004403,-0.2260494,0.06933159,-9.804622999999999,0,0,45.63313,1,1,754,998
294,57959320,1,0.000182136,-0.001233501,-0.001660801,-0.206898,-0.01333447,-9.905851,0,0,45.63324,1,1,754,998
325,57961474,1,0.0002509266,-0.0008993139,-0.0006687950999999999,-0.2184719,-0.01315403,-9.884176999999999,0,0,45.63324,1,1,754,998
408,57983380,1,-0.006478938,-0.006210357,0.001854473,-0.2827702,0.01935892,-9.844851,0,0,45.63333,1,1,754,998
521,58007322,1,-0.0008320761,0.001988537,-0.002049034,-0.231927,0.03870539,-9.848435,0,0,45.63341,1,1,754,998
524,58008537,1,5.531295e-05,0.003151473,-0.003370173,-0.2392822,0.03509577,-9.839499,0,0,45.63345,1,1,754,998
555,58011556,1,-0.0003172172,0.00402897,-0.00560327,-0.2572148,0.01316355,-9.835013999999999,0,0,45.63345,1,1,754,998
630,58031151,1,0.0007430903,-0.00276437,-0.005420578,-0.2398176,-0.07462326,-9.770581999999999,0,0,45.6335,1,1,754,998
746,58052943,1,-0.001736393,0.009625453000000001,-0.0004890581,-0.2216681,0.02503987,-9.750527,0,0,45.63345,1,1,754,998
777,58055921,1,-0.001507106,0.00532733,0.002796364,-0.2185193,0.05311362,-9.764476999999999,0,0,45.63345,1,1,754,998
857,58073777,1,6.71598e-05,-0.005847745,0.0003811861,-0.1342122,0.02988512,-9.799294,0,0,45.6333,1,1,754,998
973,58096323,1,-0.001612672,6.040638e-05,-0.002544349,-0.2287361,-0.01548493,-9.869424,0,0,45.63314,1,1,754,998
1088,58140049,1,0.005786202,0.001557336,0.00440277,-0.1493865,-0.04723925,-9.910512000000001,0,0,45.63272,1,1,754,998
1203,58229943,1,-0.0001357775,-0.004523693,0.0008849176,-0.2424865,-0.08775135000000001,-9.788465,0,0,45.63166,1,1,754,998
1294,58278012,1,-0.00286555,0.004022688,-0.005307836,-0.2344608,0.02964902,-9.743734,0,0,45.63088,1,1,754,998
1325,58281358,1,-0.002758095,0.004703641,-0.002681268,-0.2249134,-0.001607734,-9.782913000000001,0,0,45.63088,1,1,754,998
1388,58291252,1,0.0002404168,0.004782246,0.003462196,-0.1911966,-0.02471244,-9.814857,0,0,45.63065,1,1,754,998
1391,58293102,1,-0.0003530618,0.005742907,0.002758722,-0.18343,-0.009146105,-9.829795000000001,0,0,45.63065,1,1,754,998
1422,58295811,1,-0.0005914651,0.00927702,0.002279582,-0.1796246,0.01336585,-9.840771999999999,0,0,45.63039,1,1,754,998
1483,58309576,1,-0.00041422,0.002342363,-0.002565801,-0.2556832,0.01781355,-9.866951,0,0,45.6301,1,1,754,998
1571,58327414,1,0.004732193,-0.001818664,0.001115888,-0.2286288,-0.01708248,-9.874420000000001,0,0,45.62954,1,1,754,998
1602,58329904,1,0.005817922,-0.003808866,0.0003918502,-0.215404,-0.01277774,-9.870879,0,0,45.62954,1,1,754,998
1615,58332701,1,0.004499153,-0.004377853,0.00382239,-0.1966134,-0.008691692000000001,-9.850676999999999,0,0,45.62954,1,1,754,998
1618,58334556,1,0.002370917,-0.005040739,0.005220362,-0.1749217,0.009380291000000001,-9.831528,0,0,45.62954,1,1,754,998
1625,58337752,1,-0.001204456,-0.007446961,0.007205667,-0.1385723,0.04318781,-9.809664,0,0,45.62923,1,1,754,998
1656,58340600,1,-0.001566634,-0.006911343,0.006915062,-0.1204059,0.07004634,-9.779173999999999,0,0,45.62923,1,1,754,998
1659,58342908,1,-0.002256451,-0.005758932,0.005753004,-0.1148967,0.080356,-9.754357000000001,0,0,45.62923,1,1,754,998
1662,58345547,1,-0.00265976,-0.002032101,0.003313953,-0.1142894,0.08997094,-9.727287,0,0,45.62923,1,1,754,998
1666,58347744,1,0.0004998099,0.001237259,0.001527291,-0.1169273,0.09623867999999999,-9.710248999999999,0,0,45.62923,1,1,754,998
1697,58350155,1,0.003749836,0.002471144,-0.0003318839,-0.1240339,0.09723219,-9.682454999999999,0,0,45.62891,1,1,754,998
1700,58353074,1,0.004403017,0.003266516,-0.003519454,-0.1275835,0.09925695,-9.665048000000001,0,0,45.62891,1,1,754,998
1703,58355160,1,0.002983357,0.004810106,-0.004201756,-0.144596,0.09399393,-9.659397,0,0,45.62891,1,1,754,998
1706,58358011,1,0.00243446,0.006878402,-0.00392189,-0.1544795,0.09059501,-9.679691999999999,0,0,45.62891,1,1,754,998
1737,58360322,1,0.004282959,0.00475614,-0.002155045,-0.1697446,0.07202496,-9.706507999999999,0,0,45.62856,1,1,754,998
1740,58363060,1,0.0063194,0.000119625,0.0003575053,-0.18209,0.05992732,-9.713480000000001,0,0,45.62856,1,1,754,998
1743,58366032,1,0.004840815,-0.001605324,0.004068364,-0.1932504,0.04637841,-9.719779000000001,0,0,45.62856,1,1,754,998
1747,58368386,1,0.000864369,-0.002514764,0.005308958,-0.2026791,0.01475536,-9.758569,0,0,45.62856,1,1,754,998
1778,58370978,1,-0.001906343,-0.001974844,0.005689757,-0.2135402,-0.01622981,-9.797741,0,0,45.62817,1,1,754,998
1781,58373525,1,-0.0007944553,-0.001060588,0.007116327,-0.2209756,-0.03495654,-9.81704,0,0,45.62817,1,1,754,998
1784,58377519,1,0.002019037,0.0001294715,0.007989018000000001,-0.2170878,-0.07491925000000001,-9.835095000000001,0,0,45.62817,1,1,754,998
1787,58381541,1,0.005076911,0.001611793,0.005692398,-0.196272,-0.1152863,-9.834619999999999,0,0,45.62776,1,1,754,998
1819,58384556,1,0.006026285,8.874362e-05,0.004993563,-0.1931343,-0.1153302,-9.835414,0,0,45.62776,1,1,754,998
1822,58387334,1,0.004929588,-4.691477e-05,0.003818141,-0.1983317,-0.1095884,-9.829325000000001,0,0,45.62776,1,1,754,998
1825,58389676,1,0.004287397,0.0002211783,0.002566172,-0.2095221,-0.0775338,-9.822295,0,0,45.62776,1,1,754,998
1830,58392703,1,0.004365657,-0.000624935,-2.099037e-05,-0.217539,-0.04598228,-9.827285,0,0,45.62776,1,1,754,998
1861,58395020,1,0.004657359,-0.0004667757,-0.0018887,-0.2176829,-0.0140324,-9.824223,0,0,45.62735,1,1,754,998
1865,58397493,1,0.003759478,0.002668495,-0.003131753,-0.2240289,-0.005600376,-9.821054,0,0,45.62735,1,1,754,998
1868,58400555,1,0.003563817,0.002664683,-0.002841923,-0.2397032,-0.009412321,-9.822371,0,0,45.62735,1,1,754,998
1871,58402552,1,0.00376993,-7.491960999999999e-05,-4.102935e-05,-0.2495939,-0.00990538,-9.816013,0,0,45.62735,1,1,754,998
1902,58405550,1,0.001142189,0.001369699,0.003503847,-0.2599658,-0.01582621,-9.831985,0,0,45.62693,1,1,754,998
1906,58407561,1,0.0002573134,0.002717064,0.003448177,-0.2683575,-0.02623287,-9.842349,0,0,45.62693,1,1,754,998
1909,58410156,1,0.001510128,0.004922802,0.0001872555,-0.2653745,-0.03286608,-9.855432,0,0,45.62693,1,1,754,998
1912,58413280,1,0.003269538,0.005073981,0.000289329,-0.2582391,-0.03741636,-9.850671,0,0,45.62693,1,1,754,998
1943,58415493,1,0.005420909,0.004626091,-0.0007056286,-0.2390153,-0.04415908,-9.823441000000001,0,0,45.62653,1,1,754,998
1947,58418335,1,0.005227531,0.004640261,-0.002704184,-0.2126116,-0.04609154,-9.798353000000001,0,0,45.62653,1,1,754,998
1950,58420708,1,0.004818633,0.004866752,-0.002772413,-0.1946887,-0.03651889,-9.777448,0,0,45.62653,1,1,754,998
1953,58423738,1,0.004757987,0.006958082,-0.004041643,-0.1765113,-0.002737598,-9.761469,0,0,45.62653,1,1,754,998
1984,58425967,1,-0.0007083893,0.006311245,-0.002695993,-0.1711484,0.02328523,-9.761448,0,0,45.62614,1,1,754,998
1987,58428955,1,-0.004497319,0.005049332,-0.001345597,-0.1700477,0.03928145,-9.756372000000001,0,0,45.62614,1,1,754,998
1990,58431330,1,-0.009676298999999999,0.00309497,0.001105696,-0.1734653,0.0500303,-9.75516,0,0,45.62614,1,1,754,998
1994,58434332,1,-0.01099949,0.004216461,0.002140923,-0.1815827,0.05912912,-9.755039,0,0,45.62614,1,1,754,998
2025,58436643,1,-0.01066356,0.006803315,0.001047184,-0.1891532,0.05618439,-9.722538999999999,0,0,45.62575,1,1,754,998
2029,58439908,1,-0.008334632,0.006941372,-0.002428795,-0.1947903,0.03207134,-9.693784000000001,0,0,45.62575,1,1,754,998
2037,58442030,1,-0.005233281,0.006277783,-0.006208718,-0.2031664,0.02448067,-9.69276,0,0,45.62575,1,1,754,998
2040,58444178,1,-0.003576366,0.005762175,-0.00719971,-0.1966792,0.02046629,-9.706678,0,0,45.62575,1,1,754,998
2073,58447246,1,-0.004229942,0.003056448,-0.004520267,-0.1779577,0.01982008,-9.723259000000001,0,0,45.62538,1,1,754,998
2076,58449934,1,-0.004380344,0.00305924,-0.004090245,-0.1851551,0.01106154,-9.732619,0,0,45.62538,1,1,754,998
2079,58451518,1,-0.002347991,0.003524406,-0.002648405,-0.1944828,0.006095712,-9.739096999999999,0,0,45.62538,1,1,754,998
2082,58454591,1,0.001191838,0.0002706953,-0.002672585,-0.2016724,0.005453288,-9.7453,0,0,45.62538,1,1,754,998
2113,58456775,1,0.0006612328,-0.001759571,-0.003995055,-0.2010445,-0.005260085,-9.767927,0,0,45.62538,1,1,754,998
2117,58459877,1,-0.001015995,-0.001133205,-0.002836701,-0.2010485,-0.01358034,-9.782914,0,0,45.62502,1,1,754,998
2120,58462164,1,-0.0009955383999999999,-0.0005918904,-0.001648338,-0.2053872,-0.01695706,-9.795361,0,0,45.62502,1,1,754,998
2123,58464359,1,0.0003998386,-0.0001065848,-0.001062915,-0.2145585,-0.003784186,-9.81467,0,0,45.62502,1,1,754,998
2154,58466611,1,0.002218485,0.0024574,-0.001629589,-0.2168564,0.00215131,-9.8188,0,0,45.62502,1,1,754,998
2157,58469468,1,0.001035182,0.006974814,-0.001055656,-0.2225404,0.01295329,-9.815248,0,0,45.62502,1,1,754,998
2160,58472866,1,-0.0006573897,0.005947458,0.0009344792,-0.2204601,0.01299815,-9.801028000000001,0,0,45.62466,1,1,754,998
2163,58474397,1,-0.001260012,0.001158285,0.002473498,-0.2196436,-0.003845885,-9.794975000000001,0,0,45.62466,1,1,754,998
2194,58477393,1,0.0003120816,-0.001426489,0.002158883,-0.2199629,-0.02033123,-9.815764,0,0,45.62466,1,1,754,998
2198,58479363,1,0.003048152,-0.002413571,0.001814896,-0.2216145,-0.02674908,-9.826058,0,0,45.62466,1,1,754,998
2201,58482481,1,0.00429608,-0.00255667,0.002081132,-0.2252206,-0.03060927,-9.834645,0,0,45.62432,1,1,754,998
2204,58484389,1,0.003986959,-0.003918398,0.001096053,-0.2355705,-0.03058409,-9.856956,0,0,45.62432,1,1,754,998
2235,58486706,1,0.0009035239,-0.004238962,-0.002470332,-0.2472891,-0.02602241,-9.861635,0,0,45.62432,1,1,754,998
2239,58490561,1,-0.00087914,-0.004653946,-0.002911528,-0.2459181,-0.01984869,-9.843845,0,0,45.62432,1,1,754,998
2242,58491803,1,-0.003622897,-0.004245297,-0.003307469,-0.2283257,-0.02428752,-9.796486,0,0,45.62398,1,1,754,998
2246,58495116,1,-0.003494775,-0.004674664,-0.003476047,-0.2239873,-0.0344106,-9.768843,0,0,45.62398,1,1,754,998
2277,58497249,1,-0.002760186,-0.006954145,-0.003630516,-0.2322512,-0.03899571,-9.756875000000001,0,0,45.62398,1,1,754,998
2280,58500695,1,-0.00335807,-0.01006416,-0.002784257,-0.2407082,-0.03853282,-9.757440000000001,0,0,45.62398,1,1,754,998
2283,58501964,1,-0.004693579,-0.00945875,-0.0009516071,-0.2596448,-0.02738151,-9.749212,0,0,45.62398,1,1,754,998
2289,58504961,1,-0.003795282,-0.005298872,0.001381306,-0.2669222,-0.02089581,-9.742902000000001,0,0,45.62365,1,1,754,998
2320,58507534,1,-0.00152208,-0.001211132,0.003290625,-0.2691242,-0.01704279,-9.75113,0,0,45.62365,1,1,754,998
2324,58509925,1,-0.0002636376,0.0005398123,0.004357302,-0.2609472,-0.02916645,-9.760334,0,0,45.62365,1,1,754,998
2327,58512324,1,0.0027385,0.002700754,0.004321416,-0.2515052,-0.06780348999999999,-9.775043,0,0,45.62365,1,1,754,998
2330,58514494,1,0.002653928,0.002954707,0.003710093,-0.2513167,-0.09320997,-9.793339,0,0,45.62332,1,1,754,998
2361,58516894,1,0.0005620448,0.002547727,0.002297682,-0.2548001,-0.09213151,-9.834725000000001,0,0,45.62332,1,1,754,998
2364,58520029,1,-0.0004546781,-0.0008033959,0.001997259,-0.2526684,-0.0820953,-9.862380999999999,0,0,45.62332,1,1,754,998
2367,58522020,1,-0.000295727,-0.003875925,0.002207451,-0.2404974,-0.05293022,-9.877806,0,0,45.62332,1,1,754,998
2370,58524806,1,0.001491788,-0.004221182,0.0003283468,-0.2350374,-0.03075902,-9.881785000000001,0,0,45.62332,1,1,754,998
2401,58527520,1,0.003171674,-0.003527351,-0.001929964,-0.2296136,-0.006145184,-9.878391000000001,0,0,45.623,1,1,754,998
2405,58529883,1,0.002864062,-0.004252573,-0.0009941326,-0.2226999,0.009334537,-9.873137,0,0,45.623,1,1,754,998
2408,58532329,1,0.003073926,-0.004436266,-0.0004109422,-0.2167307,0.02007691,-9.872762,0,0,45.623,1,1,754,998
2411,58534507,1,0.003364306,-0.004432697,-0.000718264,-0.2247798,0.01347105,-9.865237,0,0,45.623,1,1,754,998
2442,58537128,1,0.003047361,-0.004103404,4.875945e-05,-0.2401457,-0.0002789409,-9.864134999999999,0,0,45.6227,1,1,754,998
2446,58540167,1,0.002887426,-0.003596405,0.0004053908,-0.2412476,-0.01426037,-9.867796,0,0,45.6227,1,1,754,998
2454,58542275,1,0.003391488,-0.001844876,-0.0008335731,-0.2358939,-0.04441194,-9.864547999999999,0,0,45.6227,1,1,754,998
2457,58545116,1,0.00367758,-0.002720659,-0.003149054,-0.2303348,-0.06236093,-9.85033,0,0,45.6227,1,1,754,998
2488,58547326,1,0.001967739,-0.006078182,-0.002843237,-0.2245832,-0.06864525,-9.83521,0,0,45.6224,1,1,754,998
2492,58550161,1,-0.001973933,-0.006996514,-0.0008178037,-0.2168122,-0.05192586,-9.823411999999999,0,0,45.6224,1,1,754,998
2495,58553013,1,-0.006131154,-0.006443487,-0.0001026464,-0.2135461,-0.0464062,-9.809416000000001,0,0,45.6224,1,1,754,998
2498,58555561,1,-0.005312321,-0.003612447,-0.0003863728,-0.2212345,-0.04046649,-9.780912000000001,0,0,45.6224,1,1,754,998
2529,58557875,1,-0.0006660801,-0.0009944859999999999,-0.001738109,-0.2239507,-0.01782056,-9.762142000000001,0,0,45.62212,1,1,754,998
2533,58560574,1,0.002776409,-0.003107993,-0.004005667,-0.221932,-0.004303764,-9.753107,0,0,45.62212,1,1,754,998
2536,58563048,1,0.004719183,-0.00547367,-0.002909017,-0.2226339,0.004645025,-9.729918,0,0,45.62212,1,1,754,998
2539,58565972,1,0.00285233,-0.005143424,-0.001660673,-0.2266657,0.007579041,-9.709187,0,0,45.62212,1,1,754,998
2570,58568967,1,0.001321145,-0.004917458,-0.0002274117,-0.2370264,0.008963291999999999,-9.679669000000001,0,0,45.62212,1,1,754,998
2573,58570461,1,0.001897118,-0.005091297,0.0006486952,-0.2422599,0.01018858,-9.669582,0,0,45.62183,1,1,754,998
2576,58573023,1,0.003172889,-0.003963237,0.0001025639,-0.2491579,0.01131154,-9.655287,0,0,45.62183,1,1,754,998
2579,58575549,1,0.003833435,-0.003376792,-0.0002898508,-0.2525561,0.0007465353,-9.6655,0,0,45.62183,1,1,754,998
2613,58582304,1,0.003230233,-0.00358688,0.002400225,-0.2491061,-0.03788318,-9.737182000000001,0,0,45.62155,1,1,754,998
2617,58583493,1,0.002393749,-0.003499417,0.001697897,-0.2407376,-0.04356337,-9.745206,0,0,45.62155,1,1,754,998
2620,58585932,1,0.0001244176,-0.004168418,0.001733761,-0.2332928,-0.05916247,-9.764068999999999,0,0,45.62155,1,1,754,998
2651,58588361,1,-0.0005145692000000001,-0.003852232,0.001949265,-0.2312944,-0.06252781,-9.778701999999999,0,0,45.62155,1,1,754,998
2654,58591256,1,-0.0009372765,-0.002597388,0.001722124,-0.2278686,-0.06212103,-9.795059,0,0,45.62128,1,1,754,998
2658,58593955,1,-0.0009400478,0.001619579,0.000462294,-0.2280273,-0.06465239,-9.807740000000001,0,0,45.62128,1,1,754,998
2663,58597020,1,-0.001694332,0.004880774,-0.0005291597,-0.2411598,-0.05422229,-9.8161,0,0,45.62128,1,1,754,998
2694,58599125,1,-0.002045477,0.002623265,-0.0009377216,-0.2462386,-0.03932836,-9.815302000000001,0,0,45.62128,1,1,754,998
2697,58601922,1,-0.002502616,-0.001734626,-0.0004910591,-0.2375522,-0.03095088,-9.815365,0,0,45.62128,1,1,754,998
2701,58604322,1,-0.00260541,-0.003523735,-0.003229852,-0.2163266,-0.02168875,-9.804472000000001,0,0,45.62102,1,1,754,998
2704,58607178,1,-0.001654151,-0.002743925,-0.006400751,-0.2044634,-0.01744318,-9.792128,0,0,45.62102,1,1,754,998
2735,58610001,1,-0.0009483914,-0.0008503741,-0.007728823,-0.1958104,-0.009275724000000001,-9.771684,0,0,45.62102,1,1,754,998
2738,58612369,1,-0.002747491,6.121333999999999e-05,-0.006727532,-0.1799948,0.006519822,-9.739153999999999,0,0,45.62102,1,1,754,998
2742,58614485,1,-0.002932948,0.0001863811,-0.004164708,-0.1696466,0.01545637,-9.732193000000001,0,0,45.62076,1,1,754,998
2745,58616933,1,-0.0008979953,-0.001017021,-0.001789253,-0.1575149,0.02801717,-9.750425999999999,0,0,45.62076,1,1,754,998
2776,58619951,1,-0.0004417288,-0.001460552,-0.001450325,-0.1568392,0.03592252,-9.76862,0,0,45.62076,1,1,754,998
2779,58622328,1,0.0006715778,0.0002822907,-0.0002206584,-0.1785914,0.03683924,-9.788667,0,0,45.62076,1,1,754,998
2782,58624391,1,0.001150236,0.001531287,0.0003849443,-0.2024246,0.02968943,-9.796813,0,0,45.6205,1,1,754,998
2785,58626887,1,-4.756293e-05,0.001799786,0.00177762,-0.2348258,0.0132133,-9.812424,0,0,45.6205,1,1,754,998
2817,58629995,1,-0.0002145269,0.0009908250999999999,0.002766441,-0.2552427,0.004513931,-9.817848,0,0,45.6205,1,1,754,998
2820,58632323,1,0.001317478,-0.00338261,0.006152363,-0.281603,-0.01322051,-9.82582,0,0,45.6205,1,1,754,998
2824,58634908,1,0.003606478,-0.006133252,0.009825858999999999,-0.2897587,-0.02274221,-9.822972999999999,0,0,45.6205,1,1,754,998
2828,58637516,1,0.002985372,-0.005884224,0.01064433,-0.2966956,-0.03103331,-9.817918000000001,0,0,45.62025,1,1,754,998
2859,58639890,1,-0.001536395,-0.003866946,0.008007119,-0.297928,-0.032391,-9.812032,0,0,45.62025,1,1,754,998
2862,58642376,1,-0.004399949,-0.0009165519999999999,0.004987216,-0.304325,-0.03023748,-9.805766999999999,0,0,45.62025,1,1,754,998
2869,58645887,1,-0.0044828,0.0003011248,0.003736997,-0.3081805,-0.02916117,-9.79617,0,0,45.62025,1,1,754,998
2872,58647315,1,-0.002945141,0.003928406,0.0004410398,-0.317004,-0.01930725,-9.762479000000001,0,0,45.62001,1,1,754,998
2903,58650356,1,-0.0008153211,0.004431466,-0.001264057,-0.3286819,-0.01134219,-9.741804999999999,0,0,45.62001,1,1,754,998
2906,58652308,1,0.0005121895,0.004139053,-0.002117309,-0.3414316,-0.01143676,-9.734351,0,0,45.62001,1,1,754,998
2910,58654892,1,0.003565039,0.002860647,-0.003925929,-0.3478242,-0.02327927,-9.758552,0,0,45.62001,1,1,754,998
2913,58657986,1,0.003830618,0.002156632,-0.003696916,-0.3593161,-0.03798893,-9.818469,0,0,45.61978,1,1,754,998
2944,58660130,1,0.003054291,0.001056291,-0.002738297,-0.3522822,-0.04361396,-9.864406000000001,0,0,45.61978,1,1,754,998
2947,58663043,1,0.002919648,0.001269432,-0.003151691,-0.3402559,-0.03885864,-9.884657000000001,0,0,45.61978,1,1,754,998
2951,58665879,1,0.0007032377,0.0003965403,-0.002935842,-0.320984,-0.02881152,-9.903423,0,0,45.61978,1,1,754,998
2954,58668347,1,-0.002552497,0.0002948359,-0.002377893,-0.3008047,-0.03281991,-9.906323,0,0,45.61978,1,1,754,998
2985,58670784,1,-0.003404371,-0.0008106825,-0.0001053008,-0.2448084,-0.06671136,-9.85802,0,0,45.61955,1,1,754,998
2989,58673404,1,-0.004429641,-0.001046836,-0.0005930757,-0.2206801,-0.0799337,-9.840173999999999,0,0,45.61955,1,1,754,998
2992,58676044,1,-0.00602199,0.00104001,-0.002804089,-0.2001128,-0.08214413,-9.830033999999999,0,0,45.61955,1,1,754,998
2995,58679038,1,-0.005703551,0.001322783,-0.001887653,-0.1734083,-0.08336811,-9.834500999999999,0,0,45.61955,1,1,754,998
3026,58682872,1,-0.005436631,0.002220954,0.0002758149,-0.1530018,-0.08466765,-9.843322000000001,0,0,45.61933,1,1,754,998
3029,58684160,1,-0.002372261,0.000332313,0.0017041,-0.1339004,-0.09032952,-9.845215,0,0,45.61933,1,1,754,998
3033,58686604,1,-0.0002970189,-0.001587271,0.0007450695,-0.1262172,-0.09319226999999999,-9.831205000000001,0,0,45.61933,1,1,754,998
3036,58689369,1,0.001942648,-0.005578839,-0.00052152,-0.1154835,-0.09925196,-9.796625000000001,0,0,45.61933,1,1,754,998
3067,58692709,1,0.002152122,-0.006718875,-0.0008431967,-0.1188408,-0.07708912,-9.753534,0,0,45.61912,1,1,754,998
3070,58694268,1,0.002748996,-0.006786263,0.0005099213,-0.1252829,-0.05632539,-9.739996,0,0,45.61912,1,1,754,998
3073,58697122,1,0.004437808,-0.008311852999999999,0.004141057,-0.1334746,-0.03837584,-9.730829999999999,0,0,45.61912,1,1,754,998
3076,58699142,1,0.005308016,-0.008927961999999999,0.003999657,-0.1534445,-0.005445572,-9.741342,0,0,45.61912,1,1,754,998
3107,58701562,1,0.005840171,-0.009180239,0.001374704,-0.1827845,0.02346367,-9.758255999999999,0,0,45.61892,1,1,754,998
3110,58704897,1,0.004822956,-0.009344030999999999,-0.002434182,-0.2037786,0.03517758,-9.769121999999999,0,0,45.61892,1,1,754,998
3114,58706551,1,0.004035378,-0.008563965,-0.004904507,-0.2229693,0.03565838,-9.779505,0,0,45.61892,1,1,754,998
3117,58711893,1,0.005438344,0.001471025,-0.004591916,-0.2540565,0.01790392,-9.778165,0,0,45.61872,1,1,754,998
3148,58714513,1,0.003953358,0.0008953444,-0.003054688,-0.26309,0.01295193,-9.784996,0,0,45.61872,1,1,754,998
3151,58717350,1,0.002266966,-0.00159459,0.004140032,-0.2892816,0.004075402,-9.794461999999999,0,0,45.61872,1,1,754,998
3154,58719795,1,0.002750905,-0.001349655,0.006382362,-0.3033966,-0.003958548,-9.79575,0,0,45.61872,1,1,754,998
3157,58722505,1,0.004116679,0.001151319,0.009379083,-0.3191696,-0.004168785,-9.796972,0,0,45.61872,1,1,754,998
3188,58724981,1,0.004434067,0.004405194,0.008102286,-0.3298756,-0.001934266,-9.802376000000001,0,0,45.61851,1,1,754,998
3192,58727332,1,0.002580173,0.00561264,0.005812682,-0.3213407,0.004123431,-9.820672,0,0,45.61851,1,1,754,998
3195,58730352,1,-0.0006844888,0.007481671,0.001430402,-0.3042998,-0.002015527,-9.862360000000001,0,0,45.61851,1,1,754,998
3198,58733015,1,-0.001675512,0.007449142,-0.0001533821,-0.2926021,-0.01207289,-9.891686999999999,0,0,45.61851,1,1,754,998
3229,58735475,1,-0.002223152,0.005638307,-0.0001037816,-0.2784,-0.01691499,-9.915051999999999,0,0,45.61832,1,1,754,998
3232,58737753,1,-0.00264516,0.001824137,0.0011164,-0.2835736,-0.009076262,-9.944912,0,0,45.61832,1,1,754,998
3235,58740466,1,-0.00328632,0.0006248428,-4.923239e-05,-0.2907716,-0.01115647,-9.973564,0,0,45.61832,1,1,754,998
3240,58743499,1,-0.003451169,0.0008328285,-0.0005798548,-0.3000884,-0.01448528,-9.99638,0,0,45.61832,1,1,754,998
3271,58746454,1,-0.0001172374,0.002268361,0.002871591,-0.311618,-0.01299914,-10.0227,0,0,45.61816,1,1,754,998
3279,58749013,1,-0.0005515439999999999,0.00220771,0.002836315,-0.3200938,-0.003787934,-10.02831,0,0,45.61816,1,1,754,998
3282,58751069,1,-0.002694597,0.001998397,0.001734135,-0.3229577,0.02027273,-10.03733,0,0,45.61816,1,1,754,998
3285,58753507,1,-0.005363859,0.002658027,0.001867279,-0.3162274,0.03909233,-10.02461,0,0,45.61816,1,1,754,998
3316,58756773,1,-0.004738854,0.001436404,0.003244825,-0.2941793,0.05403651,-9.988137,0,0,45.61804,1,1,754,998
3319,58759457,1,-0.001406308,0.002256142,0.003778526,-0.274533,0.04900014,-9.972920999999999,0,0,45.61804,1,1,754,998
3322,58761309,1,0.0003915418,0.003330964,0.00397997,-0.2676364,0.03883617,-9.968455000000001,0,0,45.61804,1,1,754,998
3325,58763885,1,0.001351205,0.0003982364,0.003183567,-0.2569396,0.02920324,-9.945755,0,0,45.61804,1,1,754,998
3356,58766323,1,0.002858614,-0.005466567,0.00140124,-0.2514284,0.02294725,-9.924288000000001,0,0,45.61804,1,1,754,998
3359,58769562,1,0.0007424239,-0.006321896,-0.000311679,-0.2481857,0.01079199,-9.882668000000001,0,0,45.61796,1,1,754,998
3362,58772105,1,-0.001348289,-0.005587303,-0.001577287,-0.2413978,0.009839132,-9.851792,0,0,45.61796,1,1,754,998
3365,58773894,1,-0.006095736,-0.0043908,9.852723e-05,-0.224017,0.02456581,-9.811017,0,0,45.61796,1,1,754,998
3396,58776255,1,-0.007290791,-0.004727867,0.001707437,-0.2116643,0.03482854,-9.776422,0,0,45.61796,1,1,754,998
3399,58778757,1,-0.005307665,-0.008973296,0.001143568,-0.1981326,0.0457953,-9.721080000000001,0,0,45.61789,1,1,754,998
3404,58782246,1,-0.003565679,-0.01056769,-0.001271034,-0.1978714,0.04138046,-9.694086,0,0,45.61789,1,1,754,998
3407,58784397,1,-0.001482759,-0.009549156,-0.006431082,-0.1995393,0.02598137,-9.679204,0,0,45.61789,1,1,754,998
3438,58786780,1,-0.003815444,-0.003817648,-0.006988331,-0.2054142,0.01612644,-9.667925,0,0,45.61789,1,1,754,998
3441,58789600,1,-0.005708965,-0.002143741,-0.00673921,-0.2167121,0.01451245,-9.665785,0,0,45.61783,1,1,754,998
3445,58793437,1,-0.006870522,0.0003535776,-0.006724445,-0.2256346,0.01602319,-9.708093999999999,0,0,45.61783,1,1,754,998
3448,58794702,1,-0.00467491,0.002112335,-0.006537357,-0.2263283,0.01782613,-9.762663999999999,0,0,45.61783,1,1,754,998
3479,58800104,1,-0.0009432794,0.0008068195999999999,-0.001001587,-0.2437219,0.02064585,-9.874866000000001,0,0,45.61777,1,1,754,998
3484,58803156,1,0.0003787574,-0.001988876,0.001893542,-0.2475616,0.01101833,-9.873569,0,0,45.61777,1,1,754,998
3487,58805492,1,0.0001022264,-0.003148869,0.001599169,-0.2490107,0.004030637,-9.835851999999999,0,0,45.61777,1,1,754,998
3518,58807714,1,0.0004831805,-0.001270893,0.001702233,-0.2437173,0.004419519,-9.778491000000001,0,0,45.61777,1,1,754,998
3521,58810514,1,-0.0001882661,0.001776763,0.00260319,-0.236725,0.0007247661,-9.731999,0,0,45.61777,1,1,754,998
3525,58813504,1,-0.000576707,0.0041004,0.002653446,-0.2337205,-0.005941467,-9.713545999999999,0,0,45.61771,1,1,754,998
3528,58815914,1,-0.0007527318,0.004364858,0.001485014,-0.2213049,-0.02322866,-9.67374,0,0,45.61771,1,1,754,998
3559,58818009,1,-0.001212309,-0.001383594,0.002127165,-0.2071766,-0.02523008,-9.650634999999999,0,0,45.61771,1,1,754,998
3562,58820927,1,-0.001472518,-0.003786381,0.00350562,-0.2115435,-0.01713584,-9.652754,0,0,45.61771,1,1,754,998
3565,58823725,1,-0.002996386,-0.005017227,0.004833488,-0.2273507,-0.01651947,-9.665956,0,0,45.61765,1,1,754,998
3568,58826247,1,-0.003368775,-0.004367923,0.004037989,-0.2425934,-0.03321309,-9.675094,0,0,45.61765,1,1,754,998
3599,58828294,1,-0.002915113,-0.004148384,-0.0007472618,-0.2697963,-0.05256832,-9.697986999999999,0,0,45.61765,1,1,754,998
3602,58830983,1,-0.001529699,-0.004058637,-0.002432808,-0.2698663,-0.05765029,-9.707079999999999,0,0,45.61765,1,1,754,998
3606,58833661,1,-0.002799605,-0.003200507,-0.002796007,-0.2606384,-0.05350791,-9.715717,0,0,45.61765,1,1,754,998
3609,58836174,1,-0.00736941,0.001316261,-0.003624964,-0.2505937,-0.04552719,-9.726863,0,0,45.61758,1,1,754,998
3640,58839080,1,-0.007324596,0.001722163,-0.002852081,-0.2523506,-0.04983357,-9.711781999999999,0,0,45.61758,1,1,754,998
3644,58841505,1,-0.005881116,0.0004506861,0.000830769,-0.2700772,-0.06195066,-9.657892,0,0,45.61758,1,1,754,998
3648,58843570,1,-0.003780428,-0.001578542,0.003949227,-0.2734273,-0.06648328000000001,-9.631686,0,0,45.61758,1,1,754,998
3652,58846024,1,-0.002488638,-0.0009331882,0.003418805,-0.2788982,-0.06343554,-9.619821,0,0,45.61752,1,1,754,998
3683,58848329,1,-0.002386596,0.0006456331,0.002565148,-0.2737344,-0.05627612,-9.619534,0,0,45.61752,1,1,754,998
3690,58851731,1,-0.002960543,0.00359035,0.002099098,-0.2514126,-0.02278954,-9.643812,0,0,45.61752,1,1,754,998
3694,58853580,1,-0.002436645,0.004971075,0.001733928,-0.2433491,0.01250902,-9.674327999999999,0,0,45.61752,1,1,754,998
3697,58856380,1,-0.001059683,0.002858779,0.002681453,-0.2395207,0.04967231,-9.713514999999999,0,0,45.61746,1,1,754,998
3728,58858998,1,0.0007034782,0.0007742773,0.003013727,-0.2352557,0.05598115,-9.715567999999999,0,0,45.61746,1,1,754,998
3731,58861767,1,0.002073504,0.0005105065,0.003349475,-0.2291959,0.05393753,-9.712495000000001,0,0,45.61746,1,1,754,998
3734,58864587,1,0.003415596,0.0004776829,0.003526983,-0.2212272,0.0570456,-9.68843,0,0,45.61746,1,1,754,998
3738,58866494,1,0.002827169,0.0008914548999999999,0.00402193,-0.2162019,0.05017582,-9.672609,0,0,45.61746,1,1,754,998
3769,58869429,1,0.001877461,0.001016968,0.006156285,-0.2229067,0.03258613,-9.654093,0,0,45.6174,1,1,754,998
3772,58871466,1,0.00106814,-0.0008028653,0.006472086,-0.2382813,0.02362987,-9.639078,0,0,45.6174,1,1,754,998
3776,58873952,1,-0.0008861842,-0.001327689,0.006440324,-0.2600734,0.0191402,-9.652134,0,0,45.6174,1,1,754,998
3779,58877042,1,-0.001152938,-0.002743718,0.007309036,-0.2695255,0.01616291,-9.663399,0,0,45.6174,1,1,754,998
3810,58879802,1,-0.0001440939,-0.005190556,0.007901457000000001,-0.2835801,-0.0009003888,-9.675164000000001,0,0,45.61732,1,1,754,998
3813,58882151,1,-0.000504972,-0.007505581,0.008101578,-0.2857185,0.00886998,-9.678008,0,0,45.61732,1,1,754,998
3817,58884374,1,-0.002662224,-0.009590278000000001,0.009163499,-0.2822833,0.02535863,-9.672337000000001,0,0,45.61732,1,1,754,998
3820,58888277,1,-0.005592194,-0.007732882,0.007882441,-0.2812845,0.03011637,-9.699236000000001,0,0,45.61732,1,1,754,998
3823,58889802,1,-0.008452207,-0.0007261642999999999,0.003441591,-0.2816075,0.0227138,-9.728149,0,0,45.61721,1,1,754,998
3854,58892544,1,-0.01054533,0.007013951,-0.003810986,-0.29,0.01626805,-9.774044,0,0,45.61721,1,1,754,998
3857,58894510,1,-0.01102928,0.009967498,-0.006282921,-0.2985474,0.02634301,-9.790927999999999,0,0,45.61721,1,1,754,998
3860,58897085,1,-0.007295499,0.01374248,-0.004834029,-0.2994504,0.03640445,-9.798914999999999,0,0,45.61721,1,1,754,998
3863,58900362,1,-0.005289684,0.01288113,-0.002616481,-0.3137777,0.03229563,-9.784967999999999,0,0,45.61721,1,1,754,998
3894,58902710,1,-0.001243635,0.008914194,0.002074259,-0.3165474,0.0222336,-9.772952,0,0,45.61708,1,1,754,998
3898,58906794,1,0.003313503,0.002594792,0.004750113,-0.2836106,0.01895113,-9.770749,0,0,45.61708,1,1,754,998
3901,58907975,1,0.004994417,0.0008521466,0.003241206,-0.2379922,0.02581714,-9.782056000000001,0,0,45.61708,1,1,754,998
3904,58911147,1,0.005041162,0.001324621,0.000455577,-0.2121889,0.03092339,-9.778497,0,0,45.61708,1,1,754,998
3935,58913463,1,0.001747729,0.004093693,-0.001289209,-0.1847452,0.02704076,-9.756981,0,0,45.61693,1,1,754,998
3938,58916370,1,-0.003830743,0.008081488,-0.002189561,-0.1769955,0.005054992,-9.748557999999999,0,0,45.61693,1,1,754,998
3941,58918350,1,-0.006397232,0.008194744,-0.002688765,-0.1754971,-0.01418797,-9.761619,0,0,45.61693,1,1,754,998
3944,58921112,1,-0.004973543,0.003179798,-0.001017226,-0.1723339,-0.04492867,-9.799170999999999,0,0,45.61693,1,1,754,998
3975,58924049,1,-0.003647241,-0.0002300685,-0.0006081529,-0.1670896,-0.06585845,-9.819157000000001,0,0,45.61674,1,1,754,998
3979,58926257,1,-0.00414763,-0.004435199,-0.003646763,-0.1579055,-0.08392123999999999,-9.850508,0,0,45.61674,1,1,754,998
3982,58929060,1,-0.004409551,-0.004006158,-0.005365395,-0.1634964,-0.09563898999999999,-9.888598999999999,0,0,45.61674,1,1,754,998
3985,58931122,1,-0.002776461,-0.003081893,-0.006116088,-0.171981,-0.1167144,-9.938635,0,0,45.61674,1,1,754,998
4016,58933431,1,7.269785e-05,-0.002507555,-0.002607161,-0.1869123,-0.1298533,-9.949135,0,0,45.61654,1,1,754,998
4020,58936483,1,0.001577505,-0.002926087,0.0014232,-0.2072549,-0.1071532,-9.937287,0,0,45.61654,1,1,754,998
4023,58938332,1,0.001023807,-0.002243299,0.004413507,-0.2266457,-0.07998661999999999,-9.915430000000001,0,0,45.61654,1,1,754,998
4026,58941154,1,0.0007324517,0.0008819323,0.005398501,-0.2446462,-0.06599426,-9.864100000000001,0,0,45.61654,1,1,754,998
4059,58943560,1,0.001364829,0.002493644,0.005099277,-0.2493129,-0.07038244,-9.839480999999999,0,0,45.61654,1,1,754,998
4063,58946038,1,0.002467426,0.004606314,0.003857087,-0.2562116,-0.07368179,-9.822539000000001,0,0,45.61631,1,1,754,998
4067,58949388,1,0.002925125,0.004098042,0.003470651,-0.2542315,-0.07136463,-9.811870000000001,0,0,45.61631,1,1,754,998
4070,58951329,1,0.003319934,0.001763185,0.00262801,-0.2403735,-0.06086153,-9.823962999999999,0,0,45.61631,1,1,754,998
4105,58954030,1,0.0006160252,0.0008414223,0.0004419231,-0.2308279,-0.05182579,-9.838307,0,0,45.61631,1,1,754,998
4110,58955970,1,-0.001228,7.533696e-05,-0.001486581,-0.2332298,-0.02336928,-9.859627,0,0,45.61605,1,1,754,998
4113,58958404,1,-0.001605523,-0.003704971,-0.001762684,-0.2421227,-0.001583531,-9.883523,0,0,45.61605,1,1,754,998
4116,58961343,1,-0.0005302904999999999,-0.008664065,-0.003769265,-0.2447022,0.02313391,-9.926475999999999,0,0,45.61605,1,1,754,998
4147,58964144,1,0.001544561,-0.009629123,-0.006642013,-0.2328943,0.03131815,-9.942085000000001,0,0,45.61605,1,1,754,998
4151,58966404,1,0.004003868,-0.006090586,-0.007339124,-0.2251213,0.02873187,-9.925777,0,0,45.61577,1,1,754,998
4154,58968958,1,0.005156285,-0.006476492,-0.004998342,-0.2213487,0.02522787,-9.916936,0,0,45.61577,1,1,754,998
4157,58971531,1,0.002978987,-0.007143508,-0.002612418,-0.2105277,0.0114242,-9.883571999999999,0,0,45.61577,1,1,754,998
4188,58974367,1,-7.679066999999999e-05,-0.006675935,-0.0006408516,-0.2086447,-0.01573115,-9.846717999999999,0,0,45.61577,1,1,754,998
4192,58976967,1,-0.0009356827,-0.005563589,7.131947000000001e-05,-0.2127238,-0.02198376,-9.837683999999999,0,0,45.61577,1,1,754,998
4195,58978801,1,-0.0004127872,-0.0008940026,-1.724066e-05,-0.2245566,-0.01999336,-9.838483999999999,0,0,45.61548,1,1,754,998
4198,58981457,1,0.000266976,0.0001799826,-0.0001533609,-0.2455667,-0.009535784,-9.841828,0,0,45.61548,1,1,754,998
4229,58983948,1,0.001606439,0.002734156,0.0003762338,-0.2515444,-0.003218578,-9.845039,0,0,45.61548,1,1,754,998
4233,58986977,1,0.001166157,0.002996263,0.0001273396,-0.2531799,-0.0007186998,-9.854671,0,0,45.61548,1,1,754,998
4238,58989766,1,-1.461854e-05,0.0009784142,-0.0005339392000000001,-0.2530438,-0.005577266,-9.867602,0,0,45.61519,1,1,754,998
4241,58991286,1,-0.001009725,0.001659174,-0.000118779,-0.2519286,-0.007994701,-9.863066,0,0,45.61519,1,1,754,998
4272,58994315,1,-0.001097737,0.00211516,0.0005197152,-0.2522641,-0.01167773,-9.855915,0,0,45.61519,1,1,754,998
4276,58996498,1,-0.001669748,0.001812416,0.0006474357,-0.2510347,-0.01001639,-9.847239999999999,0,0,45.61519,1,1,754,998
4279,59000472,1,-0.001983952,0.0003661377,0.0008803326,-0.2545566,-0.01269693,-9.840755,0,0,45.61519,1,1,754,998
4282,59003107,1,-0.0009633232,-0.0003265292,0.0006334241,-0.2597897,-0.01036151,-9.847498,0,0,45.61491,1,1,754,998
4285,59004313,1,0.002990503,-0.0007661918,0.0004803246,-0.2652378,-0.0201637,-9.857151999999999,0,0,45.61491,1,1,754,998
4316,59007068,1,0.00206603,5.62284e-05,-5.607682e-05,-0.2807565,-0.03020345,-9.857552,0,0,45.61491,1,1,754,998
4319,59010139,1,0.001349954,0.000620852,-0.000267302,-0.2806472,-0.02675072,-9.852217,0,0,45.61491,1,1,754,998
4322,59012509,1,-0.001351477,0.004638063,-0.001025249,-0.2665841,-0.01861304,-9.848741,0,0,45.61464,1,1,754,998
4325,59015487,1,-0.001656668,0.004733594,-0.0008177568000000001,-0.2522207,-0.02786674,-9.847676,0,0,45.61464,1,1,754,998
4356,59017988,1,-0.0004556098,0.002253118,-0.0003056015,-0.2189576,-0.03882331,-9.833818000000001,0,0,45.61464,1,1,754,998
4360,59020490,1,0.001192919,0.0001069975,-0.001789492,-0.1937206,-0.06315541,-9.837667,0,0,45.61464,1,1,754,998
4363,59023363,1,0.0006256357,-0.000383954,-0.002643242,-0.1868637,-0.08087002,-9.841365,0,0,45.61437,1,1,754,998
4366,59025308,1,0.0005949348,-0.001322142,-0.003567229,-0.1915977,-0.09639978,-9.849589999999999,0,0,45.61437,1,1,754,998
4397,59028092,1,0.001315475,-0.00125535,-0.003523551,-0.1996187,-0.09482222999999999,-9.860302000000001,0,0,45.61437,1,1,754,998
4401,59030411,1,0.003313584,0.0004956591,-0.004206485,-0.2031827,-0.09660046999999999,-9.867098,0,0,45.61437,1,1,754,998
4405,59032604,1,0.002759291,0.002221075,-0.004800207,-0.1976581,-0.1044342,-9.864829,0,0,45.61437,1,1,754,998
4408,59035767,1,0.001668981,0.003055445,-0.002867568,-0.1952942,-0.07760336,-9.860407,0,0,45.61412,1,1,754,998
4439,59038413,1,0.001182247,0.0008978798,-0.001495683,-0.2027624,-0.04754981,-9.838891,0,0,45.61412,1,1,754,998
4442,59040744,1,-0.002075018,-0.003100964,-0.001432392,-0.2068255,-0.04136252,-9.804572,0,0,45.61412,1,1,754,998
4445,59043082,1,-0.005258733,-0.004666526,-3.671835e-05,-0.2001604,-0.04234335,-9.771953,0,0,45.61412,1,1,754,998
4448,59045499,1,-0.004346507,-0.001923484,0.001544975,-0.1927134,-0.04434456,-9.776301,0,0,45.61387,1,1,754,998
4479,59048511,1,-0.0004950205,-0.0006554752,0.002748892,-0.1860483,-0.060473,-9.801026999999999,0,0,45.61387,1,1,754,998
4483,59051076,1,0.0008784887,-0.001694595,0.003516264,-0.1894969,-0.08474427,-9.811987,0,0,45.61387,1,1,754,998
4486,59053005,1,0.002605887,-0.002149721,0.006323453,-0.2093245,-0.1009765,-9.84638,0,0,45.61387,1,1,754,998
4493,59056038,1,0.003193344,-0.001514855,0.007071453,-0.224717,-0.0980929,-9.85549,0,0,45.6136,1,1,754,998
4524,59058174,1,0.004077517,0.0002734659,0.006935033,-0.2422328,-0.08552606,-9.846080000000001,0,0,45.6136,1,1,754,998
4528,59061101,1,0.005836507,0.0003837012,0.004130459,-0.2519982,-0.07213432,-9.840806000000001,0,0,45.6136,1,1,754,998
4531,59063830,1,0.006326084,0.001800405,0.001361959,-0.2523889,-0.04939097,-9.825243,0,0,45.6136,1,1,754,998
4534,59065787,1,0.004326776,0.003278684,0.001720441,-0.2461115,-0.03641173,-9.800890000000001,0,0,45.6136,1,1,754,998
4565,59067967,1,0.0009946973,0.003095664,0.002497385,-0.2255934,-0.01836048,-9.767187,0,0,45.61331,1,1,754,998
4569,59070762,1,0.0001176316,0.002237122,0.00167811,-0.2163631,-0.01347261,-9.756518,0,0,45.61331,1,1,754,998
4573,59073574,1,0.0006092911,-0.0005673248,-0.0006855751,-0.2069449,-0.01061525,-9.757604000000001,0,0,45.61331,1,1,754,998
4576,59075583,1,0.0006024002,-0.0004624951,5.600716e-05,-0.1963588,-0.0088653,-9.760472999999999,0,0,45.61331,1,1,754,998
4607,59078361,1,-0.0006343585,0.001062516,0.001745062,-0.1925022,-0.01892469,-9.756033,0,0,45.61301,1,1,754,998
4611,59080687,1,-0.00133893,0.001104735,0.0034077,-0.1980357,-0.02631418,-9.760878,0,0,45.61301,1,1,754,998
4614,59082944,1,0.001498203,-0.001960255,0.003645168,-0.2190827,-0.03913059,-9.774187,0,0,45.61301,1,1,754,998
4617,59086330,1,0.004666798,-0.003890162,0.002442795,-0.2382078,-0.05037397,-9.78619,0,0,45.61301,1,1,754,998
4648,59089323,1,0.004070061,-0.004935954,0.001845953,-0.2692063,-0.06361466,-9.781122,0,0,45.61274,1,1,754,998
4651,59091168,1,0.002341308,-0.003857111,0.003289386,-0.3042367,-0.07886518000000001,-9.760244,0,0,45.61274,1,1,754,998
4654,59093534,1,-0.001576653,-0.002678224,0.005836818,-0.3222558,-0.08868597,-9.7471,0,0,45.61274,1,1,754,998
4657,59098956,1,-0.009728445,0.001176627,0.006804127,-0.3243234,-0.1042256,-9.73175,0,0,45.61245,1,1,754,998
4689,59103036,1,-0.009610617,0.001424586,0.004508017,-0.3244685,-0.1089273,-9.731640000000001,0,0,45.61245,1,1,754,998
4692,59104380,1,-0.009429269000000001,0.002390908,0.001469799,-0.3137808,-0.1080941,-9.746195999999999,0,0,45.61245,1,1,754,998
4695,59107560,1,-0.00711689,0.003627541,-0.00131547,-0.2893275,-0.1042942,-9.788513,0,0,45.61245,1,1,754,998
4698,59110006,1,-0.001458769,0.001590787,-0.004375841,-0.2722771,-0.1042429,-9.824052,0,0,45.61245,1,1,754,998
4729,59112129,1,0.004713352,4.939409e-05,-0.00577997,-0.2373055,-0.1145107,-9.858459,0,0,45.61216,1,1,754,998
4732,59115339,1,0.00685079,-0.001048827,-0.004880448,-0.2175395,-0.1255947,-9.874002000000001,0,0,45.61216,1,1,754,998
4735,59117275,1,0.004692663,-0.001910343,-0.004653291,-0.2128357,-0.1333652,-9.889768999999999,0,0,45.61216,1,1,754,998
4738,59119966,1,0.003132249,-0.002942113,-0.004092873,-0.2236967,-0.1292675,-9.890879999999999,0,0,45.61216,1,1,754,998
4769,59122734,1,-0.001242156,-0.006689733,-0.002178374,-0.2373594,-0.09387638,-9.892289,0,0,45.61188,1,1,754,998
4773,59124961,1,-0.001745225,-0.006203639,-0.001882074,-0.2428373,-0.05467623,-9.894342,0,0,45.61188,1,1,754,998
4776,59127772,1,-0.0003315811,-0.002888175,-0.002005117,-0.2504872,0.004255,-9.891081,0,0,45.61188,1,1,754,998
4779,59130336,1,0.000515879,-0.001278409,-0.001907075,-0.2548609,0.03225463,-9.879350000000001,0,0,45.61188,1,1,754,998
4810,59133064,1,6.336424e-06,-0.0006247206,-0.0007104853,-0.2570012,0.06369468,-9.838481,0,0,45.61164,1,1,754,998
4814,59135281,1,-0.004307752,-0.00441085,-0.0003173139,-0.2671545,0.07598202,-9.790661999999999,0,0,45.61164,1,1,754,998
4817,59138159,1,-0.003723031,-0.003822368,0.000157423,-0.2777431,0.06228605,-9.761354000000001,0,0,45.61164,1,1,754,998
4820,59140525,1,-0.0009587002,-0.001825202,0.0009557563,-0.2968761,0.01286223,-9.750729,0,0,45.61164,1,1,754,998
4851,59142699,1,0.003967414,-0.00418774,0.001755802,-0.3045946,-0.01005398,-9.763783,0,0,45.61164,1,1,754,998
4854,59145946,1,0.004988233,-0.005154611,0.001557536,-0.3006716,-0.0227816,-9.790979999999999,0,0,45.61142,1,1,754,998
4857,59147608,1,0.005473065,-0.006390476,0.0006911101999999999,-0.2867784,-0.03230453,-9.824026,0,0,45.61142,1,1,754,998
4860,59150538,1,0.003926325,-0.003539454,0.0002219798,-0.2633771,-0.04988649,-9.853853000000001,0,0,45.61142,1,1,754,998
4891,59153729,1,0.00164923,0.0002921807,0.0007104314,-0.2510908,-0.05230547,-9.862030000000001,0,0,45.61142,1,1,754,998
4895,59155382,1,-0.0001540509,0.0008632102,0.0005556704,-0.2455584,-0.04364345,-9.858472000000001,0,0,45.6112,1,1,754,998
4902,59158270,1,-0.0004257159,8.250085e-05,0.001122796,-0.2428199,-0.03338242,-9.852004000000001,0,0,45.6112,1,1,754,998
4905,59160890,1,0.0008667907,-0.001109425,0.00123851,-0.2447634,-0.02300279,-9.854452999999999,0,0,45.6112,1,1,754,998
4936,59163147,1,0.003392954,-0.0007339909,0.0005113789,-0.2554669,-0.01820257,-9.852088,0,0,45.6112,1,1,754,998
4939,59165983,1,0.004208894,-7.065274e-05,0.0003233402,-0.2606703,-0.01127294,-9.84122,0,0,45.6112,1,1,754,998
4942,59168901,1,0.004184099,0.002897453,-0.002241075,-0.2667841,-0.0002821444,-9.816528,0,0,45.611,1,1,754,998
4945,59171290,1,0.003134523,0.005002027,-0.004021684,-0.2779542,-0.001031,-9.809957000000001,0,0,45.611,1,1,754,998
4976,59173928,1,0.001952867,0.005890465,-0.005658816,-0.3076479,-0.004616967,-9.833651,0,0,45.611,1,1,754,998
4980,59175952,1,0.003280176,0.003362498,-0.002847018,-0.3226004,-0.001184514,-9.864053,0,0,45.611,1,1,754,998
4984,59178875,1,0.003458575,0.003818744,-0.001523202,-0.3214577,0.005925464,-9.893953,0,0,45.61079,1,1,754,998
4988,59181065,1,0.002086794,0.004638539,-0.0007339208,-0.3137749,0.008166018000000001,-9.897735000000001,0,0,45.61079,1,1,754,998
5019,59183893,1,0.001302757,0.005110805,-0.0008111974,-0.2946009,0.009882336,-9.873868999999999,0,0,45.61079,1,1,754,998
5022,59185971,1,0.001842235,0.005225047,-0.0006216291,-0.2773114,0.01158825,-9.860068999999999,0,0,45.61079,1,1,754,998
5025,59188313,1,0.003587486,0.005445934,-0.001971553,-0.2529639,0.02072963,-9.859624,0,0,45.6106,1,1,754,998
5028,59190957,1,0.003600848,0.005785462,-0.002700221,-0.2410998,0.02025633,-9.847003000000001,0,0,45.6106,1,1,754,998
5061,59194174,1,0.002807439,0.005207048,-0.002238386,-0.2341588,0.01863112,-9.803946,0,0,45.6106,1,1,754,998
5065,59196318,1,-0.0004098366,0.002935282,0.0008072813,-0.228572,0.01781985,-9.771514,0,0,45.6106,1,1,754,998
5068,59201296,1,-0.003255511,0.003512358,0.00386636,-0.1861276,0.01160552,-9.745236999999999,0,0,45.61043,1,1,754,998
5099,59205030,1,-0.0008396316,0.003835196,0.004190844,-0.1761832,0.02562842,-9.742240000000001,0,0,45.61043,1,1,754,998
5102,59206360,1,0.002260289,0.003641014,0.00350542,-0.1638944,0.03972486,-9.756192,0,0,45.61043,1,1,754,998
5105,59209514,1,0.004084412,0.004524684,0.002480587,-0.1567494,0.03572042,-9.782520999999999,0,0,45.61043,1,1,754,998
5108,59211206,1,0.004547638,0.006608512,0.002506866,-0.1721816,0.01725375,-9.811412000000001,0,0,45.61027,1,1,754,998
5139,59213562,1,0.004514737,0.006659451,0.002873398,-0.2058597,-0.01022311,-9.822905,0,0,45.61027,1,1,754,998
5143,59217085,1,0.002363085,0.002568838,0.002767467,-0.2543333,-0.03983412,-9.8323,0,0,45.61027,1,1,754,998
5146,59218942,1,0.001686471,0.001657296,0.002343043,-0.2768127,-0.05268971,-9.837624,0,0,45.61027,1,1,754,998
5149,59221802,1,0.001323658,4.4298e-05,0.002787715,-0.2874269,-0.07170008,-9.841146,0,0,45.61013,1,1,754,998
5180,59223981,1,-0.001090248,2.595782e-07,0.0003534266,-0.2711163,-0.07399269,-9.863078,0,0,45.61013,1,1,754,998
5184,59226508,1,-0.003069562,-0.0001925144,-0.001603144,-0.2486656,-0.06588681,-9.89696,0,0,45.61013,1,1,754,998
5187,59229572,1,-0.007242972,-0.003224567,-0.005838867,-0.2112355,-0.05951397,-9.911077000000001,0,0,45.61013,1,1,754,998
5190,59231556,1,-0.005705097,-0.003693369,-0.006253041,-0.1852167,-0.06203915,-9.890897000000001,0,0,45.61013,1,1,754,998
5221,59234597,1,-0.001920298,-0.003417543,-0.005852149,-0.1489675,-0.07153837,-9.845803999999999,0,0,45.60999,1,1,754,998
5224,59236545,1,-0.00207884,-0.001848109,-0.003011355,-0.1282547,-0.07378598,-9.817166,0,0,45.60999,1,1,754,998
5227,59239084,1,-0.004714929,-0.0003861602,0.0004174725,-0.1027031,-0.07873980999999999,-9.785328,0,0,45.60999,1,1,754,998
5230,59242148,1,-0.006912508,0.00169256,0.002229869,-0.09497499,-0.08782715000000001,-9.774079,0,0,45.60999,1,1,754,998
5261,59244310,1,-0.007339884,0.003786675,-6.031411e-05,-0.09533974000000001,-0.09484743,-9.779379,0,0,45.60984,1,1,754,998
5266,59247523,1,-0.002688721,0.004050913,-0.002836339,-0.1011255,-0.08515254,-9.794847000000001,0,0,45.60984,1,1,754,998
5269,59249784,1,0.003531265,0.001414098,-0.004816418,-0.1083759,-0.07360369999999999,-9.799493999999999,0,0,45.60984,1,1,754,998
5272,59252671,1,0.007025888,-0.00323422,-0.00359008,-0.1075776,-0.05935191,-9.802053000000001,0,0,45.60984,1,1,754,998
5303,59254922,1,0.006002678,-0.007100767,-0.001150676,-0.1158378,-0.06434123,-9.810122,0,0,45.60969,1,1,754,998
5306,59257345,1,0.002649463,-0.007371955,-0.0008833348,-0.1272884,-0.0748308,-9.808759,0,0,45.60969,1,1,754,998
5313,59261007,1,0.0005545358,-0.005237994,-0.002045018,-0.1499391,-0.08893201000000001,-9.818184,0,0,45.60969,1,1,754,998
5316,59262371,1,-0.001411227,-0.002402823,-0.003635239,-0.1626364,-0.07807305,-9.821490000000001,0,0,45.60969,1,1,754,998
5347,59265692,1,-0.002076054,-0.0005166979,-0.003732312,-0.1780442,-0.05627744,-9.814442,0,0,45.60969,1,1,754,998
5351,59267357,1,-0.0009964041,-0.0002985078,-0.003394499,-0.1890247,-0.04233367,-9.812434,0,0,45.60955,1,1,754,998
5354,59270256,1,0.00257142,-0.001455635,-0.003246039,-0.1987581,-0.01724974,-9.829388,0,0,45.60955,1,1,754,998
5357,59273140,1,0.003183081,-0.002138345,-0.003306857,-0.2031727,0.009648548,-9.832796,0,0,45.60955,1,1,754,998
5388,59275388,1,0.003415207,0.0003512313,-0.00331664,-0.2054794,0.03980501,-9.840964,0,0,45.60955,1,1,754,998
5392,59278325,1,0.001975294,0.004652889,-0.001634311,-0.2175355,0.04875974,-9.845629000000001,0,0,45.60941,1,1,754,998
5396,59280482,1,0.001730917,0.004845296,-0.0003019015,-0.2253045,0.04594377,-9.845608,0,0,45.60941,1,1,754,998
5399,59283570,1,0.001156572,0.004618356,0.00142018,-0.2319161,0.03739358,-9.842712000000001,0,0,45.60941,1,1,754,998
5430,59285966,1,-0.001359278,0.00351856,-0.0009519354,-0.2261562,0.007290746,-9.84815,0,0,45.60941,1,1,754,998
5433,59288574,1,-0.002459208,0.00284418,-0.001652452,-0.2200246,-0.02456126,-9.843916,0,0,45.60927,1,1,754,998
5436,59291351,1,-0.004730852,0.001273513,-0.0019046,-0.2116731,-0.05999771,-9.843175,0,0,45.60927,1,1,754,998
5439,59293615,1,-0.00482372,0.001602019,-0.00297054,-0.2177512,-0.06753223,-9.852963000000001,0,0,45.60927,1,1,754,998
5470,59297470,1,-0.004164703,0.003091703,-0.005038503,-0.2249254,-0.07063599,-9.869324000000001,0,0,45.60927,1,1,754,998
5474,59298711,1,-0.002734765,0.001845445,-0.006409463,-0.2094537,-0.06856710000000001,-9.863932999999999,0,0,45.60912,1,1,754,998
5477,59302791,1,-0.001478106,-0.00103995,-0.00488147,-0.1963022,-0.05953154,-9.856401,0,0,45.60912,1,1,754,998
5480,59304052,1,0.0004039494,-0.003568676,-0.001719022,-0.1851466,-0.04713214,-9.836577999999999,0,0,45.60912,1,1,754,998
5511,59307718,1,0.002749725,-0.002516603,-0.0003431724,-0.1853068,-0.04728901,-9.842893999999999,0,0,45.60912,1,1,754,998
5514,59309360,1,0.003684213,-0.0008446943,-0.0003073649,-0.1921088,-0.05009336,-9.84731,0,0,45.60897,1,1,754,998
5517,59311553,1,0.001853743,0.002144158,-0.001239578,-0.2023789,-0.05186005,-9.841979,0,0,45.60897,1,1,754,998
5520,59314297,1,-0.000652915,0.004610041,-0.001688437,-0.2190012,-0.05396621,-9.819082999999999,0,0,45.60897,1,1,754,998
5551,59316554,1,-0.0008965041,0.005815993,-0.001814994,-0.2245368,-0.05010209,-9.79555,0,0,45.60897,1,1,754,998
5555,59319385,1,-0.003998146,0.004255655,-0.006619466,-0.2210859,-0.03344857,-9.774437000000001,0,0,45.60897,1,1,754,998
5558,59321338,1,-0.005532084,0.001843068,-0.008262838,-0.2127248,-0.02998047,-9.777901999999999,0,0,45.60883,1,1,754,998
5561,59323925,1,-0.007822389000000001,-0.001049808,-0.00934507,-0.2082128,-0.02798875,-9.782242,0,0,45.60883,1,1,754,998
5592,59326798,1,-0.005839616,-0.0007743264,-0.006578719,-0.2095627,-0.01784172,-9.783701000000001,0,0,45.60883,1,1,754,998
5595,59329019,1,0.001433395,0.0006709284,-0.001956621,-0.2092138,0.009371160999999999,-9.785755,0,0,45.60883,1,1,754,998
5598,59331899,1,0.007360806,0.0008921644,0.003743976,-0.205983,0.01552144,-9.780540999999999,0,0,45.6087,1,1,754,998
5601,59333976,1,0.008878483,-0.0004753727,0.008302488,-0.1996184,0.008568268,-9.766750999999999,0,0,45.6087,1,1,754,998
5632,59336284,1,0.008083470000000001,-0.001015416,0.008928159999999999,-0.1904912,0.001899756,-9.754635,0,0,45.6087,1,1,754,998
5636,59339405,1,0.00475053,-0.001376436,0.005898736,-0.1785862,-0.01280638,-9.750696,0,0,45.6087,1,1,754,998
5639,59341499,1,0.003310747,-0.001270202,0.004883599,-0.1799029,-0.02391464,-9.759537999999999,0,0,45.6087,1,1,754,998
5642,59344293,1,-0.001880058,-0.001854513,0.002057665,-0.193059,-0.03144149,-9.765184,0,0,45.60857,1,1,754,998
5673,59346519,1,-0.00293044,-0.002389101,0.0008490122,-0.2002262,-0.03016637,-9.771834999999999,0,0,45.60857,1,1,754,998
5676,59348761,1,-0.003439849,-0.00248416,-0.0001756941,-0.2039472,-0.02368392,-9.814562,0,0,45.60857,1,1,754,998
5679,59351954,1,-0.003180391,-0.001582354,0.0004161539,-0.2045521,-0.01652678,-9.83206,0,0,45.60857,1,1,754,998
5682,59354110,1,-0.005848828,-0.0009909216000000001,0.0001615549,-0.2027789,-0.006600695,-9.830812999999999,0,0,45.60843,1,1,754,998
5713,59356992,1,-0.007327869,-0.0002968249,-0.0030069,-0.2016575,0.01167956,-9.827673000000001,0,0,45.60843,1,1,754,998
5716,59358955,1,-0.004409628,-0.0002349314,-0.003666953,-0.1996902,0.02972154,-9.832273000000001,0,0,45.60843,1,1,754,998
5723,59361915,1,-0.003275093,8.906928e-05,-0.003177451,-0.2073477,0.04553968,-9.830482999999999,0,0,45.60843,1,1,754,998
5726,59364518,1,-0.004664869,0.001659032,-0.002726074,-0.2087934,0.04662333,-9.814037000000001,0,0,45.60829,1,1,754,998
5757,59367250,1,-0.006882153,0.002181403,-0.005298893,-0.199858,0.04030766,-9.786746000000001,0,0,45.60829,1,1,754,998
5761,59369682,1,-0.007659511,0.002587819,-0.006641743,-0.1931825,0.02781104,-9.760389999999999,0,0,45.60829,1,1,754,998
5764,59371781,1,-0.004049163,0.005379227,-0.007046367,-0.1867757,-0.003512669,-9.707343,0,0,45.60829,1,1,754,998
5767,59374555,1,-0.001934267,0.006362124,-0.00520587,-0.1878254,-0.0128888,-9.693111999999999,0,0,45.60829,1,1,754,998
5798,59377691,1,0.0008178113,0.005986601,0.001035147,-0.1910056,-0.02170373,-9.695482999999999,0,0,45.60816,1,1,754,998
5801,59380251,1,0.001257277,0.00476915,0.006603088,-0.1900782,-0.0317499,-9.706111999999999,0,0,45.60816,1,1,754,998
5804,59381938,1,0.000560593,0.003632579,0.008719691,-0.1847405,-0.0302698,-9.728065000000001,0,0,45.60816,1,1,754,998
5808,59384317,1,-0.001188634,0.001992765,0.008241626,-0.1792214,-0.02148661,-9.734223,0,0,45.60816,1,1,754,998
5839,59386942,1,-0.0009536018,-0.0004995144,0.004840101,-0.1852619,-0.02241673,-9.744971,0,0,45.60802,1,1,754,998
5843,59390806,1,-0.003350014,-0.001260969,0.0005625612,-0.1928771,-0.02672049,-9.762146,0,0,45.60802,1,1,754,998
5846,59392377,1,-0.005690837,-0.001285943,-0.00485959,-0.2008133,-0.02665778,-9.776233,0,0,45.60802,1,1,754,998
5850,59394376,1,-0.004782368,-0.0004026824,-0.007704326,-0.2107313,-0.02364919,-9.786222,0,0,45.60802,1,1,754,998
5883,59397325,1,-0.001731369,0.001576752,-0.007485836,-0.2205773,-0.01982623,-9.823285,0,0,45.60802,1,1,754,998
5886,59399734,1,-0.001953742,0.001750681,-0.006267311,-0.2220621,-0.005417475,-9.837804999999999,0,0,45.60789,1,1,754,998
5889,59402710,1,-0.003056024,0.001535667,-0.003842339,-0.2187557,0.01057947,-9.839164,0,0,45.60789,1,1,754,998
5892,59406995,1,-0.004058082,-0.0003563748,0.001482795,-0.1925707,0.01588498,-9.823446000000001,0,0,45.60789,1,1,754,998
5924,59409894,1,-0.002230215,-0.001791648,0.002501209,-0.1863184,0.01784591,-9.815201999999999,0,0,45.60778,1,1,754,998
5927,59412166,1,-0.0003416764,-0.001726105,0.001242097,-0.1787405,0.025752,-9.834583,0,0,45.60778,1,1,754,998
5930,59415091,1,0.001008028,-0.001624414,0.0009848044000000001,-0.1797442,0.03067216,-9.853611000000001,0,0,45.60778,1,1,754,998
5933,59417387,1,0.00503737,-0.00133017,-0.0003314662,-0.1822027,0.03845158,-9.877318000000001,0,0,45.60778,1,1,754,998
5964,59419944,1,0.006024988,-0.0004877582,-0.0008371331,-0.1874111,0.03284617,-9.877212999999999,0,0,45.60778,1,1,754,998
5968,59421965,1,0.00541506,0.002606952,-0.0008570383,-0.1946301,0.01108584,-9.862195,0,0,45.60772,1,1,754,998
5971,59424333,1,0.003807748,0.003389969,-0.0006015903,-0.1977997,-0.01123927,-9.848414,0,0,45.60772,1,1,754,998
5974,59427321,1,0.002791349,0.002191312,-0.0007985936,-0.2121388,-0.03468101,-9.833568,0,0,45.60772,1,1,754,998
6005,59430265,1,0.003342888,0.00216871,-0.0003561004,-0.2189935,-0.03497734,-9.826729,0,0,45.60772,1,1,754,998
6008,59431576,1,0.003646964,0.001359502,0.0007312098,-0.2183245,-0.02168619,-9.821002999999999,0,0,45.60767,1,1,754,998
6011,59434344,1,0.001652012,0.001913562,0.0005887137,-0.2193604,-0.01408561,-9.815458,0,0,45.60767,1,1,754,998
6014,59436940,1,0.001347266,0.002932869,0.0001841656,-0.2137467,-0.007994701999999999,-9.79443,0,0,45.60767,1,1,754,998
6047,59439872,1,0.001207927,0.002224486,0.001143862,-0.207957,-0.01105981,-9.77056,0,0,45.60767,1,1,754,998
6052,59442721,1,-0.003789631,-0.0006789176,0.002080632,-0.1943463,-0.01143313,-9.754099999999999,0,0,45.60767,1,1,754,998
6055,59444380,1,-0.004257904,-0.0009345689,0.001200277,-0.1877659,-0.01381152,-9.747852,0,0,45.60761,1,1,754,998
6058,59446900,1,-0.002571257,-0.001520662,0.0007019307,-0.1796576,-0.008346246,-9.763078,0,0,45.60761,1,1,754,998
6089,59449529,1,-0.0008654246,-0.00382668,0.002198094,-0.1729251,-0.001250927,-9.776068,0,0,45.60761,1,1,754,998
6092,59452305,1,0.0007128882999999999,-0.008695212000000001,0.003639876,-0.1597744,0.03153101,-9.774850000000001,0,0,45.60761,1,1,754,998
6095,59454969,1,-6.156453000000001e-05,-0.01185479,0.00118921,-0.1545677,0.06277816,-9.762302999999999,0,0,45.60752,1,1,754,998
6098,59456947,1,-0.00083621,-0.01371714,-0.002578088,-0.155091,0.08529349,-9.730143999999999,0,0,45.60752,1,1,754,998
6129,59459304,1,-0.0004757283,-0.01459817,-0.003948421,-0.1620391,0.08791593,-9.712251999999999,0,0,45.60752,1,1,754,998
6137,59462349,1,0.0009749062,-0.0137101,-0.001756204,-0.1771896,0.08567666,-9.710770999999999,0,0,45.60752,1,1,754,998
6140,59465152,1,0.001535286,-0.01212593,6.102063e-05,-0.1965645,0.07841712000000001,-9.733177,0,0,45.60752,1,1,754,998
6143,59467461,1,0.001997694,-0.008695875,0.002146379,-0.2062614,0.06902397,-9.768128000000001,0,0,45.60742,1,1,754,998
6174,59470068,1,-4.976135e-05,-0.004660557,0.0004054655,-0.2116732,0.06602570000000001,-9.806654999999999,0,0,45.60742,1,1,754,998
6178,59472092,1,-0.0007446829,-0.005064085,0.0002952928,-0.2226587,0.06266906999999999,-9.822559,0,0,45.60742,1,1,754,998
6181,59475347,1,-0.0008076152,-0.006121174,0.0001191348,-0.229579,0.06231604,-9.835048,0,0,45.60742,1,1,754,998
6184,59477873,1,-0.0001260972,-0.006653268,4.931266e-06,-0.2322321,0.07166249,-9.847377,0,0,45.60728,1,1,754,998
6215,59479979,1,-0.001496474,-0.005361307,-0.0002563251,-0.2309878,0.0592677,-9.854364,0,0,45.60728,1,1,754,998
6218,59482718,1,-0.002626116,-0.004143776,-0.001452444,-0.2176048,0.05776706,-9.858608,0,0,45.60728,1,1,754,998
6221,59485257,1,-0.00177706,-0.003258264,0.000492312,-0.1893619,0.04757992,-9.872388000000001,0,0,45.60728,1,1,754,998
6224,59488158,1,0.0007237064,-0.004933873,0.001621115,-0.1659903,0.02953583,-9.882751000000001,0,0,45.60713,1,1,754,998
6255,59490974,1,0.002246698,-0.008395863999999999,0.002067393,-0.137088,-0.008667163,-9.888005,0,0,45.60713,1,1,754,998
6259,59493302,1,0.002622372,-0.008294599999999999,0.001103834,-0.1198178,-0.0437892,-9.876261,0,0,45.60713,1,1,754,998
6264,59495678,1,0.001813038,-0.004537224,-0.0005968251,-0.1096743,-0.05136291,-9.875078999999999,0,0,45.60713,1,1,754,998
6267,59503411,1,-0.00384328,0.006665132,-0.002673204,-0.1376406,-0.02599995,-9.901339999999999,0,0,45.60695,1,1,754,998
6298,59506113,1,-0.00368468,0.006334468,0.001474608,-0.1718508,-0.005101828,-9.913245999999999,0,0,45.60695,1,1,754,998
6302,59508524,1,-0.002855951,0.005921937,0.003634058,-0.1945623,0.007263808,-9.912820999999999,0,0,45.60695,1,1,754,998
6305,59511537,1,-0.001556021,0.000553109,0.006274818,-0.2224248,0.01444327,-9.906734,0,0,45.60675,1,1,754,998
6309,59514256,1,-0.0002256002,-0.00253488,0.006008491,-0.2325416,0.02074056,-9.891356,0,0,45.60675,1,1,754,998
6340,59517023,1,0.003859997,-0.005142569,0.00451232,-0.2365882,0.02849613,-9.871012,0,0,45.60675,1,1,754,998
6343,59518926,1,0.005727136,-0.003801663,0.004417139,-0.2438641,0.03062808,-9.844811,0,0,45.60675,1,1,754,998
6346,59521904,1,0.005528993,-0.003359318,0.004345059,-0.2419378,0.02768986,-9.819103,0,0,45.60652,1,1,754,998
6349,59524413,1,-0.00188792,-0.0001551773,0.001937949,-0.2371923,0.02279848,-9.793915999999999,0,0,45.60652,1,1,754,998
6380,59527297,1,-0.003604585,0.003398853,0.0009899120999999999,-0.2323136,0.007456936,-9.798185,0,0,45.60652,1,1,754,998
6384,59529875,1,-0.003689871,0.004087078,0.001367063,-0.2279105,-0.006148451,-9.792272000000001,0,0,45.60652,1,1,754,998
6387,59532094,1,-0.004232796,0.004666424,0.0003077635,-0.2320518,-0.02289087,-9.790193,0,0,45.60627,1,1,754,998
6390,59534403,1,-0.003544927,0.004197901,-0.0005630101,-0.2376439,-0.02554076,-9.796651000000001,0,0,45.60627,1,1,754,998
6421,59537363,1,-0.002296859,8.647736e-05,-0.001040035,-0.2422107,-0.02746985,-9.800712000000001,0,0,45.60627,1,1,754,998
6424,59539980,1,-0.002556826,-0.002971592,-0.001321438,-0.2473512,-0.02689382,-9.802769,0,0,45.60627,1,1,754,998
6427,59541942,1,-0.001891608,-0.002293919,-0.0006230139,-0.2585584,-0.03463713,-9.801653,0,0,45.606,1,1,754,998
6430,59544351,1,-0.001937516,-0.001171192,7.604624e-05,-0.2672532,-0.03390584,-9.796734000000001,0,0,45.606,1,1,754,998
6461,59546918,1,-0.002797933,-0.0008106147,-0.0004718303,-0.2823846,-0.02183992,-9.801686999999999,0,0,45.606,1,1,754,998
6466,59550294,1,-0.002882997,-0.001156293,-0.0008006044,-0.2925002,-0.01710143,-9.811768000000001,0,0,45.606,1,1,754,998
6469,59552381,1,-0.002119685,-0.0003453112,0.0002758623,-0.2904794,-0.007854043999999999,-9.801176999999999,0,0,45.606,1,1,754,998
6472,59554868,1,-0.000923583,0.001257326,0.001312897,-0.2849025,-0.008824324,-9.784312,0,0,45.60571,1,1,754,998
6503,59556978,1,0.001868976,0.003071816,0.00349653,-0.2771619,-0.0001644595,-9.773372,0,0,45.60571,1,1,754,998
6506,59559616,1,0.004693225,0.003241237,0.00245429,-0.2796847,0.01419657,-9.768134999999999,0,0,45.60571,1,1,754,998
6509,59562370,1,0.00376531,0.003087701,0.002597849,-0.2748136,0.03505033,-9.765425,0,0,45.60571,1,1,754,998
6516,59565201,1,0.002245081,0.001155974,0.00313819,-0.2688807,0.03638205,-9.757293000000001,0,0,45.6054,1,1,754,998
6547,59567729,1,0.002895488,-0.003523975,0.001653905,-0.2546593,0.02459775,-9.752950999999999,0,0,45.6054,1,1,754,998
6551,59570118,1,0.003365325,-0.008142056,0.0009111948,-0.2533219,0.01349439,-9.752679000000001,0,0,45.6054,1,1,754,998
6554,59572596,1,0.001352721,-0.008374621,-0.0002972093,-0.2518861,0.007963919999999999,-9.766211999999999,0,0,45.6054,1,1,754,998
6557,59575359,1,-0.003481154,-0.004005707,-0.005373395,-0.23124,-0.0180852,-9.792816,0,0,45.60506,1,1,754,998
6588,59578282,1,-0.006132836,-0.00340003,-0.008500203,-0.2291761,-0.03124681,-9.815628999999999,0,0,45.60506,1,1,754,998
6592,59580767,1,-0.005163283,-0.00726776,-0.007771166,-0.2374673,-0.0513757,-9.846671000000001,0,0,45.60506,1,1,754,998
6595,59582407,1,-0.00458805,-0.008965321,-0.006359968,-0.2381999,-0.05488607,-9.867489000000001,0,0,45.60506,1,1,754,998
6600,59585394,1,-0.005938441,-0.007829443,-0.003075335,-0.2336439,-0.04905299,-9.876625000000001,0,0,45.60506,1,1,754,998
6631,59587719,1,-0.006593036,-0.001406956,-0.004453434,-0.2254378,-0.05900366,-9.880423,0,0,45.60471,1,1,754,998
6634,59590522,1,-0.006539929,0.001596004,-0.004901798,-0.2166777,-0.06517263,-9.880984,0,0,45.60471,1,1,754,998
6637,59592616,1,-0.006364059,0.005732432,-0.006178854,-0.2065901,-0.06454886,-9.883334,0,0,45.60471,1,1,754,998
6641,59595262,1,-0.004732969,0.008316189,-0.006072372,-0.1913647,-0.05856855,-9.894450000000001,0,0,45.60471,1,1,754,998
6672,59597967,1,-0.001007777,0.007032671,-0.002273425,-0.1874686,-0.05668603,-9.896934,0,0,45.60434,1,1,754,998
6676,59600286,1,0.00260227,0.003660174,0.001481952,-0.1837597,-0.05519141,-9.893381,0,0,45.60434,1,1,754,998
6680,59603322,1,0.00139735,-0.00148354,0.002059689,-0.1813676,-0.05668333,-9.878030000000001,0,0,45.60434,1,1,754,998
6683,59605211,1,-0.0008272479,-0.004374423,0.0005296312,-0.1771695,-0.05831877,-9.833105,0,0,45.60434,1,1,754,998
6714,59607461,1,-0.0005092377,-0.004580264,-0.0004444272,-0.1681716,-0.06358564999999999,-9.787208,0,0,45.60434,1,1,754,998
6717,59611247,1,0.002887133,-0.00563146,-0.0006554163,-0.1500575,-0.06101202,-9.742607,0,0,45.60395,1,1,754,998
6720,59612601,1,0.003030429,-0.005907744,3.378005e-05,-0.1420344,-0.04719544,-9.733181,0,0,45.60395,1,1,754,998
6723,59617778,1,0.004756316,-0.0004586807,0.004494407,-0.1064769,0.009852959999999999,-9.795944,0,0,45.60395,1,1,754,998
6755,59620388,1,0.005284649,0.0006728476,0.004931235,-0.1011006,0.03063717,-9.818625000000001,0,0,45.60355,1,1,754,998
6758,59624001,1,0.00381993,0.00189062,0.004312428,-0.1063939,0.06363261000000001,-9.832338999999999,0,0,45.60355,1,1,754,998
6761,59625318,1,0.00247836,0.000538715,0.003866952,-0.1235889,0.08213028,-9.827339,0,0,45.60355,1,1,754,998
6764,59628550,1,0.001311068,-0.00284673,0.003380911,-0.1429378,0.0868399,-9.815161,0,0,45.60355,1,1,754,998
6795,59630975,1,0.0001812161,-0.006284949,0.0003916006,-0.157494,0.08281458,-9.802152,0,0,45.60313,1,1,754,998
6798,59633735,1,0.0004438251,-0.007509926,-0.002527915,-0.1643056,0.08822306000000001,-9.794535,0,0,45.60313,1,1,754,998
6801,59636444,1,0.001974874,-0.007108259,-0.002809898,-0.1858625,0.08391337,-9.774470000000001,0,0,45.60313,1,1,754,998
6804,59638529,1,0.002265996,-0.007384898,-0.001455282,-0.202115,0.06316637999999999,-9.762700000000001,0,0,45.60313,1,1,754,998
6835,59641384,1,0.001485058,-0.005597202,0.0004172865,-0.2205265,0.02393753,-9.739163,0,0,45.60271,1,1,754,998
6839,59643623,1,0.002347567,-0.00334882,0.001698485,-0.2430992,-0.00395994,-9.737053,0,0,45.60271,1,1,754,998
6842,59646156,1,0.003071656,-0.0008112427,0.0008580745,-0.2742343,-0.03861788,-9.771174999999999,0,0,45.60271,1,1,754,998
6845,59649313,1,0.003000472,-0.0005502586,0.0009612475,-0.2840639,-0.05493273,-9.790642999999999,0,0,45.60271,1,1,754,998
6876,59651514,1,0.0006711229,-0.0005369679,0.004553432,-0.2947148,-0.07032163,-9.811953000000001,0,0,45.60271,1,1,754,998
6879,59654556,1,0.00170322,0.00227509,0.006101299,-0.3036043,-0.08413012,-9.83569,0,0,45.60229,1,1,754,998
6882,59656543,1,0.00342112,0.003215405,0.005602426,-0.3010066,-0.09226148000000001,-9.845701999999999,0,0,45.60229,1,1,754,998
6885,59659424,1,0.007342095,0.00335017,0.002791699,-0.2979661,-0.09520908,-9.863709,0,0,45.60229,1,1,754,998
6916,59661760,1,0.007354833,0.002643225,0.002655505,-0.2963095,-0.08498936999999999,-9.868781999999999,0,0,45.60229,1,1,754,998
6919,59664106,1,0.006503129,-0.001181874,0.0041277,-0.2861354,-0.05630009,-9.862462000000001,0,0,45.60189,1,1,754,998
6926,59667258,1,0.004521771,-0.004082379,0.005175072,-0.2788931,-0.03283016,-9.858755,0,0,45.60189,1,1,754,998
6929,59669355,1,0.00303877,-0.006393136,0.003130883,-0.2669886,-0.006588565,-9.859615,0,0,45.60189,1,1,754,998
6960,59672089,1,0.002699732,-0.009549406999999999,0.002829995,-0.2641558,-0.002691412,-9.864587,0,0,45.60189,1,1,754,998
6964,59674178,1,0.002211731,-0.008698912,0.004196734,-0.2562806,0.0142722,-9.865453,0,0,45.60149,1,1,754,998
6967,59676485,1,0.002807485,-0.00740677,0.005048749,-0.2451435,0.0287589,-9.878339,0,0,45.60149,1,1,754,998
6970,59679671,1,0.004778016,-0.004140629,0.005493862,-0.2321503,0.04327657,-9.915146999999999,0,0,45.60149,1,1,754,998
7001,59682381,1,0.003343135,-0.003199413,0.003815122,-0.2180424,0.02998677,-9.938698,0,0,45.60149,1,1,754,998
7004,59684562,1,0.00295388,-0.003502841,0.002825798,-0.2093084,0.01517512,-9.953276000000001,0,0,45.60149,1,1,754,998
7007,59687035,1,-8.698723e-05,-0.003033512,0.001496616,-0.2021156,-0.00241079,-9.974550000000001,0,0,45.6011,1,1,754,998
7010,59690374,1,-0.001580019,-0.00246955,0.00114443,-0.1986379,-0.01621609,-9.977478,0,0,45.6011,1,1,754,998
7041,59692727,1,-0.004841635,-0.002672155,0.001384264,-0.1898206,-0.03316802,-9.973036,0,0,45.6011,1,1,754,998
7045,59695362,1,-0.003954291,-0.002255683,0.002225927,-0.1812366,-0.05446759,-9.965595,0,0,45.6011,1,1,754,998
7048,59698113,1,-0.002502717,-0.002344313,0.001974558,-0.1802108,-0.06770015,-9.956391999999999,0,0,45.60073,1,1,754,998
7051,59700129,1,0.001153204,-0.004170459,-0.0002455793,-0.1817611,-0.08084025,-9.932463,0,0,45.60073,1,1,754,998
7082,59703893,1,0.002884275,-0.004020333,-0.0008798647,-0.1905627,-0.07579232,-9.901501,0,0,45.60073,1,1,754,998
7086,59705112,1,0.004495821,-0.002379859,-0.001097983,-0.2134841,-0.05222556,-9.846844000000001,0,0,45.60073,1,1,754,998
7090,59710312,1,0.003547062,-0.003251872,0.002999653,-0.2124473,-0.02540361,-9.780616,0,0,45.60038,1,1,754,998
7121,59713522,1,0.002850854,-0.00133415,0.002654718,-0.2053336,-0.02911722,-9.771986,0,0,45.60038,1,1,754,998
7124,59715468,1,0.0005313680000000001,0.002659753,0.001030418,-0.2008629,-0.03159128,-9.765463,0,0,45.60038,1,1,754,998
7128,59717521,1,0.0001152619,0.002702088,-9.478407e-05,-0.2108226,-0.02376046,-9.760322,0,0,45.60038,1,1,754,998
7131,59720143,1,-0.001687059,-0.0004318936,-0.003394535,-0.2281925,-0.01966248,-9.786218999999999,0,0,45.60004,1,1,754,998
7162,59723129,1,-0.002669974,-0.0003002815,-0.003436787,-0.2328357,-0.02708585,-9.810058,0,0,45.60004,1,1,754,998
7166,59725556,1,-0.005965985,0.002612883,-0.003344383,-0.2186758,-0.04002727,-9.83192,0,0,45.60004,1,1,754,998
7169,59727493,1,-0.007183165,0.002704503,-0.003434356,-0.2118075,-0.0374306,-9.845408000000001,0,0,45.60004,1,1,754,998
7172,59730411,1,-0.01004848,0.001895705,-0.004022489,-0.209155,-0.01819484,-9.856987999999999,0,0,45.59971,1,1,754,998
7203,59733035,1,-0.00716972,0.001102287,-0.003656191,-0.1973605,-0.001078125,-9.845547,0,0,45.59971,1,1,754,998
7206,59735358,1,-0.005533034,0.0003665206,-0.003020497,-0.1933469,0.005997681,-9.827635000000001,0,0,45.59971,1,1,754,998
7209,59738373,1,-0.002873258,-0.00107677,-0.002324683,-0.1878223,0.01252308,-9.804935,0,0,45.59971,1,1,754,998
7212,59740488,1,-0.0005167599,-0.001400859,-0.0007445611,-0.1842421,0.02047909,-9.799616,0,0,45.5994,1,1,754,998
7243,59742746,1,0.00105842,-0.0007795151,0.0007646473,-0.1786078,0.03953318,-9.787671,0,0,45.5994,1,1,754,998
7247,59745901,1,0.0002273165,0.002175403,0.001734169,-0.1794101,0.04705762,-9.775646,0,0,45.5994,1,1,754,998
7250,59747760,1,-0.002523918,0.004174053,-0.001260557,-0.1905826,0.04815074,-9.76665,0,0,45.5994,1,1,754,998
7253,59750539,1,-0.003039032,0.004889871,-0.003667639,-0.2077323,0.04668137,-9.770350000000001,0,0,45.5994,1,1,754,998
7284,59753363,1,-0.003328588,0.006532435,-0.01068191,-0.2222867,0.04092182,-9.774037999999999,0,0,45.59911,1,1,754,998
7288,59755391,1,-0.004576068,0.006224183,-0.0119145,-0.2258925,0.03046611,-9.785005999999999,0,0,45.59911,1,1,754,998
7291,59758296,1,-0.005423419,0.005417854,-0.01125132,-0.2293876,0.0104046,-9.81043,0,0,45.59911,1,1,754,998
7294,59760587,1,-0.00261441,0.003188941,-0.008112337000000001,-0.2306124,-0.003363791,-9.824484999999999,0,0,45.59911,1,1,754,998
7325,59762947,1,0.001960529,0.001220737,-0.006465169,-0.2259902,-0.01322429,-9.841117000000001,0,0,45.59881,1,1,754,998
7329,59765979,1,0.00484614,0.0006484101,-0.005112872,-0.2213072,-0.01035556,-9.842965,0,0,45.59881,1,1,754,998
7336,59768784,1,0.005184813,0.0005696061,-0.003284002,-0.2145525,-0.009630565000000001,-9.842112999999999,0,0,45.59881,1,1,754,998
7339,59770285,1,0.006979962,-0.0003335226,-0.001085276,-0.1938152,-0.01284596,-9.838882999999999,0,0,45.59881,1,1,754,998
7370,59772959,1,0.00634668,-0.0007797056,0.002262971,-0.1806884,-0.02061612,-9.833080000000001,0,0,45.59851,1,1,754,998
7374,59775415,1,0.004691817,-0.0003541018,0.004412326,-0.1736873,-0.02139535,-9.834106999999999,0,0,45.59851,1,1,754,998
7377,59778407,1,-0.002436417,0.002601855,0.009224137,-0.1708034,-0.02357194,-9.828877,0,0,45.59851,1,1,754,998
7380,59780940,1,-0.00337602,0.003512269,0.009302553999999999,-0.1621741,-0.02917476,-9.829459999999999,0,0,45.59851,1,1,754,998
7411,59783438,1,-0.00472711,0.004310336,0.007810097,-0.165436,-0.02138068,-9.832860999999999,0,0,45.59851,1,1,754,998
7414,59785636,1,-0.006439031,0.004746006,0.00226923,-0.1701624,-0.01671062,-9.832371,0,0,45.59818,1,1,754,998
7417,59787767,1,-0.005028044,0.003417164,-0.002418278,-0.1755005,-0.02251906,-9.823781,0,0,45.59818,1,1,754,998
7422,59791256,1,-0.002395859,0.0006407913,-0.00315636,-0.1736952,-0.02720337,-9.81658,0,0,45.59818,1,1,754,998
7454,59793956,1,-6.40307e-05,-0.001608288,-0.003571884,-0.1819492,-0.03406296,-9.790561,0,0,45.59818,1,1,754,998
7458,59795937,1,0.001798022,-0.001455115,-0.004375518,-0.1856455,-0.0276201,-9.799199,0,0,45.59785,1,1,754,998
7462,59798296,1,0.0006969965,0.0004780143,-0.003097264,-0.1837263,-0.01322656,-9.82044,0,0,45.59785,1,1,754,998
7465,59801537,1,-0.001273265,0.001222021,-0.001213672,-0.1850075,0.007007184,-9.859610999999999,0,0,45.59785,1,1,754,998
7496,59805126,1,-0.0003942293,-0.002028795,0.0001398002,-0.1783724,0.01491543,-9.862366,0,0,45.59785,1,1,754,998
7499,59806426,1,0.002401437,-0.003878837,-0.001008327,-0.1740022,0.01421167,-9.853630000000001,0,0,45.59753,1,1,754,998
7502,59809117,1,0.003724871,-0.00349812,-0.003224293,-0.1789319,0.01673428,-9.843951000000001,0,0,45.59753,1,1,754,998
7506,59811418,1,0.00529104,-0.002262093,-0.004967347,-0.1937181,0.02267269,-9.832133000000001,0,0,45.59753,1,1,754,998
7537,59817248,1,0.004335824,-0.00197577,-0.0006721491,-0.2113054,0.003765786,-9.799977999999999,0,0,45.59753,1,1,754,998
7541,59818793,1,0.001491672,-0.002111246,0.0005910162,-0.213068,0.01055745,-9.796986,0,0,45.59722,1,1,754,998
7544,59821431,1,-0.001216005,-0.001641998,-0.001652825,-0.2211347,0.02518905,-9.809362999999999,0,0,45.59722,1,1,754,998
7575,59823879,1,0.001313702,-0.002132352,-0.003117292,-0.2347648,0.02063741,-9.818213,0,0,45.59722,1,1,754,998
7578,59826788,1,0.006346837,-0.0012411,-0.002201865,-0.2447577,0.01324489,-9.829108,0,0,45.59722,1,1,754,998
7582,59829581,1,0.008397451,-0.001517383,-0.0003557944,-0.2485058,-0.001150179,-9.845089,0,0,45.59693,1,1,754,998
7585,59831293,1,0.008179128000000001,-0.002801489,-0.0001313648,-0.2476012,-0.008654919000000001,-9.873841000000001,0,0,45.59693,1,1,754,998
7616,59833959,1,0.007767125,-0.002591016,0.002814939,-0.2502487,-0.004182643,-9.886794,0,0,45.59693,1,1,754,998
7619,59836520,1,0.007289978,-0.001974964,0.004517064,-0.2479108,0.00619815,-9.890135000000001,0,0,45.59693,1,1,754,998
7622,59839280,1,0.004468574,0.00115614,0.007445569,-0.2481889,0.01293079,-9.887403000000001,0,0,45.59693,1,1,754,998
7625,59841978,1,0.002518914,0.002209731,0.0073968,-0.2651565,0.02482315,-9.885223,0,0,45.59665,1,1,754,998
7656,59844301,1,-0.00257857,0.005119669,0.005315312,-0.2823244,0.0292235,-9.884377000000001,0,0,45.59665,1,1,754,998
7660,59846599,1,-0.006352625,0.005403725,0.001741507,-0.2867461,0.02475591,-9.877153,0,0,45.59665,1,1,754,998
7664,59849076,1,-0.00777089,0.002370781,-0.0009783969,-0.2737951,0.02959075,-9.856472,0,0,45.59665,1,1,754,998
7668,59852260,1,-0.007726053,0.001691323,-0.002867394,-0.2594687,0.04297455,-9.837759,0,0,45.59638,1,1,754,998
7699,59855092,1,-0.004113137,0.0007914688,-0.001386812,-0.2391538,0.05337558,-9.803763999999999,0,0,45.59638,1,1,754,998
7702,59857095,1,0.0009468879,0.001175124,0.001188104,-0.2228246,0.04411197,-9.766920000000001,0,0,45.59638,1,1,754,998
7705,59859777,1,0.004038523,0.002746284,0.001153689,-0.2198773,0.03374392,-9.766242999999999,0,0,45.59638,1,1,754,998
7708,59861955,1,0.00376791,0.003475158,-0.0001347245,-0.2235993,0.018519,-9.818047999999999,0,0,45.59612,1,1,754,998
7739,59864996,1,0.003008236,0.002972541,-0.0006322325,-0.2248888,0.01309618,-9.864388,0,0,45.59612,1,1,754,998
7742,59867403,1,0.004423661,0.002532814,-0.0009549689,-0.2217221,0.02112549,-9.903418,0,0,45.59612,1,1,754,998
7750,59870130,1,0.005181122,0.003372818,-0.000931659,-0.220482,0.03315793,-9.907044000000001,0,0,45.59612,1,1,754,998
7753,59871941,1,0.003965104,0.008577593,-0.001630991,-0.2131403,0.05468158,-9.907178,0,0,45.59588,1,1,754,998
7784,59874943,1,0.002970975,0.009145093999999999,-0.001894088,-0.206791,0.05786751,-9.895414000000001,0,0,45.59588,1,1,754,998
7787,59877563,1,0.002878088,0.007922480000000001,-0.002046736,-0.2046551,0.04624473,-9.875063000000001,0,0,45.59588,1,1,754,998
7791,59880088,1,0.002125147,0.005996173,-0.001064435,-0.2047004,0.03932345,-9.868319,0,0,45.59588,1,1,754,998
7794,59882262,1,-0.002401133,0.004250399,-0.001797927,-0.2093482,0.02669141,-9.859648999999999,0,0,45.59588,1,1,754,998
7825,59884474,1,-0.005164862,0.003268227,-0.001645905,-0.2125949,0.01715194,-9.855365000000001,0,0,45.59565,1,1,754,998
7828,59886994,1,-0.007303536,0.00293363,-0.001322235,-0.2075247,-0.01161123,-9.852783000000001,0,0,45.59565,1,1,754,998
7831,59890474,1,-0.008364689999999999,0.00263098,-0.001739102,-0.198552,-0.0377638,-9.857009,0,0,45.59565,1,1,754,998
7834,59892381,1,-0.008534778,0.001083578,-0.001036184,-0.1794957,-0.05731826,-9.860488,0,0,45.59565,1,1,754,998
7865,59894764,1,-0.007383762,0.002799559,-0.001492067,-0.1678448,-0.04566658,-9.859019999999999,0,0,45.59542,1,1,754,998
7868,59897287,1,-0.006968535,0.002746335,-0.001985377,-0.1751467,-0.04271717,-9.862736,0,0,45.59542,1,1,754,998
7872,59900003,1,-0.005031677,3.202619e-06,-0.001559069,-0.1878601,-0.04724123,-9.859522,0,0,45.59542,1,1,754,998
7875,59902389,1,-0.003687474,-0.00356106,5.47151e-05,-0.205702,-0.05899794,-9.838381,0,0,45.59542,1,1,754,998
7906,59905896,1,-0.004492203,-0.004326086,-0.002232067,-0.2125397,-0.07243160999999999,-9.812977,0,0,45.59519,1,1,754,998
7909,59907166,1,-0.004194943,-0.00406568,-0.002186897,-0.2255602,-0.07374313,-9.798177000000001,0,0,45.59519,1,1,754,998
7912,59910000,1,-0.005495053,-0.004613325,-0.0009446451,-0.2348651,-0.06692301,-9.791755,0,0,45.59519,1,1,754,998
7915,59911981,1,-0.006067999,-0.005259627,0.0009668036,-0.2324945,-0.06277155,-9.788048,0,0,45.59519,1,1,754,998
7946,59917936,1,-0.003066628,-0.005233716,0.00128613,-0.2112476,-0.06589035,-9.794264,0,0,45.59494,1,1,754,998
7950,59919918,1,-0.003474891,-0.004047859,0.0005807896000000001,-0.202538,-0.05121968,-9.805989,0,0,45.59494,1,1,754,998
7954,59922041,1,-0.005874958,-0.002914543,-0.00214916,-0.1970785,-0.02996556,-9.823962,0,0,45.59494,1,1,754,998
7985,59924470,1,-0.007892817999999999,-0.001289034,-0.005307203,-0.1929666,-0.0162055,-9.827762,0,0,45.59494,1,1,754,998
7988,59927532,1,-0.00734294,0.001160582,-0.008325691,-0.1777303,0.008866074999999999,-9.824787000000001,0,0,45.59467,1,1,754,998
7991,59929919,1,-0.005283758,0.00211405,-0.01016327,-0.1698376,0.02158903,-9.827415999999999,0,0,45.59467,1,1,754,998
7995,59932528,1,-0.004092155,0.001355935,-0.01150801,-0.1647262,0.04911182,-9.824764999999999,0,0,45.59467,1,1,754,998
8028,59935030,1,-0.00328779,-0.002504997,-0.009784503999999999,-0.1564734,0.06889828000000001,-9.836209999999999,0,0,45.59467,1,1,754,998
8031,59937356,1,-0.003163714,-0.005367206,-0.004129302,-0.1462613,0.06833929,-9.848475000000001,0,0,45.59467,1,1,754,998
8035,59940398,1,-0.002895795,-0.004422203,-0.000939011,-0.1340266,0.04106829,-9.859951000000001,0,0,45.59438,1,1,754,998
8038,59942993,1,-0.002288823,5.486067e-05,-0.001275691,-0.1403114,0.01218391,-9.861723,0,0,45.59438,1,1,754,998
8069,59945747,1,-0.004193652,0.003280343,-0.003849078,-0.1641901,-0.03049071,-9.840595,0,0,45.59438,1,1,754,998
8072,59947956,1,-0.006134523,0.004263159,-0.006798164,-0.18684,-0.04784066,-9.79125,0,0,45.59438,1,1,754,998
8075,59950418,1,-0.005904858,0.004626329,-0.006713721,-0.1946977,-0.05113623,-9.76341,0,0,45.59407,1,1,754,998
8078,59953397,1,-0.002404804,0.004668956,-0.004619207,-0.2060178,-0.04933378,-9.754232999999999,0,0,45.59407,1,1,754,998
8110,59956278,1,0.0007023562,0.002498853,-0.002328399,-0.2273507,-0.02037154,-9.761552,0,0,45.59407,1,1,754,998
8113,59958290,1,0.0002784958,8.035713e-05,-0.0009245398,-0.2365778,-0.004482456,-9.767963999999999,0,0,45.59407,1,1,754,998
8117,59960933,1,-0.001317448,-0.001457006,0.000859059,-0.2359845,0.009887514999999999,-9.778267,0,0,45.59377,1,1,754,998
8120,59963523,1,-0.001654186,-0.001732505,0.001064148,-0.2340278,0.005420011,-9.78125,0,0,45.59377,1,1,754,998
8151,59966502,1,0.0005503887,-0.0005441944,0.003223552,-0.2424978,-0.00707033,-9.795661000000001,0,0,45.59377,1,1,754,998
8154,59969025,1,-0.0001223895,-0.0003602972,0.003495638,-0.2540873,-0.02345028,-9.809957000000001,0,0,45.59377,1,1,754,998
8162,59971258,1,-0.002702637,0.000310819,0.001766235,-0.273487,-0.05178479,-9.820964999999999,0,0,45.59349,1,1,754,998
8167,59973375,1,-0.004115818,0.00121406,0.001869106,-0.2810858,-0.06864480000000001,-9.809512,0,0,45.59349,1,1,754,998
8198,59975998,1,-0.006190356,0.001139432,0.001804014,-0.2826768,-0.09397174,-9.792669999999999,0,0,45.59349,1,1,754,998
8201,59978786,1,-0.006348251,0.001962288,0.0008642089,-0.2812173,-0.1061398,-9.7903,0,0,45.59349,1,1,754,998
8205,59981367,1,-0.003760549,0.002805985,0.001145414,-0.2778701,-0.1093198,-9.780161,0,0,45.59349,1,1,754,998
8208,59983364,1,-0.00271454,0.002788709,0.001202809,-0.2705865,-0.09774023,-9.775791999999999,0,0,45.59323,1,1,754,998
8239,59985923,1,-0.001242907,0.001626432,0.003102834,-0.2675399,-0.06789025,-9.7841,0,0,45.59323,1,1,754,998
8242,59988389,1,-0.0006643986,0.001807836,0.002657509,-0.2664318,-0.04540516,-9.783492000000001,0,0,45.59323,1,1,754,998
8246,59991362,1,0.0004422522,0.001026911,-0.001358926,-0.2605012,-0.02450774,-9.749826000000001,0,0,45.59323,1,1,754,998
8251,59994303,1,0.0008800703,0.0007529609,-0.002178094,-0.2566761,-0.02180331,-9.730093999999999,0,0,45.59298,1,1,754,998
8282,59996763,1,0.001611447,0.001287029,-0.003548692,-0.2507526,-0.02851173,-9.727213000000001,0,0,45.59298,1,1,754,998
8285,59998759,1,0.002461674,0.003151299,-0.0007006177,-0.2308024,-0.04287181,-9.739049,0,0,45.59298,1,1,754,998
8288,60001586,1,0.003384436,0.00308682,0.0009281496,-0.2214065,-0.05129055,-9.758635999999999,0,0,45.59298,1,1,754,998
8291,60004531,1,0.005726938,0.002605252,0.004324599,-0.1983349,-0.05592583,-9.788005,0,0,45.59274,1,1,754,998
8322,60007282,1,0.008166837999999999,0.001918431,0.00894966,-0.1723534,-0.06066792,-9.800324,0,0,45.59274,1,1,754,998
8325,60009942,1,0.008562719999999999,0.002034525,0.009899750000000001,-0.1575481,-0.07433973000000001,-9.805165000000001,0,0,45.59274,1,1,754,998
8329,60012166,1,0.007762973,0.00203258,0.01085244,-0.150872,-0.09125949,-9.804478,0,0,45.59274,1,1,754,998
8332,60014493,1,0.006110037,0.001092538,0.01025919,-0.153058,-0.08762327,-9.805427,0,0,45.59274,1,1,754,998
8363,60018418,1,0.002667667,-0.0006489813,0.006284047,-0.1632081,-0.08257595,-9.814367000000001,0,0,45.59253,1,1,754,998
8366,60022364,1,-0.001172954,-0.001885683,-0.00296865,-0.1681622,-0.08170326999999999,-9.819504999999999,0,0,45.59253,1,1,754,998
8370,60024975,1,-0.0005325674,-0.0007711782,-0.004220386,-0.1635438,-0.07622617,-9.786595,0,0,45.59253,1,1,754,998
8401,60027376,1,-0.000292534,-0.002266231,-0.0007429381,-0.1648958,-0.06673639000000001,-9.781095000000001,0,0,45.59234,1,1,754,998
8404,60030715,1,-0.001048893,-0.002396751,0.001397618,-0.1755159,-0.04575974,-9.784357,0,0,45.59234,1,1,754,998
8407,60032513,1,-0.002023047,-0.0002365705,0.0004454377,-0.1814809,-0.03046472,-9.782933,0,0,45.59234,1,1,754,998
8412,60035379,1,-0.003285079,0.003583999,-0.003644951,-0.1826138,0.0001298096,-9.767734000000001,0,0,45.59234,1,1,754,998
8443,60038274,1,-0.002770704,0.004868668,-0.005134584,-0.1862905,0.02310287,-9.767167000000001,0,0,45.59217,1,1,754,998
8446,60040163,1,0.0005109024,0.0006423019000000001,-0.003273187,-0.1947435,0.04409341,-9.786402000000001,0,0,45.59217,1,1,754,998
8449,60042973,1,0.002084717,-0.002659766,-0.001747709,-0.1933824,0.03819681,-9.797693000000001,0,0,45.59217,1,1,754,998
8453,60044964,1,0.005555786,-0.006922389,-0.0004104887,-0.1968994,0.01420165,-9.805363,0,0,45.59217,1,1,754,998
8484,60047921,1,0.006389616,-0.007427237,0.001326825,-0.1995965,0.004310806,-9.798384,0,0,45.59217,1,1,754,998
8487,60050128,1,0.004526898,-0.006150924,0.002863063,-0.2009751,-0.008836023,-9.801729,0,0,45.59201,1,1,754,998
8490,60052541,1,0.002999637,-0.006521621,0.004856216,-0.2114478,-0.0146826,-9.808538,0,0,45.59201,1,1,754,998
8493,60055533,1,0.002787959,-0.006838665,0.004413041,-0.2365321,-0.01945429,-9.807065,0,0,45.59201,1,1,754,998
8524,60057968,1,0.002957348,-0.00600024,0.00358591,-0.2423743,-0.02532877,-9.804525,0,0,45.59201,1,1,754,998
8527,60060409,1,0.002356461,-0.002345548,0.001953644,-0.2304842,-0.04616421,-9.807032,0,0,45.59187,1,1,754,998
8530,60062574,1,0.001855904,-0.001409425,0.001987363,-0.2145395,-0.06144983,-9.808811,0,0,45.59187,1,1,754,998
8534,60065165,1,0.0006750199,-0.0006353245,0.00222066,-0.1856101,-0.0780189,-9.81292,0,0,45.59187,1,1,754,998
8565,60067873,1,0.002179722,-0.001910319,0.002984426,-0.1754858,-0.08852736999999999,-9.810936999999999,0,0,45.59187,1,1,754,998
8568,60070131,1,0.003739052,-0.003178581,0.002881342,-0.1744365,-0.09989603,-9.784433,0,0,45.59173,1,1,754,998
8575,60072950,1,0.004294007,-0.004262799,0.003632569,-0.1763296,-0.103856,-9.766524,0,0,45.59173,1,1,754,998
8579,60075747,1,0.004379291,-0.0009805021999999999,0.0007194751000000001,-0.1833828,-0.09772441,-9.738792999999999,0,0,45.59173,1,1,754,998
8610,60078310,1,0.002167269,0.00355135,-0.002291681,-0.1951969,-0.07108957,-9.708321,0,0,45.59173,1,1,754,998
8613,60080800,1,-0.003254971,0.00515109,-0.003369449,-0.2071859,-0.06433572999999999,-9.690955000000001,0,0,45.59173,1,1,754,998
8616,60083095,1,-0.007137117,0.006002613,-0.004761876,-0.2214189,-0.07572798,-9.665034,0,0,45.5916,1,1,754,998
8620,60085601,1,-0.009164597999999999,0.005468457,-0.005360947,-0.2296196,-0.07709641,-9.64198,0,0,45.5916,1,1,754,998
8651,60088515,1,-0.009305767,0.002816365,-0.006044326,-0.2502788,-0.08308395,-9.613334,0,0,45.5916,1,1,754,998
8654,60091304,1,-0.008539295000000001,0.002234986,-0.005317278,-0.2699824,-0.08891322,-9.602235,0,0,45.5916,1,1,754,998
8657,60092913,1,-0.002899838,2.255122e-05,-0.000338524,-0.2931856,-0.100413,-9.601017000000001,0,0,45.59149,1,1,754,998
8661,60095572,1,-0.001819316,-0.0008046991,0.0009345483,-0.3034934,-0.1047874,-9.606222000000001,0,0,45.59149,1,1,754,998
8692,60097971,1,-0.0003502862,-0.003225697,0.002263595,-0.3116078,-0.09770996999999999,-9.624434000000001,0,0,45.59149,1,1,754,998
8695,60101005,1,0.001922576,-0.006011861,0.002420548,-0.3140624,-0.08392226,-9.647425,0,0,45.59149,1,1,754,998
8698,60103437,1,0.0009178357,-0.008402989,0.001232996,-0.3115343,-0.06123659,-9.674545999999999,0,0,45.59138,1,1,754,998
8701,60106140,1,-0.0006802696,-0.008193044999999999,-0.0004419179,-0.3066746,-0.04408345,-9.687734000000001,0,0,45.59138,1,1,754,998
8732,60108344,1,-0.0005531842,-0.006152861,-0.002410864,-0.2990589,-0.01597471,-9.698392,0,0,45.59138,1,1,754,998
8735,60110985,1,-0.002447183,-0.003982335,-0.003021577,-0.2924275,0.005586092,-9.728941000000001,0,0,45.59138,1,1,754,998
8738,60114922,1,-0.00247425,-0.002226331,-0.00430445,-0.2843274,0.01435936,-9.755909000000001,0,0,45.59138,1,1,754,998
8741,60117664,1,-0.0002254514,-0.0001699701,-0.005306715,-0.2602752,0.02374183,-9.777547,0,0,45.59129,1,1,754,998
8744,60118803,1,8.498470000000001e-05,0.0004325382,-0.004663207,-0.2296677,0.02720469,-9.793882999999999,0,0,45.59129,1,1,754,998
8776,60121472,1,-0.001508368,-0.0002655924,-0.00105615,-0.2203831,0.01933644,-9.802999,0,0,45.59129,1,1,754,998
8779,60125159,1,-0.003175018,-0.0031337,0.002259416,-0.2119308,0.004214698,-9.793969000000001,0,0,45.59129,1,1,754,998
8782,60126301,1,-0.003294261,-0.006274208,0.002680737,-0.2071626,-0.004123849,-9.786307000000001,0,0,45.5912,1,1,754,998
8785,60129440,1,-0.003730953,-0.005474175,0.002415325,-0.2201999,-0.02064185,-9.789701000000001,0,0,45.5912,1,1,754,998
8816,60131763,1,-0.003854623,-0.003829412,0.00305737,-0.2363262,-0.03208206,-9.80308,0,0,45.5912,1,1,754,998
8821,60134308,1,-0.00115954,0.0008159097,0.003953551,-0.2527996,-0.03992532,-9.794866000000001,0,0,45.5912,1,1,754,998
8825,60137290,1,0.0006713834,0.001510891,0.003089242,-0.2663938,-0.03037462,-9.771520000000001,0,0,45.59113,1,1,754,998
8828,60139160,1,0.003654473,0.0008561072,0.002933571,-0.2823672,-0.005976104,-9.727862,0,0,45.59113,1,1,754,998
8859,60142338,1,0.004502877,-0.002071511,0.003770649,-0.2814472,0.005282231,-9.691886,0,0,45.59113,1,1,754,998
8862,60144306,1,0.003950106,-0.002255671,0.00350223,-0.2767681,0.01210717,-9.67028,0,0,45.59113,1,1,754,998
8865,60147019,1,0.002357152,-0.001292048,-0.0008622017,-0.2702714,0.0212365,-9.664244,0,0,45.59113,1,1,754,998
8868,60149988,1,0.001635872,0.001440877,-0.005349284,-0.2569491,0.0385043,-9.687994,0,0,45.59106,1,1,754,998
8899,60152303,1,0.001040067,0.002664061,-0.002933691,-0.2494045,0.03777223,-9.718223,0,0,45.59106,1,1,754,998
8903,60155503,1,0.001133762,-0.0001947545,0.0001243622,-0.2406415,0.02377926,-9.733889,0,0,45.59106,1,1,754,998
8906,60157297,1,0.003936055,-0.003522721,-0.000760391,-0.2267622,0.002644756,-9.748464999999999,0,0,45.59106,1,1,754,998
8909,60159961,1,0.007454736,-0.005821259,-0.003294737,-0.2237799,-0.0007032173,-9.753031999999999,0,0,45.59101,1,1,754,998
8940,60162789,1,0.008348764,-0.006237919,-0.002821772,-0.2114348,0.001389854,-9.751897,0,0,45.59101,1,1,754,998
8943,60164937,1,0.007563599,-0.006007567,-0.002213346,-0.2064192,0.01017272,-9.750914,0,0,45.59101,1,1,754,998
8946,60167789,1,0.002520338,-0.003755782,-0.003522323,-0.2184233,0.02555156,-9.754413,0,0,45.59101,1,1,754,998
8949,60170163,1,0.001652957,-0.002739154,-0.003615153,-0.2315122,0.02866951,-9.772427,0,0,45.59098,1,1,754,998
8980,60172357,1,0.001248161,-0.004027916,-0.003984494,-0.2519373,0.02966732,-9.823230000000001,0,0,45.59098,1,1,754,998
8988,60175948,1,0.001042143,-0.006477808,-0.004387964,-0.2678095,0.02849886,-9.85454,0,0,45.59098,1,1,754,998
8991,60177151,1,-0.0005782794,-0.004463496,-0.002470035,-0.2807346,0.02432812,-9.87012,0,0,45.59098,1,1,754,998
8996,60180314,1,-0.0002360658,-0.0004658354,-0.0002890111,-0.2870511,0.01856652,-9.871813,0,0,45.59098,1,1,754,998
9027,60183118,1,0.00176123,0.001520341,0.0006986199,-0.2967205,0.01332147,-9.871461999999999,0,0,45.59095,1,1,754,998
9031,60185879,1,0.002312426,0.001919152,0.002556118,-0.3068425,0.009165621000000001,-9.877221,0,0,45.59095,1,1,754,998
9035,60187717,1,0.001267879,0.002650984,0.0033438,-0.3136168,0.006625291,-9.880011,0,0,45.59095,1,1,754,998
9038,60190337,1,0.0005333574,0.005368337,0.001245484,-0.3105938,0.01766907,-9.884814,0,0,45.59095,1,1,754,998
9069,60193045,1,7.049875e-05,0.005380041,-0.0003711973,-0.2959493,0.02818159,-9.87928,0,0,45.59092,1,1,754,998
9072,60195955,1,0.001261404,0.003119736,-0.001039389,-0.2760058,0.02509171,-9.846393000000001,0,0,45.59092,1,1,754,998
9075,60198262,1,0.001159598,0.002136356,-0.0009259929,-0.2734567,0.007849058000000001,-9.816732,0,0,45.59092,1,1,754,998
9078,60200336,1,0.001427362,-0.0005749187999999999,-5.861175e-05,-0.2774206,-0.03110918,-9.78851,0,0,45.59092,1,1,754,998
9109,60202551,1,0.0003814638,-0.002852221,0.001945828,-0.2839416,-0.05560058,-9.764329999999999,0,0,45.59091,1,1,754,998
9113,60205282,1,-0.00141273,-0.003627651,0.002663743,-0.3105931,-0.07669361,-9.724968000000001,0,0,45.59091,1,1,754,998
9116,60208140,1,-0.002379643,-0.003523702,0.0009572746,-0.3226866,-0.07618807,-9.720364,0,0,45.59091,1,1,754,998
9119,60210885,1,-0.001199746,-0.002829822,-0.000156715,-0.323346,-0.06674927999999999,-9.729623,0,0,45.59091,1,1,754,998
9150,60214288,1,9.580396e-05,-0.003874374,-0.0007460926000000001,-0.301061,-0.07488983,-9.750305000000001,0,0,45.5909,1,1,754,998
9153,60215868,1,1.067544e-05,-0.002129112,-0.0008011228,-0.2825306,-0.0798898,-9.754975,0,0,45.5909,1,1,754,998
9156,60218254,1,-7.297786e-05,-0.002286159,0.001019031,-0.2584598,-0.06769936999999999,-9.773704,0,0,45.5909,1,1,754,998
9159,60220723,1,0.001439097,-0.004369195,-0.0003676872,-0.2463773,-0.05582778,-9.789421000000001,0,0,45.5909,1,1,754,998
9190,60224351,1,0.001832057,-0.002249824,-0.001918182,-0.2409549,-0.05595165,-9.804883999999999,0,0,45.5909,1,1,754,998
9194,60226398,1,0.001889625,-0.0004117471,-0.001459598,-0.2461553,-0.05848346,-9.822184,0,0,45.5909,1,1,754,998
9197,60228030,1,-0.0002961153,0.00379894,0.0004175931,-0.2480456,-0.04657936,-9.845119,0,0,45.5909,1,1,754,998
9200,60230756,1,-0.001775812,0.005126026,0.0007127270999999999,-0.2422701,-0.03079671,-9.864903,0,0,45.5909,1,1,754,998
9231,60233000,1,-0.00475827,0.007432433,0.00117995,-0.23764,-0.01382238,-9.906796999999999,0,0,45.5909,1,1,754,998
9234,60236380,1,-0.005388504,0.0105725,0.0002368563,-0.2415693,-0.007093701,-9.9376,0,0,45.59091,1,1,754,998
9238,60238656,1,-0.004142617,0.01154194,-0.001643474,-0.2559861,-0.01191742,-9.965339999999999,0,0,45.59091,1,1,754,998
9241,60240924,1,-0.004600779,0.0114012,-0.006595461,-0.2604791,-0.01802704,-9.968235999999999,0,0,45.59091,1,1,754,998
9272,60243025,1,-0.003972804,0.009901086,-0.009679070999999999,-0.2552242,-0.02246832,-9.963622000000001,0,0,45.59091,1,1,754,998
9276,60245633,1,-0.002167519,0.006208786,-0.005796903,-0.2511775,-0.02580272,-9.950661,0,0,45.59091,1,1,754,998
9279,60248553,1,-0.0001520493,0.00340706,0.0006923614,-0.2358832,-0.02002987,-9.936951000000001,0,0,45.59091,1,1,754,998
9282,60250960,1,0.0003461164,0.00301001,0.003280351,-0.2280893,-0.006075326,-9.936382,0,0,45.59091,1,1,754,998
9313,60253540,1,9.315505e-05,-0.0002753995,0.008437472,-0.2181541,0.02095974,-9.920927000000001,0,0,45.59091,1,1,754,998
9317,60255917,1,-0.001091291,-0.0009550305,0.008431259999999999,-0.2094543,0.04681046,-9.892858,0,0,45.59091,1,1,754,998
9321,60258036,1,-0.003092165,-0.0002878599,0.005084829,-0.2126349,0.08076342,-9.851815,0,0,45.59089,1,1,754,998
9324,60261383,1,-0.003107834,0.0009493387,0.001275157,-0.2179933,0.1042392,-9.839892000000001,0,0,45.59089,1,1,754,998
9355,60263726,1,-0.004800082,0.000346373,-0.001962469,-0.2239664,0.1303592,-9.811373,0,0,45.59089,1,1,754,998
9358,60266888,1,-0.006113744,0.0009430697,-0.004303211,-0.2310719,0.1366171,-9.788404999999999,0,0,45.59089,1,1,754,998
9361,60268669,1,-0.005733912,0.001103525,-0.005963078,-0.2356579,0.128519,-9.775399999999999,0,0,45.59085,1,1,754,998
9364,60271253,1,-0.003008425,-0.0001404522,-0.005068184,-0.2501916,0.09946182000000001,-9.776534,0,0,45.59085,1,1,754,998
9395,60274280,1,-0.002531099,-0.004037626,-0.001753705,-0.2657191,0.08350053,-9.791988999999999,0,0,45.59085,1,1,754,998
9403,60276951,1,-0.004121648,-0.008987924,0.0006439616,-0.2891183,0.03410371,-9.797072,0,0,45.59085,1,1,754,998
9406,60278674,1,-0.00422599,-0.01043066,0.001395695,-0.3088045,0.003629718,-9.797279,0,0,45.59085,1,1,754,998
9409,60281164,1,-0.004499733,-0.006950936,0.0009237438,-0.3337855,-0.02508644,-9.795971,0,0,45.59083,1,1,754,998
9440,60284128,1,-0.004201266,-0.004527073,0.0001999063,-0.3429942,-0.03576262,-9.795325999999999,0,0,45.59083,1,1,754,998
9443,60286719,1,0.00108723,-0.0006586406,-0.002308378,-0.3457347,-0.04242457,-9.777831000000001,0,0,45.59083,1,1,754,998
9446,60289357,1,0.00271092,-0.0007501747,-0.003248547,-0.3405971,-0.04780841,-9.762340999999999,0,0,45.59083,1,1,754,998
9450,60291275,1,0.002855554,-0.004107328,-0.003229708,-0.3315005,-0.05024569,-9.748276000000001,0,0,45.59082,1,1,754,998
9481,60293703,1,0.0008835696000000001,-0.006945391,-0.001171182,-0.3175413,-0.03952276,-9.737094000000001,0,0,45.59082,1,1,754,998
9485,60296253,1,-0.001437873,-0.00708827,0.001841563,-0.2723733,-0.02774316,-9.717041999999999,0,0,45.59082,1,1,754,998
9488,60299338,1,-0.004538874,-0.006865463,0.004754233,-0.2466034,-0.01143731,-9.729072,0,0,45.59082,1,1,754,998
9493,60301888,1,-0.004301245,-0.004970226,0.005765977,-0.2031388,0.01342812,-9.759212,0,0,45.59081,1,1,754,998
9524,60304079,1,-0.0003153022,-0.004660865,0.002391497,-0.1501484,0.03411079,-9.789078,0,0,45.59081,1,1,754,998
9527,60306995,1,0.004251874,-0.006758836,-0.0009682127,-0.1199797,0.04405495,-9.803101,0,0,45.59081,1,1,754,998
9530,60309390,1,0.005608564,-0.008854937,-0.001709684,-0.1018729,0.04191081,-9.816865999999999,0,0,45.59081,1,1,754,998
9533,60312308,1,0.00499876,-0.008711412999999999,-0.001167962,-0.1026415,0.02159559,-9.816731000000001,0,0,45.59081,1,1,754,998
9564,60315897,1,0.002573556,-0.00342326,-0.001664847,-0.1116058,-0.0200326,-9.803779,0,0,45.59079,1,1,754,998
9568,60317249,1,0.00373383,0.0002434463,-0.0001527379,-0.1235007,-0.06032022,-9.807255,0,0,45.59079,1,1,754,998
9571,60319910,1,0.005065999,0.0009949265999999999,0.0008415989999999999,-0.1343154,-0.07706427,-9.804527,0,0,45.59079,1,1,754,998
9574,60322305,1,0.007335148,0.0007889151,-0.0005501483,-0.1479699,-0.08887612,-9.784557,0,0,45.59079,1,1,754,998
9605,60328070,1,0.005712304,-0.0009699916,-0.001723327,-0.1703616,-0.07967294,-9.706472,0,0,45.59078,1,1,754,998
9609,60330009,1,0.005597799,-0.0007112034,-0.0005818379,-0.1699749,-0.07120985000000001,-9.684231,0,0,45.59078,1,1,754,998
9612,60332177,1,0.005872265,-0.001707317,0.001403604,-0.1681653,-0.06283188000000001,-9.675622000000001,0,0,45.59078,1,1,754,998
9643,60334550,1,0.005466555,-0.001319806,0.002233107,-0.1734345,-0.06264906000000001,-9.685797000000001,0,0,45.59078,1,1,754,998
9646,60337561,1,0.004697152,-0.002774072,0.001329274,-0.1866488,-0.0620744,-9.702703,0,0,45.59078,1,1,754,998
9649,60339959,1,0.004279376,-0.003447956,-0.001510895,-0.1973825,-0.06087769,-9.721781,0,0,45.59078,1,1,754,998
9654,60342652,1,0.004702699,-0.0005336616,-0.004156861,-0.2058932,-0.07011489999999999,-9.740451999999999,0,0,45.59078,1,1,754,998
9685,60344940,1,0.004837739,0.001224676,-0.001927341,-0.2219214,-0.06954993,-9.747488000000001,0,0,45.59078,1,1,754,998
9688,60347406,1,0.0040259,0.003193857,0.002054998,-0.2306838,-0.06226243,-9.74316,0,0,45.59078,1,1,754,998
9692,60350389,1,0.004422978,0.004351658,0.006572793,-0.2416988,-0.0219849,-9.722104,0,0,45.59078,1,1,754,998
9695,60353160,1,0.004038143,0.004118443,0.008057547,-0.2559383,0.01093966,-9.706714,0,0,45.59078,1,1,754,998
9726,60355970,1,0.003205094,0.001730555,0.003116802,-0.266973,0.03906642,-9.678456000000001,0,0,45.59078,1,1,754,998
9729,60357972,1,0.003843981,0.0003211582,-0.002202005,-0.2600252,0.04584163,-9.654263,0,0,45.59079,1,1,754,998
9732,60360565,1,0.003356318,-0.0006358598,-0.003034307,-0.2556401,0.04598039,-9.654434,0,0,45.59079,1,1,754,998
9735,60363724,1,-0.0002817927,-0.007200984,-0.001112275,-0.2530978,0.04438329,-9.661481,0,0,45.59079,1,1,754,998
9766,60366376,1,0.0002182357,-0.008495117,0.001771024,-0.2501009,0.04455163,-9.685675,0,0,45.59079,1,1,754,998
9769,60368515,1,0.001004133,-0.007534636,0.003298243,-0.2491127,0.03886043,-9.71299,0,0,45.59081,1,1,754,998
9773,60371121,1,0.002102114,-0.008692103,0.00747427,-0.2339714,0.02202581,-9.742692,0,0,45.59081,1,1,754,998
9776,60373947,1,0.001246784,-0.009484882,0.008286808,-0.2194578,0.004945191,-9.762995999999999,0,0,45.59081,1,1,754,998
9807,60376557,1,-0.0008906434,-0.008111777000000001,0.007719717,-0.2167902,-0.02074031,-9.800062,0,0,45.59081,1,1,754,998
9814,60379445,1,-0.0006875196,-0.007326262,0.005245676,-0.2159473,-0.04466826,-9.814083,0,0,45.59082,1,1,754,998
9818,60380829,1,0.000926432,-0.003724815,-0.0008258773,-0.2080724,-0.08224020999999999,-9.818604000000001,0,0,45.59082,1,1,754,998
9823,60384170,1,0.001567255,-0.001283862,-0.003598683,-0.1986487,-0.09565833999999999,-9.808334,0,0,45.59082,1,1,754,998
9854,60386411,1,0.0004124506,-0.001232351,-0.0007473947,-0.1875929,-0.1004979,-9.799811,0,0,45.59082,1,1,754,998
9857,60389523,1,-0.001348111,-0.001857915,0.001945986,-0.1681408,-0.0973603,-9.813981,0,0,45.59083,1,1,754,998
9860,60391995,1,-0.003311736,-0.003005969,0.0008643903,-0.1580015,-0.1047963,-9.82512,0,0,45.59083,1,1,754,998
9863,60394152,1,-0.002133145,-0.003634835,-0.004327823,-0.1557553,-0.1141676,-9.815362,0,0,45.59083,1,1,754,998
9894,60396378,1,0.001491035,-0.004338308,-0.008858019,-0.1622855,-0.1076719,-9.808706000000001,0,0,45.59083,1,1,754,998
9897,60398948,1,0.003734747,-0.005264618,-0.01003471,-0.1759489,-0.08184851,-9.809175,0,0,45.59083,1,1,754,998
9901,60402117,1,0.002993732,-0.004713594,-0.009112996999999999,-0.1898243,-0.06402064,-9.812302000000001,0,0,45.59082,1,1,754,998
9904,60404534,1,-9.211510000000001e-06,-0.002220165,-0.006454807,-0.2172231,-0.03424005,-9.820841,0,0,45.59082,1,1,754,998
9935,60406904,1,0.001063764,-0.001411638,-0.003357947,-0.2300938,-0.0007050948999999999,-9.819604999999999,0,0,45.59082,1,1,754,998
9938,60409974,1,0.001581899,-0.0008253381,-0.002091498,-0.2324901,0.01105934,-9.813235000000001,0,0,45.59082,1,1,754,998
9941,60412389,1,-7.218752e-07,-0.0009071408999999999,0.001886807,-0.2403211,-0.000308351,-9.797862,0,0,45.59083,1,1,754,998
9944,60414586,1,-6.943825e-05,-0.002230702,0.003255295,-0.2430015,-0.007628754,-9.787303,0,0,45.59083,1,1,754,998
9975,60418254,1,0.001489248,-0.005475373,0.006413036,-0.2409583,-0.00723794,-9.777981,0,0,45.59083,1,1,754,998
9978,60419917,1,0.004213737,-0.006678429,0.009006073,-0.2363299,0.005896006,-9.782121,0,0,45.59083,1,1,754,998
9982,60422289,1,0.004964605,-0.005443381,0.01123378,-0.2201556,0.0172092,-9.787856,0,0,45.59084,1,1,754,998
9985,60427968,1,-0.0002687483,-0.005004157,0.007577297,-0.1968301,0.02508468,-9.803597,0,0,45.59084,1,1,754,998
10018,60430257,1,-0.004045861,-0.003723502,0.002656846,-0.2088401,0.02831913,-9.795636999999999,0,0,45.59084,1,1,754,998
10022,60432730,1,-0.003288714,0.0003311223,-0.00186037,-0.2196537,0.03339177,-9.794043,0,0,45.59084,1,1,754,998
10025,60435955,1,-0.003364297,0.001604525,-0.001365901,-0.2323493,0.03089818,-9.816869000000001,0,0,45.59085,1,1,754,998
10028,60437804,1,-0.00441634,0.002100121,-0.0009100881,-0.2351916,0.0198302,-9.830000999999999,0,0,45.59085,1,1,754,998
10059,60440760,1,-0.004214673,0.003770743,-0.00371005,-0.2412916,0.006075236,-9.820714000000001,0,0,45.59085,1,1,754,998
10062,60443131,1,-0.004411959,0.004969573,-0.006002815,-0.2462143,0.0005697025,-9.813046999999999,0,0,45.59085,1,1,754,998
10065,60445585,1,-0.003647323,0.003429789,-0.007313004,-0.2539335,-0.007255773,-9.788088,0,0,45.59087,1,1,754,998
10068,60448333,1,-0.002641921,0.001278728,-0.007079017,-0.2531865,0.0002393528,-9.775461,0,0,45.59087,1,1,754,998
10099,60451310,1,-0.001643478,-0.0007213042,-0.006146534,-0.2323233,0.02628533,-9.756779999999999,0,0,45.59087,1,1,754,998
10104,60453556,1,-0.002139156,-1.317623e-05,-0.004614046,-0.2147555,0.04075754,-9.745782,0,0,45.59087,1,1,754,998
10107,60456039,1,-0.004326454,0.001496334,-0.001110474,-0.194783,0.04120866,-9.747503,0,0,45.59089,1,1,754,998
10111,60458319,1,-0.006001938,0.003424768,0.00142891,-0.1797424,0.03672728,-9.753622,0,0,45.59089,1,1,754,998
10142,60461292,1,-0.004410924,0.00330536,0.002661571,-0.1623203,0.02253654,-9.771509,0,0,45.59089,1,1,754,998
10145,60463989,1,-0.002744923,0.00168225,0.002898368,-0.1603674,0.01272612,-9.785511,0,0,45.59089,1,1,754,998
10148,60466366,1,-0.0006850389,-0.002446917,0.002432203,-0.1578356,-0.005276617,-9.801397,0,0,45.59089,1,1,754,998
10151,60468403,1,-0.001192101,-0.004195183,0.001864467,-0.1551109,-0.0116752,-9.807572,0,0,45.59092,1,1,754,998
10182,60470967,1,-0.001637064,-0.006090364,-0.0002339226,-0.1632901,-0.01868212,-9.805052999999999,0,0,45.59092,1,1,754,998
10186,60473929,1,0.001083942,-0.003614491,-0.0022121,-0.1788481,-0.01777212,-9.816686000000001,0,0,45.59092,1,1,754,998
10189,60476487,1,0.004502751,0.0002200005,-0.001310123,-0.1898946,-0.005624799,-9.837669,0,0,45.59092,1,1,754,998
10192,60478264,1,0.005731354,0.0004506367,-0.000827129,-0.1921885,0.01574688,-9.855857,0,0,45.59095,1,1,754,998
10227,60481277,1,0.005569278,-0.003043051,-0.001524963,-0.1948447,0.01120578,-9.832288,0,0,45.59095,1,1,754,998
10230,60483354,1,0.005570848,-0.005497723,-0.002355033,-0.1952199,0.006539993,-9.802873999999999,0,0,45.59095,1,1,754,998
10233,60486319,1,0.00474701,-0.009673269,-0.003935063,-0.1839665,-0.0008943197,-9.754861,0,0,45.59095,1,1,754,998
10237,60489075,1,0.003464855,-0.008981503,-0.003463727,-0.1764894,-0.003124306,-9.718896000000001,0,0,45.59095,1,1,754,998
10268,60491246,1,0.0006770387000000001,-0.00622307,-0.0009422639,-0.1779966,0.0005086123,-9.683293000000001,0,0,45.591,1,1,754,998
10272,60494151,1,0.001289305,-0.003680231,-0.001831001,-0.1838235,-0.002042779,-9.675535999999999,0,0,45.591,1,1,754,998
10275,60496358,1,0.001061951,-0.00427173,-0.002413312,-0.1932902,0.001645118,-9.674459000000001,0,0,45.591,1,1,754,998
10278,60499401,1,-0.0002551629,-0.004830167,-0.002764379,-0.2159522,0.01654762,-9.699859999999999,0,0,45.591,1,1,754,998
10309,60501994,1,-0.001851952,-0.003809562,-0.003404241,-0.2334326,0.03825077,-9.722966,0,0,45.59106,1,1,754,998
10312,60504073,1,-0.002538134,-0.004093852,-0.002328905,-0.2507059,0.05865849,-9.757301999999999,0,0,45.59106,1,1,754,998
10315,60506369,1,-0.00110209,-0.004460581,-0.001808402,-0.2545941,0.05870883,-9.764191,0,0,45.59106,1,1,754,998
10318,60508696,1,6.945529e-05,-0.003637415,-0.001896022,-0.2486528,0.04445803,-9.762409999999999,0,0,45.59106,1,1,754,998
10349,60511918,1,0.002669391,-0.002387513,-0.002109769,-0.2372284,0.03427538,-9.761559,0,0,45.59112,1,1,754,998
10353,60516384,1,0.007493319,0.0006157724,-0.003225732,-0.1942154,-0.009450864,-9.802943000000001,0,0,45.59112,1,1,754,998
10356,60518955,1,0.009029166,0.002733996,-0.004595862,-0.1814178,-0.02050834,-9.819998999999999,0,0,45.59112,1,1,754,998
10387,60521316,1,0.008131845,0.002242361,-0.004475302,-0.180232,-0.04430831,-9.829148999999999,0,0,45.59112,1,1,754,998
10391,60527377,1,0.004722264,-0.001968821,0.002848799,-0.197305,-0.09932982999999999,-9.802165,0,0,45.59119,1,1,754,998
10394,60528962,1,0.005434942,-0.004405647,0.005494228,-0.2158518,-0.1182183,-9.797673,0,0,45.59119,1,1,754,998
10425,60531305,1,0.007974534,-0.004958946,0.005201317,-0.2288777,-0.1254951,-9.793158999999999,0,0,45.59119,1,1,754,998
10428,60534164,1,0.008954301,-0.004384637,0.004976247,-0.250292,-0.1399202,-9.792392,0,0,45.59126,1,1,754,998
10431,60536999,1,0.007728997,-0.004095547,0.00502217,-0.2596606,-0.1363567,-9.791539999999999,0,0,45.59126,1,1,754,998
10434,60539386,1,0.002679064,-0.002287911,0.002377775,-0.2665168,-0.1104453,-9.791520999999999,0,0,45.59126,1,1,754,998
10465,60541490,1,0.001962092,-0.001043745,0.0008409565,-0.2690156,-0.09132139,-9.79097,0,0,45.59126,1,1,754,998
10469,60544027,1,0.0008835624,0.0009994233,-0.00122162,-0.2667188,-0.0749779,-9.753603999999999,0,0,45.59135,1,1,754,998
10472,60546290,1,-0.0008381567,0.003232668,-0.002721529,-0.2592479,-0.07242464999999999,-9.726646000000001,0,0,45.59135,1,1,754,998
10475,60549419,1,-0.001983675,0.004822424,-0.003405619,-0.2396783,-0.06117116,-9.718937,0,0,45.59135,1,1,754,998
10506,60552006,1,-0.003774991,0.002118782,-0.001441046,-0.2154338,-0.04030393,-9.719353,0,0,45.59135,1,1,754,998
10509,60554459,1,-0.003255975,0.000462767,0.0003238104,-0.2010451,-0.02353962,-9.714559,0,0,45.59135,1,1,754,998
10512,60556988,1,-0.001681573,-0.002759106,0.003117466,-0.1838494,-0.007467975,-9.713339,0,0,45.59143,1,1,754,998
10515,60559784,1,-0.002114984,-0.002783283,0.002387283,-0.1643209,0.001384903,-9.711466,0,0,45.59143,1,1,754,998
10546,60562344,1,-0.00442274,-0.001210522,0.0009785462999999999,-0.1562015,-0.004187841,-9.726747,0,0,45.59143,1,1,754,998
10550,60564364,1,-0.008227386999999999,0.00073844,-0.001562457,-0.1564814,0.005219441,-9.749931,0,0,45.59143,1,1,754,998
10554,60567163,1,-0.009406568000000001,0.001788082,-0.002937056,-0.1655498,0.01456577,-9.772774999999999,0,0,45.59153,1,1,754,998
10557,60569464,1,-0.009267541000000001,0.00179156,-0.003274949,-0.1865565,0.02458997,-9.829895,0,0,45.59153,1,1,754,998
10588,60571977,1,-0.00580391,5.186286e-05,-0.003467723,-0.199657,0.02302185,-9.901847999999999,0,0,45.59153,1,1,754,998
10591,60574953,1,-0.004370875,-0.001317883,-0.003821183,-0.2039614,0.009576886999999999,-9.948448000000001,0,0,45.59153,1,1,754,998
10594,60576604,1,-0.002248181,-0.004288877,-0.004299403,-0.2100802,-0.007332243,-9.982567,0,0,45.59153,1,1,754,998
10597,60579967,1,-0.0001583913,-0.004143452,-0.004943431,-0.2242959,-0.03025356,-9.991251,0,0,45.59163,1,1,754,998
10632,60582538,1,0.002363799,-0.00197899,-0.003496046,-0.2437194,-0.03987617,-9.977389000000001,0,0,45.59163,1,1,754,998
10636,60585298,1,0.006115649,-0.000286312,0.0003371757,-0.2484374,-0.05015004,-9.968909999999999,0,0,45.59163,1,1,754,998
10639,60587492,1,0.007554073,0.0002731981,0.001827681,-0.2465252,-0.06852645,-9.942695000000001,0,0,45.59163,1,1,754,998
10644,60590379,1,0.01017416,0.0001990968,0.003207159,-0.2476519,-0.08427124,-9.909024,0,0,45.59172,1,1,754,998
10675,60593322,1,0.008789396999999999,-0.003200134,0.002068918,-0.2550531,-0.09405756999999999,-9.831826,0,0,45.59172,1,1,754,998
10679,60595334,1,0.007798449,-0.004145275,0.00100399,-0.2586425,-0.09606692,-9.79895,0,0,45.59172,1,1,754,998
10682,60598293,1,0.005544308,-0.00436832,-0.0006803891,-0.2561258,-0.09682215,-9.767056,0,0,45.59172,1,1,754,998
10685,60600401,1,0.001837683,-0.003859435,0.0002467293,-0.2505481,-0.08748135999999999,-9.747491,0,0,45.5918,1,1,754,998
10716,60603142,1,7.105653e-05,-0.005315414,0.002436331,-0.2438054,-0.05068485,-9.718413,0,0,45.5918,1,1,754,998
10719,60605982,1,0.0006306044999999999,-0.004267622,0.001646921,-0.241514,-0.02566109,-9.706337,0,0,45.5918,1,1,754,998
10722,60607896,1,0.001856308,-0.002855233,-0.002836636,-0.2382642,-0.003179493,-9.699350000000001,0,0,45.5918,1,1,754,998
10725,60610559,1,0.002597529,-0.002568069,-0.004504073,-0.2292161,0.02381028,-9.695516,0,0,45.59187,1,1,754,998
10756,60613365,1,0.002810258,-0.0005056527,-0.00189577,-0.2252138,0.02040788,-9.712052,0,0,45.59187,1,1,754,998
10760,60615352,1,0.002688172,-4.594515e-05,-0.001122536,-0.2234367,0.01591661,-9.726205,0,0,45.59187,1,1,754,998
10763,60618172,1,0.004403907,-0.0003389927,-0.003074706,-0.2150791,0.007917219,-9.741804,0,0,45.59187,1,1,754,998
10766,60620404,1,0.00710971,-0.001516421,-0.005193264,-0.212115,0.00311708,-9.747566000000001,0,0,45.59187,1,1,754,998
10797,60623099,1,0.008241043,-0.001791501,-0.003758171,-0.2085735,0.0008375233,-9.746665999999999,0,0,45.59194,1,1,754,998
10800,60630749,1,0.0015183,-2.283938e-05,0.0002262104,-0.2265139,-0.04792517,-9.755599999999999,0,0,45.59194,1,1,754,998
10831,60633533,1,0.002096778,0.000419315,0.001808706,-0.2302577,-0.05900693,-9.765326,0,0,45.592,1,1,754,998
10835,60636481,1,0.00310872,0.001895956,0.001829659,-0.2227333,-0.07830906,-9.769848,0,0,45.592,1,1,754,998
10838,60638314,1,0.002079201,0.003301522,0.0005465733,-0.2157192,-0.08245622,-9.759198,0,0,45.592,1,1,754,998
10841,60641273,1,-0.001312518,0.004017077,0.0001200803,-0.2140543,-0.07658381,-9.761659,0,0,45.592,1,1,754,998
10872,60643565,1,-0.002894955,0.00422366,0.0007777476,-0.2106258,-0.05511034,-9.77535,0,0,45.59204,1,1,754,998
10875,60645922,1,-0.00110666,0.003918147,0.00477291,-0.1999353,-0.02696696,-9.787566999999999,0,0,45.59204,1,1,754,998
10878,60648974,1,-0.0001914828,0.002471607,0.005270332,-0.193067,-0.01056202,-9.793310999999999,0,0,45.59204,1,1,754,998
10881,60650955,1,0.0004276728,-0.0001898588,0.003829401,-0.1911535,-0.00234434,-9.805099999999999,0,0,45.59204,1,1,754,998
10912,60653882,1,0.0008507798,-0.002047861,0.001766715,-0.1948077,-0.00876804,-9.807525,0,0,45.59204,1,1,754,998
10916,60655951,1,0.003031787,-0.004013607,0.0003981648,-0.2071008,-0.01522798,-9.813181999999999,0,0,45.59207,1,1,754,998
10919,60658365,1,0.003689225,-0.004082271,0.0006589713000000001,-0.2277262,-0.02160035,-9.820679,0,0,45.59207,1,1,754,998
10922,60661258,1,0.0003786383,-0.002378729,-0.0007025,-0.2372101,-0.01718416,-9.825212000000001,0,0,45.59207,1,1,754,998
10939,60686362,1,0.001518775,0.001730422,-0.002014952,-0.1433281,0.02525292,-9.76637,0,0,45.59205,1,1,754,998
10943,60688307,1,0.0015217,0.0003518229,-0.002407784,-0.1410239,0.01013587,-9.751131000000001,0,0,45.59201,1,1,754,998
10946,60690996,1,-0.0002355226,-0.002419308,3.572181e-05,-0.1406346,0.001982142,-9.739007000000001,0,0,45.59201,1,1,754,998
10977,60694014,1,-0.001117836,-0.003313165,0.001892585,-0.1401875,0.01009864,-9.718730000000001,0,0,45.59201,1,1,754,998
10980,60695964,1,-0.001582735,-0.005486554,0.005156017,-0.161476,0.02237254,-9.699343000000001,0,0,45.59201,1,1,754,998
10983,60698767,1,-0.002132906,-0.005436749,0.0073603,-0.1822045,0.02425982,-9.692677,0,0,45.59195,1,1,754,998
10986,60700951,1,-0.002099078,-0.002900366,0.006937477,-0.2087814,0.02548996,-9.701765999999999,0,0,45.59195,1,1,754,998
11017,60703389,1,-0.0009336889,0.0003253132,0.004488119,-0.2361919,0.01610789,-9.732642,0,0,45.59195,1,1,754,998
11021,60706337,1,0.001507914,0.0027716,0.003295554,-0.2546768,-0.002012747,-9.746675,0,0,45.59195,1,1,754,998
11024,60708279,1,0.002898362,0.003067381,0.003163002,-0.2754914,-0.04073588,-9.743652000000001,0,0,45.59195,1,1,754,998
11027,60711473,1,0.00274729,0.001888324,0.003352066,-0.2816275,-0.07083082,-9.723459,0,0,45.59189,1,1,754,998
11058,60713739,1,0.001488922,0.001570621,0.002943563,-0.2803124,-0.1009138,-9.693251,0,0,45.59189,1,1,754,998
11061,60716688,1,-0.001200924,0.001780715,-0.0006819791,-0.2645433,-0.1111524,-9.675494,0,0,45.59189,1,1,754,998
11064,60721176,1,0.001248742,0.001288514,-0.004574125,-0.2357437,-0.1068352,-9.649153999999999,0,0,45.59182,1,1,754,998
11095,60726271,1,0.004243054,-0.000212996,0.001429344,-0.2155877,-0.08592553,-9.592454,0,0,45.59182,1,1,754,998
11099,60729028,1,0.003998478,0.0002628979,0.004319624,-0.2077474,-0.07307027000000001,-9.602048999999999,0,0,45.59182,1,1,754,998
11102,60732007,1,0.004023992,0.001077296,0.005824809,-0.1978464,-0.05271738,-9.642163999999999,0,0,45.59182,1,1,754,998
11133,60734152,1,0.00166772,0.0003556445,0.005776134,-0.1867675,-0.03736405,-9.673712,0,0,45.59174,1,1,754,998
11136,60737090,1,-3.802354e-05,-0.0007155478,0.001555224,-0.1834865,-0.03055786,-9.70135,0,0,45.59174,1,1,754,998
11140,60739341,1,-0.0009482671,2.693148e-05,-0.002203421,-0.1925139,-0.02714005,-9.745098,0,0,45.59174,1,1,754,998
11143,60741990,1,-0.0006072728,-0.0004907813,-0.002766605,-0.1981686,-0.01028967,-9.764149,0,0,45.59174,1,1,754,998
11174,60744785,1,0.002911529,-0.004603558,-0.002957497,-0.2042482,0.00238262,-9.789387,0,0,45.59165,1,1,754,998
11177,60747010,1,0.003329553,-0.006713021,-0.003576504,-0.2004184,-0.002876355,-9.803286999999999,0,0,45.59165,1,1,754,998
11180,60749917,1,0.00108044,-0.0104732,-0.00532965,-0.2041253,-0.01635617,-9.843030000000001,0,0,45.59165,1,1,754,998
11183,60751632,1,-0.002185809,-0.01110883,-0.004870897,-0.21687,-0.02708383,-9.877026000000001,0,0,45.59165,1,1,754,998
11214,60754166,1,-0.002658912,-0.008266605,-0.003455612,-0.2156052,-0.03965895,-9.916034,0,0,45.59156,1,1,754,998
11217,60757146,1,-0.0008311669,-0.006674713,-0.004184761,-0.206749,-0.04044248,-9.925656,0,0,45.59156,1,1,754,998
11221,60759029,1,0.002112796,-0.002993842,-0.004993239,-0.1851259,-0.04125155,-9.909955999999999,0,0,45.59156,1,1,754,998
11225,60762299,1,0.004034061,-0.0009719529,-0.004908144,-0.1670436,-0.0458442,-9.885885999999999,0,0,45.59156,1,1,754,998
11256,60764490,1,0.004082254,-0.001446431,-0.005118615,-0.1591748,-0.06321831,-9.857931000000001,0,0,45.59156,1,1,754,998
11259,60767450,1,0.004911402,-0.003301844,-0.002069908,-0.1670099,-0.07445669000000001,-9.828576,0,0,45.59146,1,1,754,998
11262,60769982,1,0.004565242,-0.00366588,-0.0004753514,-0.1752637,-0.07147331,-9.816388999999999,0,0,45.59146,1,1,754,998
11265,60772062,1,0.003636131,-0.002478417,-0.0008839821,-0.1863194,-0.06751206999999999,-9.789987999999999,0,0,45.59146,1,1,754,998
11296,60775074,1,0.003092862,-0.002820795,-0.0006961037,-0.2001897,-0.05752898,-9.775599,0,0,45.59146,1,1,754,998
11299,60776942,1,0.001532181,-0.00210444,0.0005465423,-0.2211706,-0.04444423,-9.770783,0,0,45.59138,1,1,754,998
11303,60780272,1,0.0006994776,0.0003614287,0.0004922278,-0.2344815,-0.03297008,-9.758001,0,0,45.59138,1,1,754,998
11307,60782283,1,-0.001701714,0.004851687,-0.0009783247000000001,-0.2548769,-0.01399979,-9.753348000000001,0,0,45.59138,1,1,754,998
11342,60785043,1,-0.002656123,0.003840917,-0.0005809036,-0.2610565,0.006981096,-9.757768,0,0,45.59138,1,1,754,998
11345,60787557,1,-0.003127739,-0.0006649236,0.0006491179,-0.2598841,0.03150937,-9.775738,0,0,45.59129,1,1,754,998
11349,60789988,1,-0.0004183339,-0.002799131,-0.0009457464,-0.2507282,0.03762493,-9.797321999999999,0,0,45.59129,1,1,754,998
11352,60792565,1,0.002554958,-0.001496454,-0.003130568,-0.2321189,0.03258178,-9.819932,0,0,45.59129,1,1,754,998
11384,60794934,1,0.002791048,0.001066869,-0.004056787,-0.2152898,0.03211937,-9.822756999999999,0,0,45.59129,1,1,754,998
11387,60797493,1,0.003460577,0.002733994,-0.003488391,-0.2066577,0.03241805,-9.824073,0,0,45.59129,1,1,754,998
11390,60800126,1,0.004213281,0.00118767,-0.002011552,-0.2053331,0.03173269,-9.836330999999999,0,0,45.59121,1,1,754,998
11393,60803000,1,0.004035622,0.0005719122,-0.002094633,-0.2073939,0.03102184,-9.841927,0,0,45.59121,1,1,754,998
11424,60805728,1,0.001588545,0.002113035,0.0002818889,-0.2134857,0.03149575,-9.833693999999999,0,0,45.59121,1,1,754,998
11427,60807909,1,5.321895e-05,0.001444089,0.002096602,-0.2213065,0.03404751,-9.825149,0,0,45.59121,1,1,754,998
11432,60810107,1,-0.001243582,-0.004135854,0.002271603,-0.2316712,0.03079733,-9.815912000000001,0,0,45.59113,1,1,754,998
11437,60812983,1,-0.0006097779999999999,-0.004742221,0.001038162,-0.2207584,0.0166539,-9.805189,0,0,45.59113,1,1,754,998
11468,60815806,1,-9.672713000000001e-05,-0.003770612,0.0002183517,-0.2027938,-0.0109581,-9.777642999999999,0,0,45.59113,1,1,754,998
11471,60817581,1,0.0002783364,-0.002083442,0.001660092,-0.1972977,-0.02223201,-9.766457000000001,0,0,45.59113,1,1,754,998
11474,60820093,1,0.0007074083,-0.001108376,0.002333372,-0.1866887,-0.03606302,-9.770894999999999,0,0,45.59107,1,1,754,998
11477,60825091,1,-0.001547443,-0.001795347,0.002011144,-0.1880477,-0.02074856,-9.782999999999999,0,0,45.59107,1,1,754,998
11508,60830469,1,0.001778742,-0.002827858,0.003204004,-0.2157271,0.006585468,-9.772995,0,0,45.59107,1,1,754,998
11512,60832560,1,0.001552243,-0.003614535,0.002150646,-0.2202873,0.01254964,-9.771008,0,0,45.59101,1,1,754,998
11515,60836075,1,0.001099378,-0.004767639,0.0007002429,-0.2278074,0.02108205,-9.777625,0,0,45.59101,1,1,754,998
11518,60837462,1,-0.0003638832,-0.00444804,0.0005719671,-0.2312202,0.02371215,-9.790494000000001,0,0,45.59101,1,1,754,998
11549,60840364,1,-0.002448557,-0.003854969,0.002148755,-0.2284168,0.02418793,-9.797177,0,0,45.59101,1,1,754,998
11553,60842464,1,-0.004991137,-0.00217531,0.004633497,-0.2302722,0.02005555,-9.794187000000001,0,0,45.59095,1,1,754,998
11556,60845514,1,-0.0056682,-0.00361094,0.004157008,-0.2600019,0.02773672,-9.795298000000001,0,0,45.59095,1,1,754,998
11560,60847465,1,-0.004470523,-0.004431484,0.001896967,-0.2862265,0.04143658,-9.799179000000001,0,0,45.59095,1,1,754,998
11591,60849977,1,-0.002148562,-0.003963701,-0.006611595,-0.3147446,0.05139358,-9.803644,0,0,45.59095,1,1,754,998
11594,60853014,1,-0.001844912,-0.003943513,-0.007522902,-0.3234696,0.0596736,-9.800361000000001,0,0,45.59095,1,1,754,998
11597,60855319,1,0.0001602346,-0.002163277,-0.005989696,-0.3334519,0.06771046,-9.798615,0,0,45.59087,1,1,754,998
11600,60857953,1,0.0005912015,-0.001526771,-0.004569897,-0.3375437,0.05976193,-9.797321,0,0,45.59087,1,1,754,998
11631,60860708,1,0.001337349,-0.001262544,-0.003325391,-0.3323022,0.03493118,-9.801702000000001,0,0,45.59087,1,1,754,998
11635,60862581,1,0.001725312,0.0004456678,-0.003499992,-0.3233222,0.01953766,-9.806709,0,0,45.59087,1,1,754,998
11638,60864948,1,0.001363904,0.003825845,-0.004160362,-0.3081846,-0.02585255,-9.815701000000001,0,0,45.59079,1,1,754,998
11641,60867488,1,0.0005725189,0.005003385,-0.004794427,-0.2978808,-0.0573587,-9.834845,0,0,45.59079,1,1,754,998
11672,60870524,1,0.001890446,0.005698668,-0.005252721,-0.2775427,-0.08189925000000001,-9.876626,0,0,45.59079,1,1,754,998
11675,60873029,1,0.002660223,0.004981447,-0.005250042,-0.2583615,-0.08342563,-9.909594999999999,0,0,45.59079,1,1,754,998
11679,60875354,1,0.002831855,-0.001825298,-0.002548244,-0.2329486,-0.07271738,-9.936042,0,0,45.59071,1,1,754,998
11682,60877546,1,0.002093156,-0.003229254,-0.001311986,-0.2230295,-0.06538571,-9.943631,0,0,45.59071,1,1,754,998
11714,60880112,1,-0.0006255648,-0.003902434,0.0001187856,-0.2026132,-0.06594621000000001,-9.959543999999999,0,0,45.59071,1,1,754,998
11718,60883057,1,-0.00342492,-0.004168957,2.664088e-06,-0.1892168,-0.06631106,-9.961468999999999,0,0,45.59071,1,1,754,998
11726,60885906,1,-0.003736231,-0.006397703,0.0004203226,-0.1709593,-0.06551996,-9.93932,0,0,45.59071,1,1,754,998
11729,60887758,1,-0.001434465,-0.008269266000000001,0.0002506919,-0.1654144,-0.061491,-9.921163,0,0,45.59063,1,1,754,998
11760,60890248,1,-0.0003080164,-0.006590975,-0.001200048,-0.1570045,-0.05916007,-9.888935999999999,0,0,45.59063,1,1,754,998
11763,60892560,1,-0.003032859,-0.004690025,0.0006844292,-0.1495878,-0.06570669,-9.86852,0,0,45.59063,1,1,754,998
11766,60895398,1,-0.005315437,-0.001929187,0.002057747,-0.1545481,-0.06522263,-9.833163000000001,0,0,45.59063,1,1,754,998
11769,60897961,1,-0.005417228,-0.000307408,0.0009446797,-0.1732955,-0.04916623,-9.819666,0,0,45.59054,1,1,754,998
11800,60900172,1,-0.002809435,0.001874347,-0.003304989,-0.1991842,-0.02293604,-9.795108000000001,0,0,45.59054,1,1,754,998
11804,60903283,1,-0.001644337,0.002494793,-0.003815635,-0.21522,-0.005490799,-9.775658,0,0,45.59054,1,1,754,998
11807,60905241,1,-6.842217e-05,0.004278358,-0.003392936,-0.2363589,0.02060724,-9.753299,0,0,45.59054,1,1,754,998
11810,60907955,1,0.0008061507,0.004290082,-0.00157075,-0.2376164,0.03119478,-9.736738000000001,0,0,45.59054,1,1,754,998
11841,60910332,1,0.0001867492,0.003878551,0.0002437662,-0.2304649,0.02640195,-9.725415,0,0,45.59048,1,1,754,998
11845,60912990,1,0.0001218073,0.003684133,0.001121465,-0.2068149,0.01569865,-9.746335,0,0,45.59048,1,1,754,998
11848,60915950,1,0.001933972,0.002678832,0.001017177,-0.1866925,0.01400957,-9.759933,0,0,45.59048,1,1,754,998
11851,60918379,1,0.003816865,0.003995432,0.002906561,-0.1535311,0.008864377999999999,-9.756824,0,0,45.59048,1,1,754,998
11884,60920882,1,0.005905573,0.007333088,0.004912387,-0.1488032,0.006526354,-9.764227,0,0,45.59044,1,1,754,998
11888,60923495,1,0.008756919,0.008894376000000001,0.00451803,-0.1624981,0.0134488,-9.772009000000001,0,0,45.59044,1,1,754,998
11891,60926137,1,0.009968901,0.008550952000000001,0.003831785,-0.183721,0.01944567,-9.776342,0,0,45.59044,1,1,754,998
11894,60932075,1,0.004230016,0.00413039,-0.0009526971,-0.2281524,0.002586876,-9.755623,0,0,45.59043,1,1,754,998
11898,60933765,1,0.002592922,0.002498373,-0.0009778091000000001,-0.2404431,-0.02337896,-9.765129999999999,0,0,45.59043,1,1,754,998
11929,60936134,1,0.003743385,0.002984864,-0.0001575383,-0.250982,-0.05064401,-9.783372,0,0,45.59043,1,1,754,998
11932,60938625,1,0.004268833,0.003525168,0.0003927761,-0.2497283,-0.06648079,-9.795875000000001,0,0,45.59043,1,1,754,998
11935,60941376,1,0.000493199,0.001473455,6.492518000000001e-05,-0.2600582,-0.06571011,-9.798719999999999,0,0,45.59042,1,1,754,998
11938,60944955,1,-0.0006531851,0.00119188,-0.0003221726,-0.275154,-0.05906085,-9.790664,0,0,45.59042,1,1,754,998
11941,60946566,1,-0.0009063946999999999,0.001260291,-0.0003139749,-0.2925121,-0.04899822,-9.794961000000001,0,0,45.59042,1,1,754,998
11972,60948957,1,0.001702642,0.0002519422,0.001461,-0.3012225,-0.0394097,-9.795934000000001,0,0,45.59042,1,1,754,998
11975,60951788,1,0.002987545,0.000311786,0.0013566,-0.3121658,-0.04423476,-9.789251999999999,0,0,45.59042,1,1,754,998
11979,60954129,1,0.004523778,-0.0005125203,0.0009043768,-0.3280316,-0.04619694,-9.785653,0,0,45.59043,1,1,754,998
11982,60956926,1,0.005634594,-0.001592874,0.001311352,-0.3314731,-0.04291693,-9.790357,0,0,45.59043,1,1,754,998
12013,60960038,1,0.00693029,-0.0009545916,0.002211622,-0.3275168,-0.02350358,-9.807371,0,0,45.59043,1,1,754,998
12016,60961616,1,0.007321132,0.0006173666,0.001068758,-0.321978,-0.001998243,-9.820739,0,0,45.59043,1,1,754,998
12019,60963996,1,0.007310727,0.0001976248,0.001691255,-0.3062238,0.02478259,-9.854464999999999,0,0,45.59045,1,1,754,998
12022,60966921,1,0.007061916,-0.001590561,0.002143346,-0.2958183,0.03553597,-9.883706,0,0,45.59045,1,1,754,998
12053,60969763,1,0.006673795,-0.002233972,0.0004752922,-0.2842231,0.03676008,-9.904994,0,0,45.59045,1,1,754,998
12056,60972169,1,0.006119712,-0.001076708,0.0003776038,-0.2739218,0.02706005,-9.894333,0,0,45.59045,1,1,754,998
12061,60974025,1,0.005483706,0.0005171917,0.002174136,-0.2521646,0.007530067,-9.865615,0,0,45.59048,1,1,754,998
12064,60976481,1,0.006437296,0.0007669032000000001,0.003983514,-0.2390804,-0.0107992,-9.852180000000001,0,0,45.59048,1,1,754,998
