LineNo,TimeUS,I,GyrX,GyrY,GyrZ,AccX,AccY,AccZ,EG,EA,T,GH,AH,GHz,AHz
184,4.9046e+07,1,0.003436,-0.00056587,-0.00045384,-0.40568,-0.07511,-9.8335,0,0,45.341,1,1,755,999
293,4.908e+07,1,0.0015149,0.0016924,0.0030093,-0.354,-0.12982,-9.9163,0,0,45.34,1,1,755,999
324,4.9083e+07,1,0.00091456,0.002694,0.003001,-0.34162,-0.1392,-9.8726,0,0,45.34,1,1,755,999
404,4.9103e+07,1,0.0025552,0.0037399,-0.0047977,-0.41355,-0.12063,-9.7207,0,0,45.34,1,1,755,999
520,4.9126e+07,1,-0.0015673,-0.0036952,0.00053243,-0.43095,-0.15259,-9.7533,0,0,45.34,1,1,755,999
555,4.9129e+07,1,-0.0013217,-0.0052851,-0.00050829,-0.43831,-0.14855,-9.7477,0,0,45.34,1,1,755,999
631,4.9146e+07,1,-0.0012446,0.00042738,-0.0037336,-0.40553,-0.10658,-9.7246,0,0,45.34,1,1,755,999
746,4.9167e+07,1,-0.0064311,0.0025267,0.0069498,-0.38093,-0.12938,-9.8231,0,0,45.34,1,1,755,999
861,4.9188e+07,1,-0.0014269,0.0061552,0.0049386,-0.35196,-0.069637,-9.7957,0,0,45.34,1,1,755,999
975,4.9212e+07,1,0.00021746,-0.0024627,-0.000256,-0.35303,-0.069721,-9.7051,0,0,45.339,1,1,755,999
978,4.9215e+07,1,0.0011175,-0.0027535,0.0013163,-0.3408,-0.075025,-9.7376,0,0,45.339,1,1,755,999
981,4.9216e+07,1,0.001912,-0.0026688,0.00048718,-0.32651,-0.082614,-9.765,0,0,45.339,1,1,755,999
1012,4.9219e+07,1,0.0036694,-0.0028157,-0.00024373,-0.32252,-0.10328,-9.8032,0,0,45.339,1,1,755,999
1083,4.9246e+07,1,0.0012467,0.0017338,0.0044036,-0.35879,-0.13027,-9.8049,0,0,45.34,1,1,755,999
1198,4.9329e+07,1,-0.0086521,-0.002866,-0.011905,-0.32976,0.005504,-9.6977,0,0,45.34,1,1,755,999
1229,4.9331e+07,1,-0.0073263,-0.003524,-0.012633,-0.32361,0.013582,-9.6982,0,0,45.34,1,1,755,999
1309,4.9405e+07,1,0.0018515,0.0078322,-0.0035784,-0.39322,-0.13503,-9.7871,0,0,45.342,1,1,755,999
1391,4.9425e+07,1,0.0023789,-0.0011139,-0.001235,-0.37165,-0.10865,-9.7887,0,0,45.343,1,1,755,999
1488,4.9436e+07,1,0.0046906,-0.012103,0.0061369,-0.35412,-0.1215,-9.7512,0,0,45.343,1,1,755,999
1580,4.9448e+07,1,0.00361,0.0020078,-0.0012857,-0.39987,-0.10159,-9.7828,0,0,45.343,1,1,755,999
1611,4.9451e+07,1,0.0025811,-0.0016062,0.00033116,-0.38458,-0.097902,-9.7919,0,0,45.343,1,1,755,999
1642,4.9455e+07,1,0.0019864,-0.0053422,0.0020395,-0.35735,-0.086138,-9.7727,0,0,45.343,1,1,755,999
1646,4.9456e+07,1,0.00082119,-0.0077921,0.0019052,-0.3431,-0.089263,-9.7736,0,0,45.343,1,1,755,999
1649,4.9459e+07,1,-0.00089731,-0.0087669,0.0010994,-0.34608,-0.10203,-9.7762,0,0,45.343,1,1,755,999
1652,4.9461e+07,1,-0.0068174,-0.0088467,-0.0022575,-0.36517,-0.10485,-9.7753,0,0,45.343,1,1,755,999
1665,4.9474e+07,1,-0.0080584,-0.0015172,0.0011978,-0.43478,-0.013595,-9.7924,0,0,45.343,1,1,755,999
1669,4.9477e+07,1,-0.0070358,-0.0027648,0.0019682,-0.4515,-0.0077253,-9.8026,0,0,45.343,1,1,755,999
1672,4.9479e+07,1,-0.0058926,-0.0023402,0.0013675,-0.45938,-0.019291,-9.8122,0,0,45.343,1,1,755,999
1675,4.9482e+07,1,-0.0056191,0.0014155,-0.0016462,-0.47072,-0.057824,-9.8069,0,0,45.344,1,1,755,999
1710,4.9485e+07,1,-0.0066131,0.0021026,-0.003432,-0.47508,-0.096476,-9.7912,0,0,45.344,1,1,755,999
1713,4.9488e+07,1,-0.00684,-0.0013857,-0.0039495,-0.48268,-0.13066,-9.7799,0,0,45.344,1,1,755,999
1716,4.9489e+07,1,-0.0057684,-0.0035279,-0.0074985,-0.4808,-0.13944,-9.7881,0,0,45.344,1,1,755,999
1719,4.9493e+07,1,-0.0030639,-0.0035541,-0.0061912,-0.46544,-0.14558,-9.8172,0,0,45.344,1,1,755,999
1750,4.9495e+07,1,-0.0021187,-0.0033405,-0.0042964,-0.4576,-0.14697,-9.8408,0,0,45.344,1,1,755,999
1754,4.9497e+07,1,-0.00075733,-0.0012322,-0.0030932,-0.44356,-0.14218,-9.835,0,0,45.344,1,1,755,999
1757,4.95e+07,1,-0.00034035,-0.0026112,-0.00017641,-0.42924,-0.14282,-9.8315,0,0,45.344,1,1,755,999
1760,4.9502e+07,1,0.00068886,-0.0049179,0.001295,-0.43146,-0.15237,-9.8326,0,0,45.344,1,1,755,999
1791,4.9505e+07,1,0.0023931,-0.0052191,0.0025885,-0.43108,-0.17114,-9.7938,0,0,45.344,1,1,755,999
1794,4.9507e+07,1,0.0025697,-0.002164,0.0015604,-0.41966,-0.19477,-9.765,0,0,45.344,1,1,755,999
1797,4.951e+07,1,0.0020996,0.00391,-0.001712,-0.40206,-0.21949,-9.7353,0,0,45.344,1,1,755,999
1801,4.9513e+07,1,0.00059564,0.0054077,-0.0024871,-0.38704,-0.22765,-9.7212,0,0,45.344,1,1,755,999
1832,4.9515e+07,1,-0.0010153,0.0020769,-0.0020057,-0.37307,-0.23473,-9.7126,0,0,45.344,1,1,755,999
1836,4.9518e+07,1,-0.0024634,0.00025317,-0.0017625,-0.36985,-0.23122,-9.7137,0,0,45.344,1,1,755,999
1839,4.952e+07,1,-0.0029894,-0.0012022,-0.001848,-0.35505,-0.23408,-9.7314,0,0,45.344,1,1,755,999
1842,4.9522e+07,1,-0.0033643,-0.0024141,-0.00070957,-0.34561,-0.24063,-9.7628,0,0,45.344,1,1,755,999
1873,4.9525e+07,1,-0.0036451,-0.0049195,-0.00060953,-0.3367,-0.24302,-9.8092,0,0,45.345,1,1,755,999
1877,4.9527e+07,1,-0.0028208,-0.0054654,-0.0013359,-0.34239,-0.2314,-9.8186,0,0,45.345,1,1,755,999
1880,4.9531e+07,1,0.0016,-0.0044514,-0.0028156,-0.34605,-0.19475,-9.8122,0,0,45.345,1,1,755,999
1883,4.9533e+07,1,0.0042798,-0.0060978,-0.0010323,-0.35299,-0.14756,-9.773,0,0,45.345,1,1,755,999
1914,4.9535e+07,1,0.005623,-0.0061524,0.00050219,-0.36245,-0.11918,-9.7399,0,0,45.345,1,1,755,999
1918,4.9537e+07,1,0.0060091,-0.0049074,0.0025213,-0.37016,-0.10138,-9.7079,0,0,45.345,1,1,755,999
1921,4.954e+07,1,0.0025133,-0.0047402,0.0027755,-0.38775,-0.082617,-9.6977,0,0,45.345,1,1,755,999
1924,4.9543e+07,1,0.001121,-0.00088996,0.0040785,-0.39378,-0.078455,-9.7068,0,0,45.345,1,1,755,999
1955,4.9547e+07,1,0.001239,-3.3424e-05,0.0057949,-0.38784,-0.070912,-9.689,0,0,45.345,1,1,755,999
1958,4.9548e+07,1,0.0008576,-0.0012948,0.0058227,-0.37885,-0.050227,-9.6873,0,0,45.345,1,1,755,999
1961,4.955e+07,1,-0.00018901,-0.0013222,0.0051189,-0.37528,-0.045514,-9.7042,0,0,45.345,1,1,755,999
1964,4.9553e+07,1,-0.0014093,-0.0017271,0.0016421,-0.38247,-0.053739,-9.7155,0,0,45.345,1,1,755,999
1995,4.9556e+07,1,0.0013165,-0.00068454,-0.0010852,-0.39221,-0.0412,-9.7017,0,0,45.345,1,1,755,999
1999,4.9558e+07,1,0.005183,-0.00015564,0.00094625,-0.39197,-0.03157,-9.6929,0,0,45.345,1,1,755,999
2002,4.956e+07,1,0.0064878,-0.00074193,0.0024161,-0.39351,-0.028883,-9.693,0,0,45.345,1,1,755,999
2005,4.9563e+07,1,0.0056467,-0.0044517,0.0036717,-0.39435,-0.032353,-9.7126,0,0,45.345,1,1,755,999
2036,4.9566e+07,1,0.0052058,-0.005075,0.0035045,-0.39778,-0.035782,-9.7132,0,0,45.345,1,1,755,999
2041,4.9568e+07,1,0.0050868,-0.0044621,0.0026088,-0.39716,-0.04022,-9.7107,0,0,45.345,1,1,755,999
2044,4.957e+07,1,0.0047999,-0.0047587,0.0035576,-0.38849,-0.041419,-9.7147,0,0,45.345,1,1,755,999
2047,4.9573e+07,1,0.0062027,-0.004289,0.0054437,-0.37626,-0.050826,-9.7312,0,0,45.345,1,1,755,999
2078,4.9575e+07,1,0.0080159,-0.0032516,0.0061689,-0.37483,-0.060369,-9.7432,0,0,45.345,1,1,755,999
2081,4.9578e+07,1,0.006524,-0.0037373,0.0068733,-0.38698,-0.069167,-9.7664,0,0,45.345,1,1,755,999
2086,4.9581e+07,1,0.0049988,-0.0043476,0.00647,-0.3995,-0.06488,-9.7762,0,0,45.345,1,1,755,999
2089,4.9583e+07,1,0.0039369,-0.0058538,0.0017151,-0.41528,-0.047231,-9.7905,0,0,45.345,1,1,755,999
2124,4.9586e+07,1,0.0049821,-0.0054889,0.00062259,-0.42139,-0.03087,-9.8003,0,0,45.345,1,1,755,999
2128,4.9588e+07,1,0.005834,-0.0045402,0.00091726,-0.43135,-0.015314,-9.8199,0,0,45.345,1,1,755,999
2131,4.9591e+07,1,0.0060459,-0.0061042,0.0021295,-0.43288,-0.022419,-9.835,0,0,45.346,1,1,755,999
2134,4.9594e+07,1,0.0059435,-0.0069404,0.0028185,-0.42564,-0.041664,-9.8404,0,0,45.346,1,1,755,999
2165,4.9596e+07,1,0.0029506,-0.0068323,0.0043818,-0.41162,-0.099495,-9.8183,0,0,45.346,1,1,755,999
2168,4.9598e+07,1,0.0021282,-0.0029937,0.0027366,-0.41257,-0.13378,-9.8174,0,0,45.346,1,1,755,999
2171,4.9601e+07,1,0.0020517,-0.00045922,0.00034076,-0.40466,-0.1735,-9.8193,0,0,45.346,1,1,755,999
2174,4.9604e+07,1,0.0030361,-0.0014194,-0.00082509,-0.394,-0.19596,-9.809,0,0,45.346,1,1,755,999
2205,4.9606e+07,1,0.0045724,-0.0013109,0.00024451,-0.37125,-0.2142,-9.7728,0,0,45.346,1,1,755,999
2209,4.9608e+07,1,0.0050035,0.00039357,0.0025767,-0.35538,-0.21141,-9.7357,0,0,45.346,1,1,755,999
2212,4.9611e+07,1,0.0023048,-6.2072e-05,0.002959,-0.34166,-0.19974,-9.7079,0,0,45.346,1,1,755,999
2216,4.9614e+07,1,0.00021292,-0.0014542,0.0018673,-0.33189,-0.16738,-9.6916,0,0,45.346,1,1,755,999
2247,4.9616e+07,1,-0.006315,-0.0033387,0.0013206,-0.34854,-0.13641,-9.6834,0,0,45.346,1,1,755,999
2250,4.9619e+07,1,-0.010546,-0.0035526,0.00039413,-0.3634,-0.1298,-9.6665,0,0,45.346,1,1,755,999
2253,4.9622e+07,1,-0.012195,-0.0032863,-0.0011203,-0.39499,-0.1289,-9.6559,0,0,45.346,1,1,755,999
2256,4.9626e+07,1,-0.010959,-0.0017965,-0.0092189,-0.43354,-0.11909,-9.6537,0,0,45.346,1,1,755,999
2288,4.9629e+07,1,-0.0054108,0.00072529,-0.0084077,-0.43168,-0.11906,-9.6632,0,0,45.346,1,1,755,999
2291,4.9633e+07,1,-0.0026554,0.004029,-0.0040578,-0.42793,-0.12316,-9.6701,0,0,45.346,1,1,755,999
2294,4.9634e+07,1,-0.0034043,0.00542,-0.00053006,-0.42759,-0.14168,-9.6524,0,0,45.346,1,1,755,999
2297,4.9637e+07,1,-0.0038485,0.0041589,0.0022643,-0.42247,-0.15446,-9.6378,0,0,45.346,1,1,755,999
2328,4.9639e+07,1,-0.003768,0.0020735,0.004573,-0.39209,-0.16619,-9.6412,0,0,45.346,1,1,755,999
2333,4.9642e+07,1,-0.0054983,0.004642,0.0019862,-0.36094,-0.15338,-9.6569,0,0,45.346,1,1,755,999
2336,4.9645e+07,1,-0.0067574,0.0068975,-0.00079062,-0.3467,-0.13137,-9.6722,0,0,45.346,1,1,755,999
2339,4.9647e+07,1,-0.0075855,0.0057386,-0.0027034,-0.33266,-0.1038,-9.6732,0,0,45.346,1,1,755,999
2370,4.965e+07,1,-0.0079182,0.0060394,-0.0033091,-0.32734,-0.080543,-9.6724,0,0,45.346,1,1,755,999
2373,4.9653e+07,1,-0.0066648,0.0077125,-0.0024024,-0.32573,-0.065972,-9.6819,0,0,45.346,1,1,755,999
2376,4.9655e+07,1,-0.0049305,0.0080772,0.00044291,-0.32753,-0.063588,-9.6858,0,0,45.346,1,1,755,999
2379,4.9657e+07,1,-0.0045846,0.0073478,0.0010076,-0.33516,-0.070628,-9.6836,0,0,45.346,1,1,755,999
2410,4.966e+07,1,-0.0035924,0.0056482,0.00014939,-0.34625,-0.093465,-9.6729,0,0,45.346,1,1,755,999
2414,4.9663e+07,1,-0.0030053,0.0057961,0.00069759,-0.36489,-0.10861,-9.6491,0,0,45.346,1,1,755,999
2417,4.9665e+07,1,-0.0015636,0.0065759,-0.00056432,-0.39832,-0.1188,-9.6174,0,0,45.346,1,1,755,999
2420,4.9668e+07,1,-0.0015431,0.0057744,-0.0036144,-0.40833,-0.12613,-9.6073,0,0,45.346,1,1,755,999
2451,4.967e+07,1,-0.00096355,0.0050842,-0.009053,-0.41097,-0.1388,-9.6028,0,0,45.346,1,1,755,999
2454,4.9673e+07,1,-0.0019982,0.0074655,-0.0092248,-0.40972,-0.15021,-9.6024,0,0,45.346,1,1,755,999
2457,4.9675e+07,1,-0.0025185,0.0076569,-0.0079264,-0.40421,-0.15932,-9.5919,0,0,45.346,1,1,755,999
2460,4.9678e+07,1,-0.0054885,0.0050613,-0.0045814,-0.40767,-0.15585,-9.5819,0,0,45.346,1,1,755,999
2491,4.9681e+07,1,-0.0082453,0.00074782,-0.004436,-0.41374,-0.13581,-9.5864,0,0,45.346,1,1,755,999
2495,4.9683e+07,1,-0.0076146,-0.00010698,-0.0056736,-0.42055,-0.11244,-9.5861,0,0,45.346,1,1,755,999
2499,4.9686e+07,1,-0.0068408,0.00063008,-0.0060689,-0.4157,-0.10347,-9.5754,0,0,45.346,1,1,755,999
2506,4.9688e+07,1,-0.0076216,0.0022396,-0.0055288,-0.40773,-0.10479,-9.5663,0,0,45.346,1,1,755,999
2537,4.969e+07,1,-0.0076765,0.0029585,-0.0048889,-0.39942,-0.12391,-9.5683,0,0,45.347,1,1,755,999
2541,4.9693e+07,1,-0.0049255,0.00051785,-0.001399,-0.39966,-0.14896,-9.5788,0,0,45.347,1,1,755,999
2544,4.9695e+07,1,-0.003219,-0.0013209,0.00041393,-0.39676,-0.18119,-9.5851,0,0,45.347,1,1,755,999
2547,4.9699e+07,1,0.0015524,-0.0028509,0.0019139,-0.39176,-0.19691,-9.5869,0,0,45.347,1,1,755,999
2578,4.9701e+07,1,0.0039286,0.0011727,-0.00059079,-0.38919,-0.18986,-9.6063,0,0,45.347,1,1,755,999
2581,4.9704e+07,1,0.0046588,0.002316,-0.0018722,-0.3924,-0.17463,-9.6174,0,0,45.347,1,1,755,999
2584,4.9706e+07,1,0.0061106,-0.0027835,-0.0008586,-0.39602,-0.15458,-9.6523,0,0,45.347,1,1,755,999
2587,4.9709e+07,1,0.0065148,-0.0048239,0.00031331,-0.39652,-0.16123,-9.6734,0,0,45.347,1,1,755,999
2618,4.9711e+07,1,0.0062488,-0.0084512,0.0029208,-0.41171,-0.16497,-9.7088,0,0,45.347,1,1,755,999
2622,4.9713e+07,1,0.0058325,-0.0078346,0.0037152,-0.41868,-0.15651,-9.7458,0,0,45.347,1,1,755,999
2625,4.9716e+07,1,0.0060415,-0.0034528,0.0031955,-0.42082,-0.14681,-9.7997,0,0,45.347,1,1,755,999
2629,4.9719e+07,1,0.0052025,0.00033218,0.00022106,-0.42315,-0.12733,-9.8272,0,0,45.347,1,1,755,999
2660,4.9721e+07,1,0.005272,0.0025169,-0.0022384,-0.40505,-0.097636,-9.8558,0,0,45.347,1,1,755,999
2663,4.9725e+07,1,0.0062265,0.0029039,-0.0038932,-0.38585,-0.079402,-9.8625,0,0,45.347,1,1,755,999
2666,4.9726e+07,1,0.0064371,0.0015533,-0.0041944,-0.36816,-0.058912,-9.8561,0,0,45.347,1,1,755,999
2669,4.9729e+07,1,0.0075922,0.00056897,-0.0020541,-0.36857,-0.049257,-9.8666,0,0,45.347,1,1,755,999
2700,4.9731e+07,1,0.0078189,0.00033361,0.0033253,-0.36692,-0.042541,-9.8695,0,0,45.347,1,1,755,999
2704,4.9737e+07,1,0.005824,0.00095399,0.0083987,-0.36706,-0.023387,-9.8702,0,0,45.347,1,1,755,999
2707,4.9739e+07,1,0.0034426,0.00039076,0.0051926,-0.38406,-0.025462,-9.8598,0,0,45.347,1,1,755,999
2738,4.9741e+07,1,0.0034121,-3.771e-05,0.0045537,-0.41548,-0.029891,-9.827,0,0,45.347,1,1,755,999
2741,4.9744e+07,1,0.0036331,-0.00032556,0.0026006,-0.43311,-0.026385,-9.7992,0,0,45.347,1,1,755,999
2744,4.9747e+07,1,0.0016489,0.0018835,-0.0012003,-0.43937,0.0051674,-9.7615,0,0,45.347,1,1,755,999
2747,4.9749e+07,1,-0.00095404,0.0037425,-0.0045116,-0.44332,0.018928,-9.7366,0,0,45.347,1,1,755,999
2778,4.9752e+07,1,-0.001264,0.003947,-0.0057934,-0.44866,0.02973,-9.704,0,0,45.347,1,1,755,999
2782,4.9754e+07,1,4.4388e-05,0.0046458,-0.0055723,-0.44622,0.04011,-9.6957,0,0,45.347,1,1,755,999
2785,4.9756e+07,1,0.0043581,0.00687,-0.0028986,-0.43361,0.054778,-9.6971,0,0,45.347,1,1,755,999
2788,4.9759e+07,1,0.0057938,0.00727,0.0034686,-0.4231,0.060228,-9.6988,0,0,45.347,1,1,755,999
2819,4.9762e+07,1,0.0058386,0.0070434,0.0038027,-0.41332,0.050408,-9.7081,0,0,45.347,1,1,755,999
2823,4.9764e+07,1,0.0045944,0.0037605,0.0026812,-0.41152,0.035881,-9.7111,0,0,45.347,1,1,755,999
2826,4.9766e+07,1,0.0016448,-0.00089691,0.0017226,-0.41532,-0.0091158,-9.7043,0,0,45.347,1,1,755,999
2830,4.9769e+07,1,0.00018967,-0.0022873,0.0014848,-0.42384,-0.046944,-9.6862,0,0,45.347,1,1,755,999
2861,4.9772e+07,1,0.0023275,-0.0021123,0.0025579,-0.42354,-0.057773,-9.6726,0,0,45.347,1,1,755,999
2864,4.9774e+07,1,0.0036963,-0.0018957,0.003676,-0.41929,-0.069427,-9.674,0,0,45.347,1,1,755,999
2867,4.9777e+07,1,0.0077927,-0.00065258,0.0044038,-0.41631,-0.089323,-9.6813,0,0,45.347,1,1,755,999
2870,4.9779e+07,1,0.007444,-0.0021046,0.00247,-0.41209,-0.091281,-9.686,0,0,45.347,1,1,755,999
2901,4.9781e+07,1,0.0066975,-0.0038686,0.0024829,-0.41331,-0.082299,-9.699,0,0,45.347,1,1,755,999
2905,4.9784e+07,1,0.0043108,-0.0078898,0.0032777,-0.40608,-0.076858,-9.716,0,0,45.347,1,1,755,999
2910,4.9787e+07,1,0.0012368,-0.007922,0.0021027,-0.39181,-0.073833,-9.7503,0,0,45.347,1,1,755,999
2917,4.9789e+07,1,-0.002535,-0.0047081,-0.0020497,-0.38611,-0.075118,-9.7463,0,0,45.347,1,1,755,999
2948,4.9792e+07,1,-0.00091469,-0.0019561,-0.0047478,-0.37977,-0.094616,-9.7343,0,0,45.347,1,1,755,999
2951,4.9795e+07,1,0.00021893,-0.00065925,-0.0036775,-0.38326,-0.10442,-9.7425,0,0,45.347,1,1,755,999
2954,4.9797e+07,1,-0.00011091,0.002022,-0.0022571,-0.38911,-0.10591,-9.7743,0,0,45.347,1,1,755,999
2958,4.9799e+07,1,-0.0018368,0.0019288,-0.0023932,-0.38916,-0.096956,-9.7983,0,0,45.347,1,1,755,999
2994,4.9803e+07,1,-0.0043708,-0.0011191,-0.0022395,-0.39363,-0.081715,-9.8425,0,0,45.347,1,1,755,999
2998,4.9804e+07,1,-0.006069,-0.0036002,-0.0022601,-0.3978,-0.071937,-9.8692,0,0,45.347,1,1,755,999
3001,4.9807e+07,1,-0.0066335,-0.0055069,-0.0014942,-0.41822,-0.057368,-9.8963,0,0,45.347,1,1,755,999
3004,4.981e+07,1,-0.0083817,-0.005988,-0.0015715,-0.43384,-0.051042,-9.8937,0,0,45.347,1,1,755,999
3035,4.9812e+07,1,-0.0095861,-0.0033641,-0.0066632,-0.44727,-0.042565,-9.8555,0,0,45.347,1,1,755,999
3038,4.9815e+07,1,-0.0063278,-0.0034508,-0.0077279,-0.45228,-0.035218,-9.8116,0,0,45.347,1,1,755,999
3041,4.9817e+07,1,0.00044728,-0.0095925,-0.0036634,-0.46071,-0.026492,-9.7352,0,0,45.347,1,1,755,999
3045,4.982e+07,1,0.0012531,-0.011359,-0.0024636,-0.46526,-0.012563,-9.6883,0,0,45.347,1,1,755,999
3076,4.9822e+07,1,0.00088677,-0.010338,-0.0015778,-0.46363,0.010999,-9.6191,0,0,45.347,1,1,755,999
3080,4.9824e+07,1,-0.0022635,-0.0069436,-0.0024781,-0.45703,0.017228,-9.5863,0,0,45.347,1,1,755,999
3083,4.9828e+07,1,-0.0048039,-0.0021046,-0.0023182,-0.44909,0.0067235,-9.5817,0,0,45.347,1,1,755,999
3086,4.9829e+07,1,-0.0040739,0.0044366,-0.00032592,-0.44098,-0.0039258,-9.6073,0,0,45.347,1,1,755,999
3117,4.9835e+07,1,-0.0020721,0.0064594,-0.0018589,-0.42922,-0.023315,-9.7268,0,0,45.347,1,1,755,999
3120,4.9837e+07,1,0.0001602,0.003839,-0.0040195,-0.42195,-0.027233,-9.7414,0,0,45.347,1,1,755,999
3123,4.9841e+07,1,0.0026957,0.002554,-0.0015837,-0.41613,-0.035055,-9.7541,0,0,45.347,1,1,755,999
3154,4.9843e+07,1,0.0020608,0.001415,0.0023135,-0.42377,-0.040589,-9.7566,0,0,45.347,1,1,755,999
3157,4.9846e+07,1,0.00038713,-0.00085948,0.0035478,-0.43783,-0.04071,-9.7649,0,0,45.347,1,1,755,999
3161,4.9848e+07,1,0.00063849,-0.0042873,0.0015259,-0.45435,-0.055653,-9.7767,0,0,45.347,1,1,755,999
3164,4.9851e+07,1,0.00099837,-0.0063335,-0.00053304,-0.457,-0.071427,-9.781,0,0,45.347,1,1,755,999
3195,4.9854e+07,1,0.0028281,-0.0073574,-0.0039944,-0.45681,-0.086238,-9.7933,0,0,45.347,1,1,755,999
3198,4.9857e+07,1,0.002408,-0.0023187,-0.0040746,-0.46423,-0.074782,-9.8121,0,0,45.347,1,1,755,999
3202,4.9859e+07,1,0.00093811,0.0025062,-0.0064155,-0.45697,-0.068444,-9.8168,0,0,45.347,1,1,755,999
3206,4.9861e+07,1,-0.00012773,0.0031853,-0.0052905,-0.448,-0.052783,-9.8244,0,0,45.347,1,1,755,999
3237,4.9864e+07,1,-0.00070284,0.0034262,-0.0031021,-0.43412,-0.041501,-9.8312,0,0,45.347,1,1,755,999
3240,4.9866e+07,1,-0.0010632,0.0052547,0.0059018,-0.42669,-0.036049,-9.8537,0,0,45.347,1,1,755,999
3244,4.9869e+07,1,-5.4231e-05,0.0052662,0.0084333,-0.42659,-0.040298,-9.8649,0,0,45.347,1,1,755,999
3247,4.9871e+07,1,0.0028853,0.0042434,0.010009,-0.42261,-0.067257,-9.8743,0,0,45.347,1,1,755,999
3278,4.9874e+07,1,0.0068235,0.0012852,0.0077732,-0.42083,-0.076175,-9.8656,0,0,45.347,1,1,755,999
3281,4.9876e+07,1,0.010107,-0.0032023,0.0082961,-0.41139,-0.085312,-9.8539,0,0,45.347,1,1,755,999
3284,4.9879e+07,1,0.010271,-0.0066116,0.0079395,-0.40492,-0.083124,-9.8583,0,0,45.347,1,1,755,999
3288,4.9881e+07,1,0.0087477,-0.0069144,0.0052425,-0.40038,-0.084184,-9.8439,0,0,45.347,1,1,755,999
3319,4.9883e+07,1,0.0082806,-0.0063625,0.0046991,-0.39738,-0.086911,-9.8153,0,0,45.347,1,1,755,999
3322,4.9886e+07,1,0.006944,-0.005104,0.0045394,-0.39659,-0.099127,-9.7826,0,0,45.347,1,1,755,999
3329,4.9889e+07,1,0.0065905,-0.0047206,0.0050485,-0.39779,-0.10792,-9.7806,0,0,45.347,1,1,755,999
3336,4.9892e+07,1,0.0066607,-0.0034982,0.0046127,-0.40806,-0.099089,-9.7979,0,0,45.347,1,1,755,999
3367,4.9894e+07,1,0.0070187,1.9486e-05,0.0028255,-0.42541,-0.078665,-9.807,0,0,45.347,1,1,755,999
3370,4.9897e+07,1,0.0068494,0.00063003,0.0023685,-0.43175,-0.062457,-9.807,0,0,45.347,1,1,755,999
3373,4.9899e+07,1,0.002605,0.0033463,3.9073e-05,-0.43414,-0.041283,-9.7954,0,0,45.347,1,1,755,999
3376,4.9902e+07,1,0.0015092,0.0046902,-7.1164e-05,-0.43232,-0.02596,-9.7974,0,0,45.347,1,1,755,999
3407,4.9905e+07,1,0.0012414,0.0049018,0.00054487,-0.42114,-0.0029545,-9.7981,0,0,45.347,1,1,755,999
3410,4.9907e+07,1,0.0041601,0.002947,-0.00087208,-0.4192,0.0022724,-9.7891,0,0,45.347,1,1,755,999
3414,4.991e+07,1,0.0043625,0.0017825,-0.0008574,-0.4238,0.0034441,-9.7887,0,0,45.347,1,1,755,999
3417,4.9912e+07,1,0.0039019,-0.0013898,-0.0013053,-0.43484,0.0049359,-9.7895,0,0,45.347,1,1,755,999
3448,4.9915e+07,1,0.0043103,-0.0028697,-0.0038585,-0.42406,0.013272,-9.7658,0,0,45.347,1,1,755,999
3451,4.9918e+07,1,0.0051141,-0.003256,-0.0035501,-0.41257,0.023246,-9.7443,0,0,45.347,1,1,755,999
3454,4.992e+07,1,0.0069982,-0.0032119,-0.0013623,-0.40539,0.034519,-9.7324,0,0,45.347,1,1,755,999
3457,4.9923e+07,1,0.0064207,-0.0046476,0.0020142,-0.39549,0.043402,-9.742,0,0,45.347,1,1,755,999
3488,4.9925e+07,1,0.0045597,-0.0052929,0.003804,-0.37969,0.032246,-9.7529,0,0,45.347,1,1,755,999
3491,4.9928e+07,1,0.0029982,-0.0034099,0.0043413,-0.36072,0.023877,-9.7547,0,0,45.347,1,1,755,999
3494,4.993e+07,1,0.00081332,-0.0033724,0.0049061,-0.34055,0.0029592,-9.7497,0,0,45.347,1,1,755,999
3498,4.9932e+07,1,3.9394e-05,-0.0035432,0.0055668,-0.33432,-0.0027963,-9.7346,0,0,45.347,1,1,755,999
3529,4.9935e+07,1,-0.0019269,-0.0030104,0.0068375,-0.33605,-0.005908,-9.7127,0,0,45.347,1,1,755,999
3532,4.9937e+07,1,-0.0052082,-0.003253,0.0049713,-0.35464,-0.0081738,-9.6865,0,0,45.347,1,1,755,999
3536,4.994e+07,1,-0.0058121,-0.0022384,0.0020514,-0.35958,-0.011097,-9.6651,0,0,45.347,1,1,755,999
3540,4.9942e+07,1,-0.0037267,-0.0027961,-7.1942e-05,-0.36794,-0.027577,-9.6443,0,0,45.347,1,1,755,999
3571,4.9946e+07,1,-0.00090668,-0.0049566,-0.0014246,-0.37651,-0.04262,-9.64,0,0,45.347,1,1,755,999
3574,4.9948e+07,1,0.00044307,-0.0056548,-0.0015221,-0.3934,-0.070503,-9.6457,0,0,45.347,1,1,755,999
3577,4.995e+07,1,0.00020325,-0.0067411,-0.00053193,-0.39864,-0.09204,-9.6626,0,0,45.347,1,1,755,999
3580,4.9953e+07,1,-0.0017889,-0.0092953,-0.00064752,-0.40472,-0.12455,-9.6893,0,0,45.347,1,1,755,999
3611,4.9956e+07,1,-0.0050767,-0.0042833,-0.0034205,-0.40773,-0.14866,-9.7304,0,0,45.347,1,1,755,999
3614,4.9958e+07,1,-0.0060562,-0.00068788,-0.0050928,-0.41431,-0.15121,-9.7482,0,0,45.347,1,1,755,999
3617,4.996e+07,1,-0.0056026,0.0035254,-0.0075958,-0.42397,-0.14849,-9.7689,0,0,45.347,1,1,755,999
3621,4.9963e+07,1,-0.0048924,0.0027794,-0.0082995,-0.42042,-0.14655,-9.768,0,0,45.347,1,1,755,999
3652,4.9965e+07,1,-0.0030694,0.0005268,-0.0086878,-0.40118,-0.13495,-9.7356,0,0,45.347,1,1,755,999
3656,4.9968e+07,1,-0.0014923,0.0010262,-0.0060263,-0.39066,-0.13142,-9.7167,0,0,45.347,1,1,755,999
3659,4.997e+07,1,-0.00086208,0.0022245,-0.0025367,-0.38122,-0.1222,-9.7268,0,0,45.347,1,1,755,999
3662,4.9973e+07,1,-0.0017179,0.0030282,-0.0030113,-0.36369,-0.10732,-9.7396,0,0,45.347,1,1,755,999
3693,4.9975e+07,1,-0.0029162,0.0058854,-0.0039614,-0.33482,-0.083543,-9.7265,0,0,45.347,1,1,755,999
3696,4.9978e+07,1,-0.0031815,0.008739,-0.0043483,-0.31755,-0.069928,-9.7064,0,0,45.347,1,1,755,999
3699,4.998e+07,1,-0.0028708,0.0084218,-0.0032208,-0.30941,-0.060876,-9.6787,0,0,45.347,1,1,755,999
3704,4.9983e+07,1,-0.0022639,0.0070437,-0.0027501,-0.31425,-0.058319,-9.6681,0,0,45.347,1,1,755,999
3735,4.9985e+07,1,-0.0012176,0.0034127,-0.0015049,-0.3169,-0.049731,-9.6663,0,0,45.347,1,1,755,999
3738,4.9987e+07,1,-0.0020729,0.0037136,-0.00037787,-0.31233,-0.046786,-9.6613,0,0,45.347,1,1,755,999
3743,4.9991e+07,1,-0.0043611,0.0040283,0.0012848,-0.32525,-0.043046,-9.6632,0,0,45.347,1,1,755,999
3751,4.9993e+07,1,-0.0032573,0.0025788,0.0026943,-0.34572,-0.02825,-9.6691,0,0,45.347,1,1,755,999
3782,4.9996e+07,1,0.0001932,0.00041835,0.0049651,-0.37412,-0.025019,-9.6779,0,0,45.347,1,1,755,999
3785,4.9998e+07,1,0.0015718,-0.0027911,0.0068059,-0.39208,-0.045953,-9.6864,0,0,45.348,1,1,755,999
3788,5.0001e+07,1,-0.00052056,-0.004346,0.0081158,-0.40095,-0.075386,-9.6828,0,0,45.348,1,1,755,999
3791,5.0003e+07,1,-0.0045873,-0.0052587,0.0081133,-0.40416,-0.10961,-9.6537,0,0,45.348,1,1,755,999
3822,5.0006e+07,1,-0.0066607,-0.0053583,0.0054578,-0.40127,-0.13016,-9.6399,0,0,45.348,1,1,755,999
3825,5.0008e+07,1,-0.0034037,-0.0042376,0.0019131,-0.38737,-0.15969,-9.6368,0,0,45.348,1,1,755,999
3828,5.0011e+07,1,-0.0017539,-0.0034356,0.0003734,-0.37329,-0.16888,-9.6418,0,0,45.348,1,1,755,999
3832,5.0013e+07,1,-0.00085532,-0.00015156,-0.0015861,-0.36264,-0.17019,-9.6661,0,0,45.348,1,1,755,999
3863,5.0016e+07,1,-0.0015511,0.0034157,-0.00059815,-0.36359,-0.16962,-9.6895,0,0,45.348,1,1,755,999
3866,5.0019e+07,1,-0.00088546,0.005065,6.3303e-05,-0.36887,-0.17637,-9.6902,0,0,45.348,1,1,755,999
3869,5.0021e+07,1,-0.00011652,0.0079579,0.0013244,-0.37654,-0.18415,-9.6768,0,0,45.348,1,1,755,999
3872,5.0023e+07,1,-0.0005879,0.01068,0.0016026,-0.39103,-0.19813,-9.6621,0,0,45.348,1,1,755,999
3903,5.0026e+07,1,-0.0039286,0.01045,0.00060376,-0.40354,-0.21209,-9.6671,0,0,45.348,1,1,755,999
3906,5.0029e+07,1,-0.0063883,0.0069042,-0.0026252,-0.41719,-0.22534,-9.6824,0,0,45.348,1,1,755,999
3909,5.0031e+07,1,-0.0051674,0.0025286,-0.005817,-0.42364,-0.22454,-9.6955,0,0,45.348,1,1,755,999
3913,5.0033e+07,1,-0.0031139,-0.00095096,-0.0064012,-0.43614,-0.21558,-9.7064,0,0,45.348,1,1,755,999
3944,5.0036e+07,1,-0.0014239,-0.0033333,-0.006487,-0.44849,-0.20666,-9.7018,0,0,45.348,1,1,755,999
3947,5.0038e+07,1,0.0038493,-0.0080743,-0.0073003,-0.45499,-0.19778,-9.7003,0,0,45.348,1,1,755,999
3950,5.0045e+07,1,0.0044007,-0.0047508,-0.0051178,-0.4375,-0.19033,-9.7458,0,0,45.348,1,1,755,999
3953,5.0046e+07,1,0.0029706,-0.0025913,0.0035326,-0.43675,-0.17362,-9.7989,0,0,45.348,1,1,755,999
3984,5.0049e+07,1,0.0029287,-0.0026236,0.0063881,-0.44558,-0.15549,-9.8339,0,0,45.348,1,1,755,999
3987,5.0051e+07,1,0.0032252,-0.0015172,0.0096043,-0.45569,-0.14018,-9.8659,0,0,45.348,1,1,755,999
3990,5.0054e+07,1,0.0023095,0.0010736,0.0098308,-0.46201,-0.13123,-9.8669,0,0,45.348,1,1,755,999
3994,5.0057e+07,1,0.00095766,0.0039621,0.0059169,-0.46524,-0.13179,-9.8768,0,0,45.348,1,1,755,999
4025,5.0059e+07,1,-0.00046593,0.0058757,0.0010619,-0.46029,-0.1391,-9.8782,0,0,45.348,1,1,755,999
4028,5.0062e+07,1,-0.0013827,0.0076016,-0.0026154,-0.45007,-0.14468,-9.8696,0,0,45.348,1,1,755,999
4031,5.0064e+07,1,-0.00034897,0.0066587,-0.0055253,-0.44515,-0.14149,-9.8379,0,0,45.348,1,1,755,999
4035,5.0067e+07,1,0.00078118,0.0050424,-0.0070504,-0.44537,-0.12972,-9.8107,0,0,45.348,1,1,755,999
4066,5.007e+07,1,0.0035334,0.0036631,-0.004001,-0.44599,-0.11457,-9.7795,0,0,45.348,1,1,755,999
4069,5.0072e+07,1,0.0056322,0.0020176,0.00024228,-0.44221,-0.088332,-9.7782,0,0,45.348,1,1,755,999
4073,5.0075e+07,1,0.004774,0.0014721,0.0046087,-0.43653,-0.078256,-9.7819,0,0,45.348,1,1,755,999
4076,5.0077e+07,1,0.0041358,0.00096919,0.0069216,-0.42074,-0.067777,-9.7874,0,0,45.348,1,1,755,999
4107,5.008e+07,1,0.003046,3.006e-06,0.0066627,-0.41416,-0.058933,-9.7733,0,0,45.348,1,1,755,999
4110,5.0082e+07,1,0.00096607,-0.0019009,0.0058979,-0.4082,-0.037186,-9.744,0,0,45.348,1,1,755,999
4114,5.0085e+07,1,0.0006175,-0.0032168,0.0052421,-0.40923,-0.026935,-9.724,0,0,45.348,1,1,755,999
4118,5.0087e+07,1,0.00097748,-0.0086302,0.0026767,-0.41079,-0.024065,-9.7029,0,0,45.348,1,1,755,999
4149,5.009e+07,1,0.0011854,-0.008429,0.002166,-0.41291,-0.030815,-9.6938,0,0,45.348,1,1,755,999
4152,5.0093e+07,1,0.001812,-0.0052499,0.0024947,-0.42093,-0.058225,-9.6941,0,0,45.348,1,1,755,999
4159,5.0095e+07,1,0.0032489,-0.0045623,0.0049265,-0.42582,-0.059278,-9.6995,0,0,45.348,1,1,755,999
4164,5.0097e+07,1,0.0046988,-0.0074744,0.0046184,-0.43046,-0.044307,-9.7,0,0,45.348,1,1,755,999
4195,5.01e+07,1,0.0039498,-0.0087295,0.0044493,-0.4342,-0.041944,-9.7141,0,0,45.348,1,1,755,999
4198,5.0102e+07,1,0.0033237,-0.0072281,0.0040833,-0.43919,-0.052531,-9.7306,0,0,45.348,1,1,755,999
4201,5.0105e+07,1,0.0019358,-0.0058747,0.0030359,-0.44655,-0.061751,-9.745,0,0,45.348,1,1,755,999
4205,5.0108e+07,1,-0.0042993,-0.00037759,-0.0014459,-0.45858,-0.06846,-9.7592,0,0,45.348,1,1,755,999
4236,5.011e+07,1,-0.0038837,0.00082659,-0.0025497,-0.44969,-0.059339,-9.768,0,0,45.348,1,1,755,999
4239,5.0113e+07,1,-0.0028062,0.00068611,-0.0021577,-0.44555,-0.051289,-9.7667,0,0,45.348,1,1,755,999
4242,5.0115e+07,1,-0.00010978,-0.00069043,-0.0021194,-0.44397,-0.032554,-9.756,0,0,45.348,1,1,755,999
4246,5.0118e+07,1,0.00022107,-0.0015342,-0.0020177,-0.44185,-0.024064,-9.7435,0,0,45.348,1,1,755,999
4277,5.0121e+07,1,0.0001062,-0.0037871,-0.0027314,-0.42531,-0.017125,-9.7483,0,0,45.348,1,1,755,999
4280,5.0123e+07,1,-0.0026229,-0.0036344,-0.0040292,-0.40496,-0.022362,-9.7645,0,0,45.348,1,1,755,999
4283,5.0125e+07,1,-0.0051618,-0.0033058,-0.0043938,-0.39171,-0.025467,-9.7653,0,0,45.348,1,1,755,999
4286,5.0128e+07,1,-0.0090002,-0.0034668,-0.0056697,-0.38275,-0.035941,-9.7669,0,0,45.348,1,1,755,999
4317,5.0131e+07,1,-0.0093254,-0.0030543,-0.0059926,-0.38448,-0.046752,-9.7523,0,0,45.348,1,1,755,999
4321,5.0134e+07,1,-0.0074964,-0.0015365,-0.004478,-0.38906,-0.06865,-9.7027,0,0,45.348,1,1,755,999
4324,5.0135e+07,1,-0.0042015,0.0003832,-0.0032984,-0.38959,-0.075197,-9.6846,0,0,45.348,1,1,755,999
4328,5.0138e+07,1,-0.001433,0.001164,-0.0065375,-0.38621,-0.080715,-9.6953,0,0,45.348,1,1,755,999
4359,5.0144e+07,1,-0.00011643,0.0010049,-0.0065223,-0.38661,-0.065155,-9.7487,0,0,45.349,1,1,755,999
4362,5.0145e+07,1,-0.0014385,0.0013077,-0.0039133,-0.38407,-0.035774,-9.7605,0,0,45.349,1,1,755,999
4365,5.0148e+07,1,-0.0036411,-0.0010163,0.0057238,-0.38098,-0.010883,-9.7822,0,0,45.349,1,1,755,999
4396,5.015e+07,1,-0.0037054,-0.0020691,0.007104,-0.3793,-0.0023371,-9.8161,0,0,45.349,1,1,755,999
4399,5.0154e+07,1,-0.0037575,-0.0030814,0.0044258,-0.38663,-0.0041929,-9.8186,0,0,45.349,1,1,755,999
4402,5.0156e+07,1,-0.00303,-0.0046944,-0.0010333,-0.38779,-0.0073381,-9.8122,0,0,45.349,1,1,755,999
4406,5.0158e+07,1,-0.00088314,-0.0086524,-0.00453,-0.38504,-0.021842,-9.7902,0,0,45.349,1,1,755,999
4437,5.016e+07,1,0.00028874,-0.010596,-0.0045405,-0.37239,-0.033088,-9.7651,0,0,45.349,1,1,755,999
4440,5.0163e+07,1,0.0016371,-0.0097377,-0.0035928,-0.35937,-0.045656,-9.7342,0,0,45.349,1,1,755,999
4443,5.0166e+07,1,0.0018503,-0.0084844,-0.0029558,-0.35138,-0.050539,-9.7324,0,0,45.349,1,1,755,999
4446,5.0168e+07,1,0.0013954,-0.0064095,-0.0030404,-0.34612,-0.065972,-9.7446,0,0,45.349,1,1,755,999
4477,5.017e+07,1,0.0016524,-0.0046985,-0.0029405,-0.35292,-0.071841,-9.7542,0,0,45.349,1,1,755,999
4480,5.0173e+07,1,0.00097655,-0.001099,-0.0033706,-0.34676,-0.071065,-9.7837,0,0,45.349,1,1,755,999
4483,5.0176e+07,1,0.00097169,-0.00063547,-0.0025844,-0.34258,-0.059967,-9.8078,0,0,45.349,1,1,755,999
4487,5.0178e+07,1,-0.00070008,-0.00069439,-0.00033013,-0.33951,-0.043042,-9.8442,0,0,45.349,1,1,755,999
4518,5.0181e+07,1,-0.0023158,-0.0026964,0.0018908,-0.33241,-0.031564,-9.8459,0,0,45.349,1,1,755,999
4521,5.0183e+07,1,-0.00088998,-0.0035238,0.0028314,-0.33731,-0.018983,-9.8183,0,0,45.349,1,1,755,999
4525,5.0185e+07,1,0.0023821,-0.0032123,0.0023672,-0.34187,-0.0047344,-9.7909,0,0,45.349,1,1,755,999
4528,5.0188e+07,1,0.0039197,-0.0032697,0.0010426,-0.33846,0.0077936,-9.7505,0,0,45.349,1,1,755,999
4559,5.0191e+07,1,0.0042282,-0.0038146,5.7885e-05,-0.33458,0.0055605,-9.7218,0,0,45.349,1,1,755,999
4562,5.0193e+07,1,0.0075505,-0.0055654,-0.00159,-0.35002,-0.0094182,-9.7009,0,0,45.349,1,1,755,999
4571,5.0196e+07,1,0.0080948,-0.0056674,-0.001984,-0.36892,-0.022066,-9.6969,0,0,45.349,1,1,755,999
4575,5.0198e+07,1,0.0089894,-0.0038517,-0.002057,-0.38374,-0.040979,-9.6945,0,0,45.349,1,1,755,999
4606,5.0201e+07,1,0.0087342,-0.0040037,-0.0017699,-0.39219,-0.069536,-9.7127,0,0,45.349,1,1,755,999
4609,5.0203e+07,1,0.0061234,-0.0058374,-0.001711,-0.38913,-0.077461,-9.7349,0,0,45.349,1,1,755,999
4612,5.0206e+07,1,0.002652,-0.007132,-0.0027045,-0.38411,-0.069432,-9.7544,0,0,45.349,1,1,755,999
4616,5.0208e+07,1,-0.00071715,-0.0076735,-0.0031193,-0.37116,-0.053708,-9.7801,0,0,45.349,1,1,755,999
4647,5.021e+07,1,-0.002173,-0.0066724,-0.0049966,-0.36445,-0.035923,-9.7877,0,0,45.349,1,1,755,999
4650,5.0213e+07,1,-0.0014831,-0.0048384,-0.005678,-0.37033,-0.018632,-9.7899,0,0,45.349,1,1,755,999
4653,5.0215e+07,1,-0.0014639,-0.0038937,-0.0053504,-0.38581,-0.0048014,-9.7909,0,0,45.349,1,1,755,999
4656,5.0218e+07,1,-0.0016205,0.001687,-0.0028251,-0.40018,0.0040038,-9.8036,0,0,45.349,1,1,755,999
4687,5.0221e+07,1,-0.0015995,0.0026281,-0.0017497,-0.40638,0.0098607,-9.8152,0,0,45.349,1,1,755,999
4690,5.0223e+07,1,-0.001325,0.0021122,-0.0017207,-0.40463,0.0046891,-9.815,0,0,45.349,1,1,755,999
4693,5.0226e+07,1,-0.00024527,0.0036415,-0.0022814,-0.40748,-0.012707,-9.8086,0,0,45.349,1,1,755,999
4697,5.0228e+07,1,0.0015796,0.0065166,-0.00086419,-0.40133,-0.03649,-9.8055,0,0,45.35,1,1,755,999
4728,5.0231e+07,1,0.0030628,0.0066299,0.00033512,-0.39714,-0.042909,-9.8045,0,0,45.35,1,1,755,999
4731,5.0233e+07,1,0.0027363,0.0046336,0.0022392,-0.40834,-0.045419,-9.7949,0,0,45.35,1,1,755,999
4734,5.0235e+07,1,0.0025658,0.0032217,0.0029864,-0.41507,-0.047427,-9.7904,0,0,45.35,1,1,755,999
4737,5.024e+07,1,0.0007604,-0.0060692,0.003669,-0.41164,-0.056618,-9.7799,0,0,45.35,1,1,755,999
4768,5.0244e+07,1,0.0033658,-0.0041216,0.00083327,-0.39869,-0.055722,-9.7771,0,0,45.35,1,1,755,999
4771,5.0245e+07,1,0.0055197,-0.0026714,0.00033089,-0.39403,-0.061846,-9.7844,0,0,45.35,1,1,755,999
4775,5.0248e+07,1,0.0086186,-0.00085621,-0.00078745,-0.39001,-0.056981,-9.7975,0,0,45.35,1,1,755,999
4778,5.0251e+07,1,0.0082789,0.0011048,-0.0013425,-0.38638,-0.0502,-9.7987,0,0,45.35,1,1,755,999
4809,5.0253e+07,1,0.0046367,0.002393,-7.756e-05,-0.37904,-0.047686,-9.7877,0,0,45.35,1,1,755,999
4812,5.0256e+07,1,0.00094749,0.0010972,-0.00072436,-0.37881,-0.057313,-9.7857,0,0,45.35,1,1,755,999
4815,5.0258e+07,1,-0.0032852,-0.00024985,-0.0013213,-0.3726,-0.068909,-9.7945,0,0,45.35,1,1,755,999
4818,5.0261e+07,1,-0.0060124,-0.0022558,-0.0029338,-0.36129,-0.077406,-9.7986,0,0,45.35,1,1,755,999
4849,5.0264e+07,1,-0.0060428,-0.001133,-0.0059339,-0.35565,-0.086514,-9.821,0,0,45.35,1,1,755,999
4853,5.0267e+07,1,-0.0047604,0.00094692,-0.005109,-0.35609,-0.091033,-9.8542,0,0,45.35,1,1,755,999
4857,5.0269e+07,1,-0.0035991,0.0010516,-0.0040655,-0.35723,-0.085109,-9.8647,0,0,45.35,1,1,755,999
4860,5.0271e+07,1,-0.00069814,0.0018361,-0.00059201,-0.37634,-0.078628,-9.8544,0,0,45.35,1,1,755,999
4891,5.0274e+07,1,-0.0004265,0.0016629,0.0012137,-0.38997,-0.068779,-9.8473,0,0,45.35,1,1,755,999
4894,5.0276e+07,1,0.00029714,0.0011812,0.0032106,-0.39502,-0.049242,-9.8351,0,0,45.35,1,1,755,999
4898,5.0279e+07,1,0.0018033,0.0017265,0.0024994,-0.40506,-0.038612,-9.8285,0,0,45.35,1,1,755,999
4901,5.0282e+07,1,0.0024871,0.0019526,0.0027136,-0.42387,-0.02164,-9.8019,0,0,45.35,1,1,755,999
4932,5.0284e+07,1,-0.0018145,0.00017216,0.0014902,-0.4378,0.0024816,-9.7592,0,0,45.351,1,1,755,999
4937,5.0287e+07,1,-0.0034323,-0.0015748,0.00044843,-0.44881,0.0032106,-9.721,0,0,45.351,1,1,755,999
4940,5.0289e+07,1,-0.0034582,-0.0015719,-0.0018372,-0.4735,-0.0090886,-9.6883,0,0,45.351,1,1,755,999
4943,5.0292e+07,1,-0.00040716,0.0027326,-0.0028126,-0.4757,-0.016725,-9.6786,0,0,45.351,1,1,755,999
4976,5.0294e+07,1,0.002801,0.0033172,-0.0020958,-0.44853,-0.025369,-9.667,0,0,45.351,1,1,755,999
4983,5.0298e+07,1,0.0030398,-0.00071907,-0.0012584,-0.41662,-0.033762,-9.6749,0,0,45.351,1,1,755,999
4986,5.0299e+07,1,0.0020357,-0.0035761,-0.0019692,-0.39796,-0.034857,-9.6873,0,0,45.351,1,1,755,999
4989,5.0302e+07,1,0.0014977,-0.0035886,-0.0038942,-0.36444,-0.056644,-9.696,0,0,45.351,1,1,755,999
5020,5.0305e+07,1,0.0027864,-0.0028392,-0.005709,-0.33432,-0.080977,-9.6975,0,0,45.351,1,1,755,999
5023,5.0307e+07,1,0.003469,-0.0024031,-0.006214,-0.31975,-0.09863,-9.6926,0,0,45.351,1,1,755,999
5026,5.031e+07,1,0.0023126,-0.0016966,-0.006682,-0.30253,-0.11893,-9.6864,0,0,45.351,1,1,755,999
5029,5.0313e+07,1,0.0012884,0.0028149,-0.0052356,-0.29451,-0.12572,-9.6834,0,0,45.351,1,1,755,999
5060,5.0315e+07,1,-0.00020294,0.0039147,-0.0036201,-0.29982,-0.1291,-9.6903,0,0,45.351,1,1,755,999
5065,5.0317e+07,1,-0.0006688,0.0034455,-0.0029717,-0.31014,-0.13291,-9.7015,0,0,45.351,1,1,755,999
5069,5.032e+07,1,-0.0036435,0.0013361,-0.00076782,-0.31471,-0.14284,-9.7265,0,0,45.351,1,1,755,999
5072,5.0323e+07,1,-0.0046145,0.00064799,0.00080179,-0.31485,-0.14731,-9.739,0,0,45.351,1,1,755,999
5103,5.0325e+07,1,-0.0055069,-0.0019474,-0.0011013,-0.31321,-0.14595,-9.7446,0,0,45.351,1,1,755,999
5106,5.0328e+07,1,-0.0055281,-0.0035974,-0.0032899,-0.32259,-0.13922,-9.7379,0,0,45.351,1,1,755,999
5110,5.033e+07,1,-0.0070248,-0.0044406,-0.0061451,-0.34972,-0.13072,-9.7288,0,0,45.351,1,1,755,999
5113,5.0335e+07,1,-0.0057325,-0.0010693,0.002434,-0.41377,-0.095585,-9.7009,0,0,45.351,1,1,755,999
5144,5.0338e+07,1,-0.0065035,-0.0008828,0.0047401,-0.42769,-0.075771,-9.6629,0,0,45.352,1,1,755,999
5148,5.034e+07,1,-0.0067889,-0.00071008,0.0046707,-0.43511,-0.066801,-9.6466,0,0,45.352,1,1,755,999
5151,5.0343e+07,1,-0.005757,-0.00025806,0.0043588,-0.44156,-0.065145,-9.6374,0,0,45.352,1,1,755,999
5154,5.0346e+07,1,-0.0024878,-0.00047046,0.0043495,-0.44598,-0.072458,-9.6125,0,0,45.352,1,1,755,999
5185,5.0348e+07,1,-1.626e-05,-0.0027042,0.0040279,-0.43408,-0.097886,-9.5776,0,0,45.352,1,1,755,999
5189,5.0353e+07,1,0.0025016,-0.0052821,0.0059252,-0.38374,-0.10419,-9.5794,0,0,45.352,1,1,755,999
5192,5.0356e+07,1,0.0023757,-0.005299,0.0051972,-0.37493,-0.097028,-9.5842,0,0,45.352,1,1,755,999
5223,5.0359e+07,1,0.0029352,-0.0056551,0.0034305,-0.36755,-0.070662,-9.6035,0,0,45.352,1,1,755,999
5226,5.0361e+07,1,0.004089,-0.0055346,0.0019856,-0.36923,-0.044288,-9.6252,0,0,45.352,1,1,755,999
5229,5.0363e+07,1,0.0044965,-0.0038015,0.00083585,-0.38546,-0.010939,-9.6419,0,0,45.352,1,1,755,999
5232,5.0366e+07,1,0.0027517,-0.0066371,0.001445,-0.39968,0.0065376,-9.655,0,0,45.352,1,1,755,999
5263,5.0368e+07,1,0.0013725,-0.00955,0.0022221,-0.42174,0.0045275,-9.6936,0,0,45.352,1,1,755,999
5267,5.0371e+07,1,-6.1352e-06,-0.0068733,0.0019825,-0.43097,-0.010425,-9.7048,0,0,45.352,1,1,755,999
5270,5.0374e+07,1,-0.0012601,-0.0037199,-0.00047897,-0.44144,-0.024196,-9.6977,0,0,45.352,1,1,755,999
5273,5.0376e+07,1,-0.00091622,-0.0019307,-0.0021317,-0.4535,-0.024839,-9.6894,0,0,45.352,1,1,755,999
5306,5.0379e+07,1,0.002689,0.0010039,-0.0029426,-0.45006,-0.018365,-9.6872,0,0,45.352,1,1,755,999
5309,5.0381e+07,1,0.0054054,0.00081983,-0.0014529,-0.42781,-0.026246,-9.6894,0,0,45.353,1,1,755,999
5312,5.0384e+07,1,0.0065912,0.00071472,-0.00058056,-0.4064,-0.033433,-9.6953,0,0,45.353,1,1,755,999
5316,5.0386e+07,1,0.0085087,-0.00060274,0.00042083,-0.38876,-0.035424,-9.6954,0,0,45.353,1,1,755,999
5347,5.0388e+07,1,0.0085699,-0.0013022,0.00095236,-0.36677,-0.043781,-9.6834,0,0,45.353,1,1,755,999
5351,5.0391e+07,1,0.0070247,-0.0025916,0.0011821,-0.35845,-0.047967,-9.6837,0,0,45.353,1,1,755,999
5354,5.0393e+07,1,0.0033118,-0.0047589,-0.00014343,-0.35403,-0.06438,-9.6935,0,0,45.353,1,1,755,999
5357,5.0396e+07,1,0.0006569,-0.0055526,-0.0018947,-0.35749,-0.079111,-9.696,0,0,45.353,1,1,755,999
5392,5.0399e+07,1,-0.0034151,-0.0037747,-0.0062453,-0.37404,-0.092195,-9.7013,0,0,45.353,1,1,755,999
5395,5.0401e+07,1,-0.0033387,-0.0020581,-0.0063859,-0.38281,-0.09791,-9.7063,0,0,45.353,1,1,755,999
5399,5.0404e+07,1,-0.003109,-0.0009926,-0.0069982,-0.38759,-0.098343,-9.7096,0,0,45.353,1,1,755,999
5402,5.0407e+07,1,-0.0022666,-0.00013928,-0.0093135,-0.38365,-0.094941,-9.7132,0,0,45.353,1,1,755,999
5433,5.0409e+07,1,-0.00058407,-0.0022009,-0.0078244,-0.37099,-0.091758,-9.7029,0,0,45.353,1,1,755,999
5437,5.0412e+07,1,0.0016817,-0.0035945,-0.0050843,-0.3611,-0.092263,-9.6963,0,0,45.353,1,1,755,999
5440,5.0414e+07,1,0.0081271,-0.0025997,0.0031315,-0.35177,-0.086523,-9.6945,0,0,45.353,1,1,755,999
5443,5.0416e+07,1,0.0084835,-0.0012215,0.0043881,-0.3469,-0.08038,-9.7121,0,0,45.353,1,1,755,999
5474,5.0419e+07,1,0.0048715,-0.0022768,0.0058509,-0.33379,-0.069776,-9.7614,0,0,45.353,1,1,755,999
5478,5.0422e+07,1,0.0038284,-0.0034014,0.005812,-0.3344,-0.070791,-9.7915,0,0,45.353,1,1,755,999
5481,5.0424e+07,1,0.0018086,-0.0032126,0.0043847,-0.34355,-0.073545,-9.8305,0,0,45.353,1,1,755,999
5484,5.0426e+07,1,0.00099141,-0.00092566,0.001935,-0.34808,-0.081081,-9.8492,0,0,45.354,1,1,755,999
5515,5.0429e+07,1,0.001082,0.00057644,0.00099521,-0.36206,-0.10396,-9.8663,0,0,45.354,1,1,755,999
5518,5.0432e+07,1,0.0027191,0.00055827,7.5915e-05,-0.37287,-0.11055,-9.8698,0,0,45.354,1,1,755,999
5521,5.0434e+07,1,0.0036154,-0.0023503,-0.0024335,-0.39019,-0.11465,-9.8646,0,0,45.354,1,1,755,999
5524,5.0437e+07,1,0.0033007,-0.0039435,-0.0027111,-0.40399,-0.11067,-9.8453,0,0,45.354,1,1,755,999
5555,5.0439e+07,1,0.00021924,-0.0085147,0.0002526,-0.42106,-0.099078,-9.8281,0,0,45.354,1,1,755,999
5559,5.0442e+07,1,-0.001127,-0.0073123,0.0020239,-0.43962,-0.0956,-9.8167,0,0,45.354,1,1,755,999
5562,5.0444e+07,1,-0.0013492,-0.0048084,0.0012828,-0.45329,-0.092636,-9.8039,0,0,45.354,1,1,755,999
5565,5.0449e+07,1,0.0006819,0.0072389,-0.0037019,-0.4623,-0.081911,-9.7567,0,0,45.355,1,1,755,999
5596,5.0452e+07,1,0.0029192,0.0070095,-0.00043301,-0.46219,-0.075878,-9.7273,0,0,45.355,1,1,755,999
5599,5.0457e+07,1,-0.00051887,-0.0028699,0.0026227,-0.44378,-0.041228,-9.7329,0,0,45.355,1,1,755,999
5603,5.046e+07,1,-0.002078,-0.0091183,0.0025164,-0.44356,-0.027277,-9.7509,0,0,45.355,1,1,755,999
5634,5.0462e+07,1,-0.0039451,-0.010466,0.00064754,-0.44484,-0.013451,-9.8063,0,0,45.355,1,1,755,999
5638,5.0465e+07,1,-0.0053543,-0.0082685,-0.0040247,-0.423,-0.020837,-9.8532,0,0,45.355,1,1,755,999
5641,5.0468e+07,1,-0.0034278,-0.0042987,-0.0075175,-0.40417,-0.03688,-9.8621,0,0,45.355,1,1,755,999
5644,5.047e+07,1,-0.0018395,0.00085371,-0.0077254,-0.39635,-0.044675,-9.862,0,0,45.355,1,1,755,999
5675,5.0473e+07,1,-0.0014538,0.004958,-0.0071001,-0.3829,-0.064277,-9.8714,0,0,45.355,1,1,755,999
5679,5.0475e+07,1,-0.0039076,0.0066616,-0.0065537,-0.37211,-0.087233,-9.8835,0,0,45.355,1,1,755,999
5682,5.0477e+07,1,-0.005599,0.0064841,-0.0061644,-0.35583,-0.097661,-9.882,0,0,45.355,1,1,755,999
5685,5.048e+07,1,-0.00539,0.00097193,-0.0044379,-0.32674,-0.1132,-9.8798,0,0,45.355,1,1,755,999
5716,5.0483e+07,1,-0.0038468,6.1411e-05,-0.0050987,-0.32556,-0.12274,-9.8856,0,0,45.355,1,1,755,999
5719,5.0485e+07,1,1.8448e-05,-0.00066585,-0.0044861,-0.34501,-0.10421,-9.9035,0,0,45.355,1,1,755,999
5722,5.0488e+07,1,0.0042487,-0.0033401,-0.00053519,-0.36438,-0.084076,-9.919,0,0,45.355,1,1,755,999
5725,5.049e+07,1,0.0033864,-0.003844,0.0027139,-0.39348,-0.064007,-9.9283,0,0,45.355,1,1,755,999
5756,5.0493e+07,1,0.00087162,-0.0036366,0.00058302,-0.4149,-0.053757,-9.9202,0,0,45.356,1,1,755,999
5760,5.0496e+07,1,-0.0010151,-0.0049564,-0.0025108,-0.43301,-0.042416,-9.8915,0,0,45.356,1,1,755,999
5763,5.0497e+07,1,-0.0013518,-0.0063664,-0.003253,-0.42344,-0.036031,-9.8622,0,0,45.356,1,1,755,999
5770,5.05e+07,1,-0.0025364,-0.0085211,-0.0041721,-0.39306,-0.025844,-9.8095,0,0,45.356,1,1,755,999
5801,5.0503e+07,1,-0.0048659,-0.0059615,-0.0035834,-0.37808,-0.023585,-9.7505,0,0,45.356,1,1,755,999
5804,5.0505e+07,1,-0.0074708,-0.0056394,9.7247e-05,-0.37787,-0.03253,-9.7202,0,0,45.356,1,1,755,999
5807,5.0508e+07,1,-0.007938,-0.0058491,0.0014633,-0.38421,-0.034374,-9.706,0,0,45.356,1,1,755,999
5810,5.051e+07,1,-0.0064353,-0.0043641,0.0019354,-0.39018,-0.036915,-9.6914,0,0,45.356,1,1,755,999
5841,5.0513e+07,1,-0.0050795,-0.0021064,0.00164,-0.39417,-0.032045,-9.687,0,0,45.356,1,1,755,999
5845,5.0515e+07,1,-0.0055404,-0.0021267,0.0009792,-0.40618,-0.014932,-9.7091,0,0,45.356,1,1,755,999
5850,5.0518e+07,1,-0.0040037,-0.0027004,0.0015743,-0.41385,-0.0024879,-9.732,0,0,45.356,1,1,755,999
5853,5.0521e+07,1,-0.0011481,-0.0042462,0.0044249,-0.43071,0.012055,-9.7553,0,0,45.356,1,1,755,999
5884,5.0523e+07,1,-0.0001206,-0.0055604,0.0064423,-0.43897,0.018806,-9.7557,0,0,45.356,1,1,755,999
5887,5.0525e+07,1,0.00022044,-0.0052984,0.0067565,-0.44376,0.026824,-9.7536,0,0,45.357,1,1,755,999
5890,5.0528e+07,1,-0.00061515,-0.0015553,0.004639,-0.44446,0.034961,-9.7534,0,0,45.357,1,1,755,999
5893,5.0531e+07,1,-0.0012952,1.5132e-05,0.0039845,-0.431,0.029554,-9.7568,0,0,45.357,1,1,755,999
5924,5.0536e+07,1,-0.00039262,-0.00068906,0.0050571,-0.4083,0.040299,-9.7635,0,0,45.357,1,1,755,999
5928,5.0539e+07,1,0.00055598,-0.002074,0.0036811,-0.40668,0.036972,-9.7727,0,0,45.357,1,1,755,999
5931,5.0541e+07,1,0.0033632,-0.0015829,-0.00037395,-0.40387,0.01682,-9.768,0,0,45.357,1,1,755,999
5962,5.0544e+07,1,0.0030461,0.00031093,-0.00066051,-0.41649,-0.0026048,-9.7665,0,0,45.357,1,1,755,999
5965,5.0546e+07,1,-0.0011893,0.0051447,-0.0032468,-0.42157,-0.02487,-9.7951,0,0,45.357,1,1,755,999
5968,5.0549e+07,1,-0.002896,0.0057595,-0.0049559,-0.41428,-0.036054,-9.8062,0,0,45.357,1,1,755,999
5971,5.0551e+07,1,-0.0057871,0.0049782,-0.0055691,-0.38583,-0.046433,-9.8247,0,0,45.357,1,1,755,999
6002,5.0556e+07,1,-0.00054866,0.0037503,-0.006051,-0.34322,-0.09964,-9.8693,0,0,45.357,1,1,755,999
6005,5.0559e+07,1,0.0027037,0.0031307,-0.005588,-0.34457,-0.11955,-9.8835,0,0,45.358,1,1,755,999
6008,5.0561e+07,1,0.0038043,0.0045074,-0.003618,-0.35854,-0.13587,-9.8691,0,0,45.358,1,1,755,999
6039,5.0563e+07,1,0.0038485,0.005023,-0.0021296,-0.37542,-0.12859,-9.8432,0,0,45.358,1,1,755,999
6042,5.0566e+07,1,0.0045042,0.0025579,-0.001429,-0.38996,-0.11188,-9.8095,0,0,45.358,1,1,755,999
6046,5.0569e+07,1,0.0052908,0.0013895,-0.0014877,-0.389,-0.11283,-9.7879,0,0,45.358,1,1,755,999
6049,5.0571e+07,1,0.0071289,-0.0020659,-0.00043765,-0.39779,-0.11459,-9.7474,0,0,45.358,1,1,755,999
6080,5.0573e+07,1,0.0080697,-0.0036475,-0.00060023,-0.41527,-0.10692,-9.7256,0,0,45.358,1,1,755,999
6083,5.0576e+07,1,0.0081337,-0.0023076,-0.0014822,-0.4324,-0.099391,-9.7175,0,0,45.358,1,1,755,999
6087,5.0579e+07,1,0.0061968,-0.002984,-2.3605e-05,-0.45411,-0.086434,-9.7278,0,0,45.358,1,1,755,999
6092,5.0582e+07,1,0.0012236,-0.0042339,0.0012153,-0.46878,-0.076659,-9.7591,0,0,45.358,1,1,755,999
6095,5.0583e+07,1,-0.0019661,-0.0050234,0.0012191,-0.47399,-0.071714,-9.7691,0,0,45.358,1,1,755,999
6126,5.0586e+07,1,-0.0052591,-0.0035273,-0.00065985,-0.48006,-0.061903,-9.7624,0,0,45.358,1,1,755,999
6129,5.0589e+07,1,-0.0068516,-0.0013375,-0.002323,-0.47562,-0.054694,-9.7487,0,0,45.358,1,1,755,999
6132,5.0591e+07,1,-0.0063475,0.0014584,-0.0034388,-0.46616,-0.05913,-9.7136,0,0,45.358,1,1,755,999
6135,5.0594e+07,1,-0.0053843,0.00041894,-0.0023503,-0.4614,-0.063786,-9.697,0,0,45.358,1,1,755,999
6166,5.0596e+07,1,-0.0026381,-0.003528,0.00014985,-0.45092,-0.062848,-9.6862,0,0,45.358,1,1,755,999
6170,5.0599e+07,1,-0.000329,-0.0060457,0.0024155,-0.44681,-0.062484,-9.6818,0,0,45.358,1,1,755,999
6177,5.0602e+07,1,0.0010564,-0.0048895,0.0036195,-0.43861,-0.048896,-9.686,0,0,45.358,1,1,755,999
6180,5.0604e+07,1,0.0021093,-0.0024042,0.0043445,-0.43022,-0.022401,-9.6768,0,0,45.359,1,1,755,999
6183,5.0607e+07,1,0.0013251,-0.002003,0.0046374,-0.42104,0.013094,-9.6512,0,0,45.359,1,1,755,999
6214,5.0609e+07,1,-0.00055846,-0.0053204,0.0037409,-0.41134,0.021212,-9.5996,0,0,45.359,1,1,755,999
6217,5.0612e+07,1,-0.00030055,-0.0075885,0.0034934,-0.39964,0.0082717,-9.5554,0,0,45.359,1,1,755,999
6220,5.0614e+07,1,0.0018816,-0.0065132,0.0042651,-0.37256,-0.023768,-9.5193,0,0,45.359,1,1,755,999
6223,5.0617e+07,1,0.0031664,-0.0067494,0.0043122,-0.36014,-0.037602,-9.5228,0,0,45.359,1,1,755,999
6254,5.062e+07,1,0.0046146,-0.0086514,0.0039038,-0.36075,-0.051225,-9.5595,0,0,45.359,1,1,755,999
6258,5.0622e+07,1,0.005222,-0.0082322,0.0039489,-0.37221,-0.065283,-9.5975,0,0,45.359,1,1,755,999
6261,5.0624e+07,1,0.0041835,-0.00587,0.0048814,-0.3759,-0.08905,-9.646,0,0,45.359,1,1,755,999
6264,5.0627e+07,1,0.0018423,-0.0039052,0.0046864,-0.3742,-0.096237,-9.6729,0,0,45.359,1,1,755,999
6295,5.063e+07,1,0.00065564,-0.0030011,0.0027312,-0.38438,-0.098367,-9.6897,0,0,45.359,1,1,755,999
6299,5.0632e+07,1,0.00056995,-0.0024398,0.00075471,-0.40193,-0.09465,-9.6987,0,0,45.359,1,1,755,999
6302,5.0634e+07,1,-0.0011627,-0.0012441,-0.0014708,-0.42484,-0.073193,-9.705,0,0,45.359,1,1,755,999
6305,5.0636e+07,1,-0.0038687,-0.00203,-0.0016412,-0.43563,-0.055511,-9.7039,0,0,45.359,1,1,755,999
6336,5.0639e+07,1,-0.004124,-0.0036916,0.0010152,-0.44503,-0.043174,-9.6952,0,0,45.359,1,1,755,999
6341,5.0642e+07,1,-0.0035881,-0.0037871,0.0021526,-0.44358,-0.051008,-9.694,0,0,45.359,1,1,755,999
6344,5.0649e+07,1,0.000688,-0.0042874,0.003586,-0.44345,-0.068051,-9.7428,0,0,45.36,1,1,755,999
6375,5.0652e+07,1,-0.0044306,-0.0059869,-0.00085998,-0.44704,-0.048925,-9.7626,0,0,45.36,1,1,755,999
6378,5.0654e+07,1,-0.0063629,-0.0060039,-0.0024372,-0.44844,-0.03605,-9.7588,0,0,45.36,1,1,755,999
6381,5.0657e+07,1,-0.0063645,-0.0045222,-0.0051192,-0.4396,-0.026949,-9.7486,0,0,45.36,1,1,755,999
6384,5.0659e+07,1,-0.005143,-0.0023333,-0.0053495,-0.4077,-0.0084662,-9.7462,0,0,45.36,1,1,755,999
6416,5.0662e+07,1,-0.0047917,-0.0010172,-0.0049846,-0.38813,0.0075666,-9.7601,0,0,45.36,1,1,755,999
6419,5.0664e+07,1,-0.0019839,-0.00086989,-0.00086509,-0.36708,0.013401,-9.7726,0,0,45.36,1,1,755,999
6422,5.0666e+07,1,-0.00078037,-0.0022864,0.0006488,-0.35614,0.011064,-9.7777,0,0,45.36,1,1,755,999
6425,5.067e+07,1,0.00071454,-0.0049661,0.0031347,-0.33905,0.0025571,-9.7717,0,0,45.36,1,1,755,999
6456,5.0672e+07,1,-0.00099157,-0.008504,0.0033656,-0.32678,-0.01464,-9.7609,0,0,45.36,1,1,755,999
6460,5.0674e+07,1,-0.0014991,-0.008273,0.0016473,-0.3365,-0.026134,-9.7664,0,0,45.36,1,1,755,999
6463,5.0677e+07,1,0.0012104,-0.0079649,-0.00061773,-0.35938,-0.039321,-9.7771,0,0,45.36,1,1,755,999
6467,5.068e+07,1,0.0010987,-0.0089545,0.00059763,-0.37199,-0.059283,-9.7789,0,0,45.36,1,1,755,999
6498,5.0683e+07,1,-0.00091269,-0.0095495,0.0018631,-0.40385,-0.087191,-9.8188,0,0,45.36,1,1,755,999
6501,5.0685e+07,1,-0.00041434,-0.008341,-0.00033364,-0.42895,-0.098449,-9.8456,0,0,45.36,1,1,755,999
6504,5.0687e+07,1,0.00028089,-0.0060142,-0.0042078,-0.46237,-0.10225,-9.8761,0,0,45.36,1,1,755,999
6507,5.069e+07,1,0.0009714,-0.0040239,-0.0052811,-0.47586,-0.096132,-9.8932,0,0,45.36,1,1,755,999
6538,5.0693e+07,1,0.0027562,-0.003338,-0.0036379,-0.49404,-0.07785,-9.8831,0,0,45.36,1,1,755,999
6542,5.0695e+07,1,0.0032301,-0.0055272,-0.0024049,-0.5035,-0.0691,-9.8665,0,0,45.36,1,1,755,999
6545,5.0697e+07,1,0.002528,-0.0093755,-0.0038719,-0.51578,-0.066592,-9.8348,0,0,45.36,1,1,755,999
6548,5.07e+07,1,0.001358,-0.01011,-0.0049838,-0.5111,-0.063788,-9.7778,0,0,45.36,1,1,755,999
6583,5.0703e+07,1,0.00033945,-0.010096,-0.0036986,-0.50236,-0.049078,-9.7304,0,0,45.36,1,1,755,999
6587,5.0705e+07,1,0.00026461,-0.0090738,-0.0022656,-0.49091,-0.039663,-9.7069,0,0,45.36,1,1,755,999
6590,5.0708e+07,1,0.00056725,-0.0076269,-0.0021969,-0.4876,-0.037227,-9.6908,0,0,45.36,1,1,755,999
6593,5.071e+07,1,0.0019825,-0.0045237,-0.0015739,-0.49571,-0.031952,-9.6908,0,0,45.36,1,1,755,999
6624,5.0713e+07,1,0.0035034,-0.0035929,-0.00055749,-0.49347,-0.03179,-9.6937,0,0,45.361,1,1,755,999
6627,5.0715e+07,1,0.003497,-0.0033292,-0.00037032,-0.47526,-0.0517,-9.7021,0,0,45.361,1,1,755,999
6630,5.0718e+07,1,0.0015293,-0.0031076,0.0022532,-0.46137,-0.052568,-9.7122,0,0,45.361,1,1,755,999
6633,5.0721e+07,1,-0.0022867,-0.0037698,0.0032218,-0.44469,-0.04628,-9.7246,0,0,45.361,1,1,755,999
6664,5.0723e+07,1,-0.0042324,-0.0027284,0.00028806,-0.42463,-0.045813,-9.7108,0,0,45.361,1,1,755,999
6668,5.0726e+07,1,-0.0024297,-0.0014971,-0.0028176,-0.40992,-0.05835,-9.6819,0,0,45.361,1,1,755,999
6671,5.0728e+07,1,4.4296e-06,-0.002193,-0.0039989,-0.38795,-0.077972,-9.6543,0,0,45.361,1,1,755,999
6675,5.0731e+07,1,0.001274,-0.0056709,-0.0051916,-0.38182,-0.084364,-9.6518,0,0,45.361,1,1,755,999
6706,5.0733e+07,1,0.0018725,-0.0080477,-0.0065319,-0.37723,-0.094351,-9.669,0,0,45.361,1,1,755,999
6709,5.0736e+07,1,0.0020398,-0.0052528,-0.0057336,-0.38056,-0.10129,-9.7004,0,0,45.361,1,1,755,999
6713,5.0739e+07,1,0.0019593,-0.0018727,-0.003485,-0.39006,-0.096032,-9.7064,0,0,45.361,1,1,755,999
6716,5.0741e+07,1,0.0037353,-9.9455e-05,-0.0026562,-0.41319,-0.080059,-9.7046,0,0,45.361,1,1,755,999
6747,5.0747e+07,1,-0.00084719,0.0001586,-0.0052981,-0.44618,-0.052921,-9.7387,0,0,45.361,1,1,755,999
6751,5.0749e+07,1,-0.0036095,0.0021756,-0.0049424,-0.45278,-0.030694,-9.7423,0,0,45.361,1,1,755,999
6754,5.0751e+07,1,-0.0042491,0.0025229,-0.0042904,-0.45754,-0.013142,-9.7485,0,0,45.361,1,1,755,999
6785,5.0754e+07,1,-0.0023268,0.0016277,-0.0015995,-0.45313,-0.0041661,-9.7628,0,0,45.361,1,1,755,999
6788,5.0757e+07,1,-0.0025,0.00043708,-0.00076598,-0.44915,-0.010061,-9.7652,0,0,45.361,1,1,755,999
6792,5.0759e+07,1,-0.0031694,-0.0033999,0.0011227,-0.44938,-0.019994,-9.7694,0,0,45.361,1,1,755,999
6795,5.0764e+07,1,-0.0011179,-0.0054015,0.0050661,-0.40287,-0.06168,-9.7975,0,0,45.361,1,1,755,999
6826,5.0767e+07,1,0.0019107,-0.0038566,0.0062731,-0.37684,-0.064076,-9.7927,0,0,45.361,1,1,755,999
6829,5.0769e+07,1,0.0034254,-0.0049887,0.0078722,-0.34442,-0.076996,-9.7908,0,0,45.361,1,1,755,999
6832,5.0771e+07,1,0.0030008,-0.0083253,0.0069788,-0.33459,-0.086503,-9.7906,0,0,45.361,1,1,755,999
6835,5.0774e+07,1,0.0017513,-0.0091765,0.0044862,-0.33479,-0.092281,-9.7832,0,0,45.361,1,1,755,999
6866,5.0777e+07,1,0.0012335,-0.0077051,0.0028506,-0.35211,-0.089659,-9.7496,0,0,45.361,1,1,755,999
6870,5.078e+07,1,-0.0012945,-0.0085221,0.0022815,-0.36772,-0.079425,-9.7417,0,0,45.361,1,1,755,999
6873,5.0782e+07,1,-0.0041631,-0.0075546,0.0027771,-0.37314,-0.069561,-9.7374,0,0,45.361,1,1,755,999
6877,5.0784e+07,1,-0.0047256,-0.006196,0.0033284,-0.36352,-0.075566,-9.7331,0,0,45.361,1,1,755,999
6912,5.0788e+07,1,-0.0031223,-0.0022014,0.0019052,-0.35273,-0.086935,-9.7129,0,0,45.361,1,1,755,999
6915,5.0789e+07,1,-0.00068679,-0.0015594,0.0014438,-0.34104,-0.083748,-9.696,0,0,45.362,1,1,755,999
6918,5.0792e+07,1,0.0051484,-0.0016664,0.0011012,-0.33083,-0.066079,-9.6791,0,0,45.362,1,1,755,999
6921,5.0794e+07,1,0.0084541,-0.0035715,0.0030811,-0.32483,-0.050785,-9.6831,0,0,45.362,1,1,755,999
6952,5.0797e+07,1,0.0076326,-0.0041093,0.0059107,-0.32972,-0.023896,-9.6715,0,0,45.362,1,1,755,999
6956,5.08e+07,1,0.0071082,-0.0022587,0.0063475,-0.33694,-0.013001,-9.6709,0,0,45.362,1,1,755,999
6959,5.0802e+07,1,0.0066122,-0.0016464,0.0043072,-0.34909,0.0022362,-9.6787,0,0,45.362,1,1,755,999
6966,5.0805e+07,1,0.0052782,-0.0044509,0.0012002,-0.35386,0.011032,-9.691,0,0,45.362,1,1,755,999
6997,5.0807e+07,1,0.0036304,-0.0066387,-0.0021135,-0.3639,0.029774,-9.7081,0,0,45.362,1,1,755,999
7000,5.081e+07,1,0.00082869,-0.0068136,-0.0024444,-0.38369,0.017985,-9.7257,0,0,45.362,1,1,755,999
7003,5.0813e+07,1,-0.0024031,-0.0056383,-0.0011557,-0.39344,-0.0064125,-9.7469,0,0,45.362,1,1,755,999
7006,5.0815e+07,1,-0.0030708,-0.0046475,0.0032389,-0.39856,-0.047519,-9.7744,0,0,45.362,1,1,755,999
7037,5.0818e+07,1,-0.0026592,-0.004312,0.0053831,-0.40834,-0.065903,-9.7957,0,0,45.362,1,1,755,999
7041,5.082e+07,1,-0.0023402,-0.0021445,0.004462,-0.41976,-0.077492,-9.8305,0,0,45.362,1,1,755,999
7044,5.0822e+07,1,-0.0023506,-0.00093763,0.0026044,-0.41613,-0.076797,-9.8528,0,0,45.362,1,1,755,999
7047,5.0825e+07,1,-0.0034301,-0.0014097,-0.00136,-0.40002,-0.064317,-9.8647,0,0,45.362,1,1,755,999
7078,5.0828e+07,1,-0.0034588,-0.0049425,-0.0027872,-0.39508,-0.058833,-9.8696,0,0,45.362,1,1,755,999
7083,5.083e+07,1,-0.002042,-0.007982,-0.0025661,-0.38681,-0.065698,-9.866,0,0,45.362,1,1,755,999
7086,5.0833e+07,1,-0.0001187,-0.005867,-0.0014891,-0.38127,-0.075303,-9.8438,0,0,45.362,1,1,755,999
7089,5.0835e+07,1,0.00053629,-0.0033672,0.00028624,-0.3773,-0.087015,-9.8231,0,0,45.362,1,1,755,999
7120,5.0837e+07,1,0.00069997,-0.0023439,0.0014267,-0.36947,-0.089745,-9.8189,0,0,45.362,1,1,755,999
7124,5.0841e+07,1,0.0015425,-0.0034308,0.0011697,-0.36298,-0.10787,-9.7925,0,0,45.362,1,1,755,999
7127,5.0843e+07,1,0.0015654,-0.0040261,0.00018863,-0.36462,-0.11725,-9.7573,0,0,45.362,1,1,755,999
7130,5.0845e+07,1,0.0015832,-0.00085276,-0.00016267,-0.37324,-0.13463,-9.6884,0,0,45.362,1,1,755,999
7161,5.0847e+07,1,0.0020163,-3.3786e-05,0.001271,-0.37811,-0.1471,-9.6486,0,0,45.362,1,1,755,999
7166,5.085e+07,1,0.0031345,-0.001172,0.0031058,-0.38384,-0.14311,-9.6094,0,0,45.362,1,1,755,999
7169,5.0853e+07,1,0.0039436,-0.0016427,0.002275,-0.38795,-0.13226,-9.5993,0,0,45.362,1,1,755,999
7172,5.0856e+07,1,0.0046188,-0.0028657,0.00036813,-0.40409,-0.11906,-9.5962,0,0,45.363,1,1,755,999
7175,5.0857e+07,1,0.0043051,-0.0023334,-0.00076991,-0.4159,-0.12052,-9.6107,0,0,45.363,1,1,755,999
7206,5.086e+07,1,-8.3505e-05,-0.00014365,-0.0036679,-0.4154,-0.12045,-9.6616,0,0,45.363,1,1,755,999
7209,5.0862e+07,1,-0.0020512,-7.7166e-05,-0.0061379,-0.40793,-0.12017,-9.7059,0,0,45.363,1,1,755,999
7212,5.0865e+07,1,-0.00088247,-0.0021663,-0.00527,-0.3889,-0.10632,-9.7749,0,0,45.363,1,1,755,999
7215,5.0868e+07,1,0.00090051,-0.0040382,-0.0024174,-0.37445,-0.091075,-9.8146,0,0,45.363,1,1,755,999
7246,5.087e+07,1,0.0046546,-0.0069698,0.0022907,-0.37355,-0.070041,-9.8582,0,0,45.363,1,1,755,999
7250,5.0873e+07,1,0.0040323,-0.0060323,0.0024087,-0.39319,-0.047259,-9.907,0,0,45.363,1,1,755,999
7253,5.0875e+07,1,0.0036094,-0.0045282,0.0014037,-0.40564,-0.027614,-9.9498,0,0,45.363,1,1,755,999
7257,5.0878e+07,1,0.0034577,-0.00044617,-0.00053315,-0.40884,-0.0050176,-9.9819,0,0,45.363,1,1,755,999
7288,5.0881e+07,1,0.0010901,0.0078077,-0.0015955,-0.41339,0.008767,-9.9723,0,0,45.363,1,1,755,999
7292,5.0883e+07,1,0.00038789,0.0081749,-0.0016341,-0.41398,0.010569,-9.9456,0,0,45.363,1,1,755,999
7295,5.0886e+07,1,-0.0028417,0.0035559,-0.0023743,-0.41155,-0.0030025,-9.9011,0,0,45.363,1,1,755,999
7298,5.0889e+07,1,-0.0039121,0.00032872,-0.0023347,-0.40567,-0.025247,-9.872,0,0,45.363,1,1,755,999
7329,5.0891e+07,1,-0.0031065,-0.004589,-0.0023631,-0.39829,-0.056714,-9.8446,0,0,45.363,1,1,755,999
7332,5.0894e+07,1,0.00017168,-0.00499,-0.0027789,-0.3955,-0.070945,-9.8376,0,0,45.363,1,1,755,999
7335,5.0896e+07,1,0.0013584,-0.0045925,-0.0014042,-0.38882,-0.078745,-9.8299,0,0,45.363,1,1,755,999
7338,5.0899e+07,1,-7.6981e-05,-0.0065466,-0.00038583,-0.38758,-0.075302,-9.8309,0,0,45.363,1,1,755,999
7370,5.0901e+07,1,-0.001664,-0.0068834,2.5808e-05,-0.3925,-0.054003,-9.8172,0,0,45.363,1,1,755,999
7374,5.0904e+07,1,-0.00092097,-0.0059815,7.8321e-05,-0.39014,-0.032219,-9.8164,0,0,45.363,1,1,755,999
7381,5.0907e+07,1,0.0039481,-0.00090045,0.0012509,-0.39118,-0.016459,-9.8208,0,0,45.363,1,1,755,999
7384,5.0909e+07,1,0.0058551,-0.0010971,0.0017115,-0.40065,-0.022846,-9.834,0,0,45.363,1,1,755,999
7415,5.0911e+07,1,0.0075751,-0.0027341,0.0011855,-0.4085,-0.060747,-9.8482,0,0,45.363,1,1,755,999
7419,5.0913e+07,1,0.0055597,-0.002526,0.0030573,-0.41605,-0.077673,-9.8457,0,0,45.363,1,1,755,999
7422,5.0916e+07,1,0.0019973,-0.0013047,0.0038639,-0.41923,-0.096677,-9.8318,0,0,45.363,1,1,755,999
7425,5.0919e+07,1,0.00052866,-0.00045043,0.0024097,-0.40593,-0.11235,-9.8131,0,0,45.363,1,1,755,999
7456,5.0921e+07,1,9.4678e-05,-7.2448e-05,0.001439,-0.38762,-0.1186,-9.7771,0,0,45.363,1,1,755,999
7460,5.0924e+07,1,0.0011076,-0.0012032,0.0015125,-0.3713,-0.12545,-9.7356,0,0,45.363,1,1,755,999
7463,5.0926e+07,1,0.0037597,-0.0029396,0.0019986,-0.36119,-0.13562,-9.7222,0,0,45.363,1,1,755,999
7466,5.0929e+07,1,0.0040328,-0.0032996,0.0016414,-0.35246,-0.13655,-9.6828,0,0,45.363,1,1,755,999
7497,5.0932e+07,1,0.0027393,-0.0026377,0.0016059,-0.3455,-0.12183,-9.6471,0,0,45.363,1,1,755,999
7500,5.0934e+07,1,-0.00071225,-0.002982,0.0019442,-0.35581,-0.094577,-9.5972,0,0,45.363,1,1,755,999
7503,5.0936e+07,1,-0.0028312,-0.0036735,0.0021473,-0.35906,-0.082226,-9.5751,0,0,45.363,1,1,755,999
7506,5.0939e+07,1,-0.0032195,-0.0055423,0.0026824,-0.3741,-0.074022,-9.5508,0,0,45.363,1,1,755,999
7537,5.0942e+07,1,-0.0024509,-0.006906,0.0024298,-0.38479,-0.06992,-9.5434,0,0,45.363,1,1,755,999
7542,5.0945e+07,1,-0.0028056,-0.010103,0.001089,-0.3936,-0.0662,-9.5598,0,0,45.364,1,1,755,999
7545,5.0946e+07,1,-0.004526,-0.010002,-3.8877e-05,-0.40124,-0.060818,-9.5895,0,0,45.364,1,1,755,999
7548,5.0949e+07,1,-0.0036033,-0.008247,-0.0012337,-0.41314,-0.045544,-9.6366,0,0,45.364,1,1,755,999
7579,5.0951e+07,1,-0.0020548,-0.0054551,8.1109e-05,-0.41937,-0.035684,-9.6646,0,0,45.364,1,1,755,999
7584,5.0957e+07,1,0.00043803,-0.0036255,0.0031015,-0.43061,-0.026639,-9.7194,0,0,45.364,1,1,755,999
7588,5.0959e+07,1,0.00026124,-0.0021588,0.0021681,-0.42892,-0.031165,-9.7476,0,0,45.364,1,1,755,999
7619,5.0961e+07,1,-0.0010286,-0.00028753,0.00041433,-0.43128,-0.030641,-9.7582,0,0,45.364,1,1,755,999
7622,5.0964e+07,1,-0.0044598,0.0021096,-0.0025687,-0.43393,-0.032702,-9.7755,0,0,45.364,1,1,755,999
7626,5.0967e+07,1,-0.00623,0.0030128,-0.0027842,-0.43499,-0.036199,-9.7891,0,0,45.364,1,1,755,999
7629,5.0969e+07,1,-0.002759,0.003146,-0.00085237,-0.43747,-0.040359,-9.7911,0,0,45.364,1,1,755,999
7660,5.0972e+07,1,0.0010869,0.0027261,0.0015727,-0.43827,-0.032965,-9.7768,0,0,45.364,1,1,755,999
7664,5.0974e+07,1,0.001449,0.0032221,0.0015002,-0.43663,-0.017985,-9.7633,0,0,45.364,1,1,755,999
7667,5.0977e+07,1,-0.00083075,0.0033319,-0.00018567,-0.43253,-0.012013,-9.7544,0,0,45.364,1,1,755,999
7670,5.0979e+07,1,-0.0025825,0.0026269,-0.0021916,-0.42572,-0.037508,-9.7548,0,0,45.364,1,1,755,999
7701,5.0982e+07,1,-0.00075379,-0.00029966,-0.0031534,-0.41151,-0.087444,-9.7621,0,0,45.364,1,1,755,999
7704,5.0984e+07,1,0.001724,-0.0022694,-0.0026203,-0.40408,-0.11987,-9.7643,0,0,45.364,1,1,755,999
7707,5.0987e+07,1,0.00068452,-0.0024081,0.00044727,-0.39801,-0.13772,-9.7671,0,0,45.364,1,1,755,999
7712,5.099e+07,1,0.00042633,-0.0024966,0.0017487,-0.38244,-0.14636,-9.7787,0,0,45.364,1,1,755,999
7743,5.0993e+07,1,0.0015107,-0.0037503,0.003128,-0.36632,-0.1469,-9.7764,0,0,45.364,1,1,755,999
7747,5.0995e+07,1,0.001527,-0.0043072,0.0048531,-0.34899,-0.13733,-9.7726,0,0,45.364,1,1,755,999
7750,5.0997e+07,1,0.0014614,-0.0042014,0.0058037,-0.3372,-0.13493,-9.7645,0,0,45.364,1,1,755,999
7753,5.1e+07,1,0.0024038,-0.0047083,0.0078408,-0.32585,-0.13546,-9.7598,0,0,45.364,1,1,755,999
7784,5.1003e+07,1,0.0016722,-0.0086323,0.0060644,-0.31773,-0.14541,-9.7647,0,0,45.364,1,1,755,999
7787,5.1005e+07,1,0.00016295,-0.010586,0.0045915,-0.31315,-0.15334,-9.7614,0,0,45.364,1,1,755,999
7794,5.1009e+07,1,-0.00077486,-0.0093557,-0.00040135,-0.31586,-0.15549,-9.7601,0,0,45.364,1,1,755,999
7797,5.101e+07,1,-0.00039233,-0.007425,-0.00043711,-0.33062,-0.14683,-9.7679,0,0,45.364,1,1,755,999
7828,5.1013e+07,1,-0.00044702,-3.1526e-05,0.0028575,-0.3542,-0.13367,-9.7636,0,0,45.364,1,1,755,999
7833,5.1015e+07,1,-0.0017983,0.0019181,0.0039235,-0.36426,-0.12396,-9.7435,0,0,45.364,1,1,755,999
7836,5.1018e+07,1,-0.0063483,0.0032899,0.0028844,-0.38553,-0.09973,-9.7122,0,0,45.364,1,1,755,999
7839,5.1021e+07,1,-0.0078746,-0.00079828,-0.0010879,-0.3962,-0.083937,-9.6919,0,0,45.364,1,1,755,999
7870,5.1023e+07,1,-0.0046167,-0.0061452,-0.0040623,-0.40543,-0.078174,-9.6845,0,0,45.364,1,1,755,999
7874,5.1026e+07,1,-0.00027813,-0.0070692,-0.0040556,-0.40789,-0.084208,-9.7054,0,0,45.364,1,1,755,999
7877,5.1028e+07,1,0.0019637,-0.0035614,-0.0039736,-0.39685,-0.082804,-9.7053,0,0,45.364,1,1,755,999
7880,5.1031e+07,1,0.0028848,0.0023507,-0.0050899,-0.36964,-0.080174,-9.701,0,0,45.364,1,1,755,999
7911,5.1033e+07,1,0.0026913,0.0046887,-0.004387,-0.35734,-0.0763,-9.704,0,0,45.364,1,1,755,999
7914,5.1036e+07,1,-0.00079883,0.0049935,-0.0046725,-0.36079,-0.08178,-9.7034,0,0,45.364,1,1,755,999
7917,5.1039e+07,1,-0.0024868,0.004641,-0.0054101,-0.36333,-0.082632,-9.7075,0,0,45.364,1,1,755,999
7920,5.1041e+07,1,-0.0024213,0.00055766,-0.0041497,-0.35959,-0.090208,-9.7135,0,0,45.364,1,1,755,999
7951,5.1045e+07,1,-0.0012513,1.9553e-05,-0.0024284,-0.36943,-0.10108,-9.7056,0,0,45.365,1,1,755,999
7954,5.1046e+07,1,0.0010251,0.00074921,0.00049308,-0.39139,-0.11491,-9.6963,0,0,45.365,1,1,755,999
7958,5.1048e+07,1,0.0041341,0.00010217,0.001499,-0.41687,-0.1078,-9.6947,0,0,45.365,1,1,755,999
7962,5.1054e+07,1,0.006534,-0.00039269,-0.0025717,-0.48737,-0.054483,-9.6949,0,0,45.365,1,1,755,999
7993,5.1056e+07,1,0.0048939,0.0007387,-0.0022543,-0.50903,-0.029062,-9.6929,0,0,45.365,1,1,755,999
7997,5.1059e+07,1,0.0033186,0.00090182,-0.00074596,-0.51335,-0.025975,-9.7172,0,0,45.365,1,1,755,999
8000,5.1062e+07,1,0.0028885,-0.0022042,-0.0010644,-0.49882,-0.024202,-9.7404,0,0,45.365,1,1,755,999
8003,5.1064e+07,1,0.0027494,-0.0027686,-0.0038813,-0.45898,-0.023558,-9.7741,0,0,45.365,1,1,755,999
8034,5.1067e+07,1,0.0012687,-0.0015653,-0.0073066,-0.43273,-0.035284,-9.7978,0,0,45.365,1,1,755,999
8037,5.1069e+07,1,0.0017248,-0.0018316,-0.0090382,-0.40265,-0.047395,-9.8177,0,0,45.365,1,1,755,999
8040,5.1071e+07,1,0.0022505,-0.0016433,-0.0084513,-0.38925,-0.054901,-9.8145,0,0,45.365,1,1,755,999
8044,5.1074e+07,1,0.0025691,-0.0022029,-0.0042025,-0.36992,-0.07967,-9.8079,0,0,45.365,1,1,755,999
8075,5.1077e+07,1,0.0022438,-0.0032764,-0.0018673,-0.36331,-0.098818,-9.7983,0,0,45.365,1,1,755,999
8079,5.1079e+07,1,0.0027049,-0.0041151,0.0016979,-0.36836,-0.12429,-9.7779,0,0,45.365,1,1,755,999
8082,5.1082e+07,1,0.0038375,-0.0030264,0.0042823,-0.36319,-0.1348,-9.7733,0,0,45.365,1,1,755,999
8085,5.1084e+07,1,0.0037645,-0.00092421,0.0053002,-0.35552,-0.12457,-9.7805,0,0,45.365,1,1,755,999
8116,5.1086e+07,1,0.0024833,0.00046795,0.0038404,-0.35712,-0.10722,-9.7879,0,0,45.365,1,1,755,999
8119,5.109e+07,1,0.0017279,0.0004189,0.001537,-0.35819,-0.083458,-9.7992,0,0,45.365,1,1,755,999
8122,5.1092e+07,1,0.0015416,0.00033975,0.00026052,-0.36001,-0.073242,-9.8034,0,0,45.365,1,1,755,999
8125,5.1094e+07,1,0.0021695,-0.00092482,-0.0017267,-0.36637,-0.070254,-9.8072,0,0,45.365,1,1,755,999
8156,5.1096e+07,1,0.0019311,-0.00044971,-0.0027644,-0.36986,-0.063624,-9.8007,0,0,45.365,1,1,755,999
8160,5.1099e+07,1,0.0005732,0.0017401,-0.0026811,-0.37715,-0.049343,-9.8089,0,0,45.366,1,1,755,999
8163,5.1102e+07,1,0.00066092,0.00075656,0.001023,-0.37366,-0.038224,-9.8133,0,0,45.366,1,1,755,999
8166,5.1104e+07,1,0.0011406,-0.0011695,0.0051185,-0.36601,-0.027138,-9.8234,0,0,45.366,1,1,755,999
8197,5.1107e+07,1,0.0023812,-0.0026209,0.0064699,-0.36628,-0.021664,-9.8344,0,0,45.366,1,1,755,999
8204,5.1109e+07,1,0.001862,-0.0026473,0.004783,-0.36443,-0.021488,-9.8455,0,0,45.366,1,1,755,999
8209,5.1112e+07,1,-0.0027096,-0.00042815,0.00086613,-0.36108,-0.036565,-9.8447,0,0,45.366,1,1,755,999
8213,5.1114e+07,1,-0.0067966,-0.00085477,-0.0020567,-0.35665,-0.068009,-9.8139,0,0,45.366,1,1,755,999
8244,5.1117e+07,1,-0.0075123,-0.0021558,-0.0031604,-0.35872,-0.095982,-9.7888,0,0,45.366,1,1,755,999
8248,5.1119e+07,1,-0.0035464,-0.0074202,-0.0044854,-0.37109,-0.13042,-9.7772,0,0,45.366,1,1,755,999
8251,5.1122e+07,1,-0.0020979,-0.0087909,-0.0035816,-0.3817,-0.14401,-9.7782,0,0,45.366,1,1,755,999
8254,5.1124e+07,1,-0.0021407,-0.010023,-0.0016742,-0.39676,-0.14635,-9.7648,0,0,45.366,1,1,755,999
8285,5.1127e+07,1,-0.0027934,-0.0083626,-0.0031697,-0.40874,-0.14504,-9.7533,0,0,45.366,1,1,755,999
8289,5.1129e+07,1,-0.00047849,-0.0038924,-0.0061504,-0.43129,-0.1226,-9.7543,0,0,45.366,1,1,755,999
8292,5.1132e+07,1,0.0024977,-0.00051526,-0.0042343,-0.44678,-0.092892,-9.7635,0,0,45.366,1,1,755,999
8295,5.1134e+07,1,0.0046165,-0.001059,-0.00049259,-0.45988,-0.058839,-9.7704,0,0,45.366,1,1,755,999
8326,5.1136e+07,1,0.0055114,-0.0011684,0.00064159,-0.45764,-0.052839,-9.7674,0,0,45.366,1,1,755,999
8329,5.1139e+07,1,0.0068746,-0.0023042,0.0061494,-0.45195,-0.064304,-9.766,0,0,45.366,1,1,755,999
8332,5.1142e+07,1,0.0064393,-0.0027844,0.0080734,-0.4482,-0.076866,-9.7695,0,0,45.367,1,1,755,999
8335,5.1144e+07,1,0.0044818,-0.00069021,0.0084424,-0.43536,-0.092653,-9.7888,0,0,45.367,1,1,755,999
8366,5.1146e+07,1,0.0034934,0.00066543,0.0076503,-0.42169,-0.092465,-9.8,0,0,45.367,1,1,755,999
8370,5.1149e+07,1,0.0012072,0.0017125,0.0078031,-0.40231,-0.074312,-9.795,0,0,45.367,1,1,755,999
8373,5.1152e+07,1,-0.00019097,0.0010551,0.0085801,-0.39307,-0.064482,-9.7887,0,0,45.367,1,1,755,999
8377,5.1157e+07,1,-0.0015006,0.00037851,0.0022803,-0.39325,-0.045405,-9.7935,0,0,45.367,1,1,755,999
8408,5.1159e+07,1,-0.0035615,0.0011132,-0.0027825,-0.38982,-0.036184,-9.7821,0,0,45.367,1,1,755,999
8411,5.1162e+07,1,-0.0051578,0.00094608,-0.0058692,-0.36663,-0.038745,-9.7647,0,0,45.367,1,1,755,999
8414,5.1164e+07,1,-0.0040725,0.00097938,-0.005132,-0.34943,-0.045337,-9.7536,0,0,45.367,1,1,755,999
8417,5.1167e+07,1,-0.0016744,-0.0012439,-0.0039276,-0.33687,-0.061421,-9.7381,0,0,45.367,1,1,755,999
8448,5.1172e+07,1,0.0028863,-0.00032984,4.7859e-05,-0.32236,-0.09635,-9.6997,0,0,45.367,1,1,755,999
8452,5.1175e+07,1,0.0035015,0.0001329,0.0020997,-0.33152,-0.096587,-9.6974,0,0,45.368,1,1,755,999
8455,5.1177e+07,1,0.0029001,0.0016095,0.0028629,-0.35618,-0.099043,-9.6945,0,0,45.368,1,1,755,999
8486,5.118e+07,1,0.0015954,0.0020463,0.0022118,-0.39187,-0.098021,-9.6787,0,0,45.368,1,1,755,999
8489,5.1182e+07,1,0.00020008,0.0032289,0.0020399,-0.41575,-0.087836,-9.669,0,0,45.368,1,1,755,999
8493,5.1184e+07,1,0.0032805,0.0035075,0.0018741,-0.42787,-0.088264,-9.6669,0,0,45.368,1,1,755,999
8496,5.1187e+07,1,0.0076736,0.0025941,0.00011878,-0.43431,-0.10199,-9.6553,0,0,45.368,1,1,755,999
8527,5.1189e+07,1,0.009967,0.00052049,0.00046794,-0.43383,-0.11093,-9.6557,0,0,45.368,1,1,755,999
8530,5.1192e+07,1,0.0084823,-0.00091588,0.0061449,-0.42301,-0.095364,-9.6658,0,0,45.368,1,1,755,999
8533,5.1195e+07,1,0.0073075,-0.001758,0.008978,-0.40131,-0.089428,-9.6824,0,0,45.368,1,1,755,999
8538,5.1197e+07,1,0.0039908,-0.0044461,0.0091421,-0.37691,-0.088125,-9.7185,0,0,45.368,1,1,755,999
8569,5.12e+07,1,0.001509,-0.0073498,0.0050225,-0.37254,-0.066471,-9.7501,0,0,45.368,1,1,755,999
8572,5.1203e+07,1,0.000674,-0.0088962,0.0035577,-0.3686,-0.049633,-9.7678,0,0,45.368,1,1,755,999
8576,5.1205e+07,1,0.0018366,-0.011966,-0.0013827,-0.34988,-0.016787,-9.7799,0,0,45.368,1,1,755,999
8580,5.1208e+07,1,0.0029545,-0.012932,-0.002575,-0.34099,-0.0033494,-9.7765,0,0,45.369,1,1,755,999
8615,5.121e+07,1,0.0053455,-0.0091167,-0.001305,-0.3455,0.012443,-9.7773,0,0,45.369,1,1,755,999
8618,5.1213e+07,1,0.0042905,-0.005475,-0.00042199,-0.34169,0.016374,-9.7957,0,0,45.369,1,1,755,999
8621,5.1215e+07,1,0.0022465,-0.0036485,-0.0008511,-0.33424,0.011597,-9.8004,0,0,45.369,1,1,755,999
8624,5.1219e+07,1,0.00027959,-0.00020443,-0.0025003,-0.32578,0.017428,-9.7922,0,0,45.369,1,1,755,999
8655,5.1221e+07,1,0.0013975,0.0021199,-0.0022319,-0.3248,0.011799,-9.7728,0,0,45.369,1,1,755,999
8658,5.1224e+07,1,0.0015956,0.0027788,-0.0014755,-0.32731,-0.00052013,-9.7605,0,0,45.369,1,1,755,999
8662,5.1226e+07,1,0.0024569,0.0031812,0.0022659,-0.33535,-0.012601,-9.7675,0,0,45.369,1,1,755,999
8665,5.1229e+07,1,0.0015347,0.0008701,0.0035157,-0.33777,-0.013524,-9.7719,0,0,45.369,1,1,755,999
8696,5.1231e+07,1,0.00031763,3.6959e-07,-0.00048542,-0.34758,-0.0088869,-9.7743,0,0,45.369,1,1,755,999
8699,5.1234e+07,1,0.0008277,-0.00079885,-0.003176,-0.36018,-0.0082247,-9.7751,0,0,45.369,1,1,755,999
8703,5.1236e+07,1,0.00081773,-0.001642,-0.0028036,-0.37227,-0.014273,-9.7784,0,0,45.369,1,1,755,999
8706,5.1239e+07,1,-0.0014736,-0.001417,-0.0034666,-0.36823,-0.023202,-9.7896,0,0,45.369,1,1,755,999
8737,5.1241e+07,1,-0.0034385,-0.0013958,-0.0072568,-0.35699,-0.03929,-9.8044,0,0,45.37,1,1,755,999
8740,5.1244e+07,1,-0.0030569,-0.001399,-0.0094914,-0.34514,-0.051973,-9.8164,0,0,45.37,1,1,755,999
8743,5.1246e+07,1,0.0013411,-0.00052335,-0.0098178,-0.32642,-0.079554,-9.8166,0,0,45.37,1,1,755,999
8747,5.1249e+07,1,0.0020195,0.00029994,-0.0091568,-0.31952,-0.094034,-9.804,0,0,45.37,1,1,755,999
8778,5.1251e+07,1,0.000413,0.0034234,-0.0059966,-0.33303,-0.095593,-9.7944,0,0,45.37,1,1,755,999
8781,5.1254e+07,1,-0.0012951,0.003388,-0.0026653,-0.34788,-0.094742,-9.7969,0,0,45.37,1,1,755,999
8786,5.1261e+07,1,0.0038824,-0.00045108,0.00056707,-0.41363,-0.11914,-9.8258,0,0,45.37,1,1,755,999
8817,5.1264e+07,1,0.0054047,-0.0013408,0.00037188,-0.43123,-0.12605,-9.8096,0,0,45.371,1,1,755,999
8820,5.1266e+07,1,0.0095718,-0.0044504,0.0014587,-0.4485,-0.11336,-9.7689,0,0,45.371,1,1,755,999
8823,5.1269e+07,1,0.0093477,-0.0049689,0.0028161,-0.44566,-0.097805,-9.7347,0,0,45.371,1,1,755,999
8826,5.1272e+07,1,0.0056769,-0.005495,0.0052572,-0.42252,-0.091546,-9.6854,0,0,45.371,1,1,755,999
8857,5.1274e+07,1,0.00050236,-0.008274,0.0040322,-0.40246,-0.098906,-9.6617,0,0,45.371,1,1,755,999
8861,5.1277e+07,1,-0.0018108,-0.0086607,0.0032976,-0.38144,-0.10443,-9.6572,0,0,45.371,1,1,755,999
8864,5.1279e+07,1,-0.0054922,-0.0049327,0.0019696,-0.35122,-0.10204,-9.6565,0,0,45.371,1,1,755,999
8867,5.1282e+07,1,-0.0061876,-0.0031407,0.00026886,-0.33504,-0.099247,-9.6373,0,0,45.371,1,1,755,999
8900,5.1285e+07,1,-0.0030867,0.0025607,-0.0040999,-0.30848,-0.10903,-9.59,0,0,45.372,1,1,755,999
8903,5.1287e+07,1,-0.0018477,0.0035181,-0.0030632,-0.30164,-0.10649,-9.5891,0,0,45.372,1,1,755,999
8906,5.129e+07,1,-0.0014328,0.004522,-0.002987,-0.29265,-0.10035,-9.5918,0,0,45.372,1,1,755,999
8909,5.1292e+07,1,0.0015435,0.0059525,-0.0032243,-0.28787,-0.10659,-9.5897,0,0,45.372,1,1,755,999
8940,5.1295e+07,1,0.0045168,0.0054846,-0.0028845,-0.28886,-0.11681,-9.5941,0,0,45.372,1,1,755,999
8944,5.1298e+07,1,0.0053714,0.0036432,-0.0010752,-0.29619,-0.12257,-9.6258,0,0,45.372,1,1,755,999
8947,5.13e+07,1,0.006318,0.00020153,-0.00029314,-0.31201,-0.12788,-9.6575,0,0,45.372,1,1,755,999
8950,5.1302e+07,1,0.0075964,-0.0017191,0.0010182,-0.33571,-0.11412,-9.6896,0,0,45.372,1,1,755,999
8981,5.1305e+07,1,0.0080714,-0.0020917,0.0023955,-0.35392,-0.098571,-9.7146,0,0,45.372,1,1,755,999
8985,5.1308e+07,1,0.0052295,-0.00072904,0.005101,-0.38529,-0.073812,-9.7537,0,0,45.373,1,1,755,999
8988,5.131e+07,1,0.003364,3.1091e-05,0.0039688,-0.39462,-0.057233,-9.7733,0,0,45.373,1,1,755,999
8995,5.1313e+07,1,-0.00012448,0.00090157,0.00071988,-0.40127,-0.036391,-9.7922,0,0,45.373,1,1,755,999
9026,5.1315e+07,1,-0.0072376,0.0015376,-0.0046106,-0.40872,-0.034446,-9.7965,0,0,45.373,1,1,755,999
9029,5.1317e+07,1,-0.0077321,0.0031006,-0.0061986,-0.41191,-0.04198,-9.794,0,0,45.373,1,1,755,999
9032,5.132e+07,1,-0.005505,0.0071146,-0.0063599,-0.4181,-0.052744,-9.797,0,0,45.373,1,1,755,999
9035,5.1322e+07,1,-0.002191,0.0075331,-0.0020921,-0.42022,-0.079794,-9.8023,0,0,45.373,1,1,755,999
9066,5.1325e+07,1,0.00043283,0.0046655,0.0033734,-0.41453,-0.10037,-9.7925,0,0,45.373,1,1,755,999
9070,5.1327e+07,1,0.0017999,-0.00033083,0.003605,-0.4131,-0.10871,-9.7872,0,0,45.373,1,1,755,999
9073,5.133e+07,1,0.0016466,-0.0022341,0.0022302,-0.4088,-0.11908,-9.7963,0,0,45.373,1,1,755,999
9076,5.1333e+07,1,0.001773,-0.0047335,-0.0017221,-0.38647,-0.1261,-9.8247,0,0,45.373,1,1,755,999
9107,5.1335e+07,1,0.0015454,-0.0052468,-0.0047791,-0.35586,-0.12425,-9.8466,0,0,45.373,1,1,755,999
9110,5.1338e+07,1,0.001246,-0.0041095,-0.0056659,-0.34461,-0.1193,-9.8532,0,0,45.373,1,1,755,999
9113,5.134e+07,1,-0.00070638,0.0039626,-0.0061341,-0.33148,-0.11129,-9.8392,0,0,45.374,1,1,755,999
9116,5.1343e+07,1,-0.0011947,0.0062824,-0.0075093,-0.32394,-0.10617,-9.8265,0,0,45.374,1,1,755,999
9147,5.1345e+07,1,-0.00028496,0.0067748,-0.0095661,-0.30796,-0.10584,-9.8427,0,0,45.374,1,1,755,999
9151,5.1348e+07,1,0.00093837,0.0027184,-0.0025762,-0.31086,-0.11817,-9.8488,0,0,45.374,1,1,755,999
9154,5.1351e+07,1,0.0013404,0.0010783,0.00036316,-0.32018,-0.12253,-9.8231,0,0,45.374,1,1,755,999
9157,5.1353e+07,1,0.0032533,0.00059519,0.0019051,-0.34211,-0.10826,-9.7593,0,0,45.374,1,1,755,999
9188,5.1358e+07,1,0.0025593,0.0031895,0.0020248,-0.39466,-0.075786,-9.7199,0,0,45.374,1,1,755,999
9191,5.1361e+07,1,0.0027756,0.00019367,0.0037947,-0.4052,-0.072352,-9.7428,0,0,45.374,1,1,755,999
9194,5.1363e+07,1,0.002312,-0.0014719,0.0042105,-0.41409,-0.083329,-9.7709,0,0,45.375,1,1,755,999
9225,5.1366e+07,1,0.0010394,-0.0024498,0.0029577,-0.41508,-0.086073,-9.7902,0,0,45.375,1,1,755,999
9228,5.1368e+07,1,-0.00075259,-0.0024573,0.0013132,-0.41832,-0.079189,-9.8051,0,0,45.375,1,1,755,999
9232,5.1371e+07,1,-0.0011509,-0.0015105,0.0015909,-0.41955,-0.0684,-9.8018,0,0,45.375,1,1,755,999
9235,5.1373e+07,1,-0.00023248,-0.00024602,0.0013975,-0.41515,-0.052489,-9.7995,0,0,45.375,1,1,755,999
9266,5.1375e+07,1,0.0011457,-0.00017059,0.0012221,-0.40927,-0.063354,-9.8,0,0,45.375,1,1,755,999
9269,5.1379e+07,1,0.0033481,-0.0007252,0.0029445,-0.39381,-0.087504,-9.8111,0,0,45.375,1,1,755,999
9273,5.1381e+07,1,0.0034503,-0.0025343,0.0055423,-0.38393,-0.098363,-9.8171,0,0,45.375,1,1,755,999
9278,5.1383e+07,1,0.00073699,-0.0034871,0.0066906,-0.37987,-0.086666,-9.8189,0,0,45.376,1,1,755,999
9309,5.1386e+07,1,-0.0013978,-0.0065215,0.0060269,-0.38962,-0.066121,-9.8128,0,0,45.376,1,1,755,999
9312,5.1389e+07,1,-0.0027549,-0.0085361,0.0045512,-0.3931,-0.057225,-9.8126,0,0,45.376,1,1,755,999
9315,5.1391e+07,1,-0.0021588,-0.0084767,0.0055464,-0.38452,-0.050652,-9.7955,0,0,45.376,1,1,755,999
9318,5.1393e+07,1,5.9514e-05,-0.0074626,0.0054816,-0.36807,-0.052503,-9.7681,0,0,45.376,1,1,755,999
9349,5.1396e+07,1,0.0021062,-0.0045408,0.0049921,-0.35518,-0.057803,-9.7264,0,0,45.376,1,1,755,999
9352,5.1399e+07,1,0.0021027,-0.0038187,0.0052763,-0.35902,-0.060132,-9.7181,0,0,45.376,1,1,755,999
9356,5.1401e+07,1,0.0021883,-0.0060141,0.0035857,-0.37486,-0.056685,-9.7113,0,0,45.376,1,1,755,999
9359,5.1404e+07,1,0.0017977,-0.0061611,0.0020119,-0.38601,-0.052826,-9.7006,0,0,45.376,1,1,755,999
9390,5.1406e+07,1,0.0024619,-0.0037107,-0.00072752,-0.39568,-0.064477,-9.7105,0,0,45.377,1,1,755,999
9393,5.1408e+07,1,0.0030006,-0.0029707,-0.0012237,-0.39337,-0.072082,-9.7255,0,0,45.377,1,1,755,999
9396,5.1411e+07,1,0.0024112,-0.0017647,-0.00157,-0.37781,-0.06914,-9.7544,0,0,45.377,1,1,755,999
9403,5.1414e+07,1,0.00070686,-0.00064972,-0.00055732,-0.36186,-0.059099,-9.7721,0,0,45.377,1,1,755,999
9434,5.1417e+07,1,0.0015127,-0.0019667,0.0019547,-0.3374,-0.034786,-9.7829,0,0,45.377,1,1,755,999
9437,5.1419e+07,1,0.0020814,-0.0016962,0.0030911,-0.32688,-0.026866,-9.7892,0,0,45.377,1,1,755,999
9441,5.1422e+07,1,-0.00016957,0.00035623,-6.263e-05,-0.31728,-0.02967,-9.7778,0,0,45.377,1,1,755,999
9444,5.1424e+07,1,-0.0018805,0.001259,-0.0036386,-0.31477,-0.032961,-9.7744,0,0,45.377,1,1,755,999
9475,5.1427e+07,1,-0.00062237,0.00052778,-0.0066252,-0.31704,-0.034406,-9.781,0,0,45.377,1,1,755,999
9478,5.143e+07,1,0.00021629,-0.0016115,-0.0077502,-0.3298,-0.032019,-9.7858,0,0,45.378,1,1,755,999
9482,5.1431e+07,1,2.0324e-05,-0.0033692,-0.0068182,-0.34408,-0.026239,-9.7811,0,0,45.378,1,1,755,999
9485,5.1434e+07,1,0.0024048,-0.0082433,-0.0046494,-0.35542,-0.021543,-9.7847,0,0,45.378,1,1,755,999
9504,5.145e+07,1,-0.00025071,0.0035891,0.001914,-0.36742,-0.033716,-9.7777,0,0,45.379,1,1,755,999
9508,5.1451e+07,1,-0.00096316,-0.00048161,0.0037462,-0.37018,-0.050888,-9.7737,0,0,45.379,1,1,755,999
9511,5.1456e+07,1,-0.00055496,-0.0057254,-0.0031884,-0.3963,-0.09056,-9.7659,0,0,45.379,1,1,755,999
9542,5.1459e+07,1,0.0030717,-0.0027831,-0.0067379,-0.41692,-0.081298,-9.774,0,0,45.379,1,1,755,999
9545,5.1462e+07,1,0.0044241,-0.0019571,-0.006552,-0.42748,-0.07325,-9.7813,0,0,45.379,1,1,755,999
9548,5.1464e+07,1,0.0040058,-0.0020017,-0.0037553,-0.4302,-0.066836,-9.7633,0,0,45.379,1,1,755,999
9551,5.1467e+07,1,0.00097562,-0.0034852,0.00079415,-0.42413,-0.061505,-9.7467,0,0,45.379,1,1,755,999
9582,5.1469e+07,1,-0.0024773,-0.0050785,0.0043439,-0.4145,-0.052658,-9.7333,0,0,45.379,1,1,755,999
9587,5.1472e+07,1,-0.0050003,-0.0088146,0.0048065,-0.39801,-0.056094,-9.7087,0,0,45.38,1,1,755,999
9590,5.1475e+07,1,-0.0040647,-0.011958,0.0051359,-0.38117,-0.064383,-9.6968,0,0,45.38,1,1,755,999
9593,5.1477e+07,1,-0.0024633,-0.011522,0.0063738,-0.37992,-0.074733,-9.7003,0,0,45.38,1,1,755,999
9624,5.148e+07,1,-0.0021212,-0.0080134,0.0057728,-0.38943,-0.084317,-9.7177,0,0,45.38,1,1,755,999
9627,5.1482e+07,1,-0.0021486,-0.0042927,0.0043415,-0.39402,-0.094073,-9.7362,0,0,45.38,1,1,755,999
9630,5.1484e+07,1,-0.0024326,-0.0029165,0.0039474,-0.39743,-0.097184,-9.7547,0,0,45.38,1,1,755,999
9633,5.1487e+07,1,-0.0043207,-0.0025973,0.0022095,-0.40224,-0.081677,-9.7691,0,0,45.38,1,1,755,999
9664,5.149e+07,1,-0.0048236,-0.0019772,0.0021153,-0.40348,-0.074619,-9.781,0,0,45.38,1,1,755,999
9668,5.1492e+07,1,-0.0019573,0.00037793,0.0014282,-0.41525,-0.072387,-9.7834,0,0,45.38,1,1,755,999
9671,5.1494e+07,1,-1.534e-05,0.00084613,0.00016813,-0.42367,-0.06364,-9.7775,0,0,45.381,1,1,755,999
9674,5.1497e+07,1,0.0039444,-0.0010029,-0.0024093,-0.42374,-0.032716,-9.7901,0,0,45.381,1,1,755,999
9705,5.1499e+07,1,0.0053173,-0.0024047,-0.0036527,-0.40834,-0.026677,-9.7925,0,0,45.381,1,1,755,999
9708,5.1503e+07,1,0.0049398,-0.0015361,-0.0038721,-0.39332,-0.026532,-9.8001,0,0,45.381,1,1,755,999
9711,5.1504e+07,1,0.0030316,0.00038727,-0.0023744,-0.38844,-0.028398,-9.8267,0,0,45.381,1,1,755,999
9714,5.1507e+07,1,-0.0008316,0.0018248,-0.00097073,-0.39186,-0.034199,-9.8263,0,0,45.381,1,1,755,999
9745,5.1509e+07,1,-0.0028178,0.0020388,-0.0005853,-0.39815,-0.039835,-9.8201,0,0,45.381,1,1,755,999
9749,5.1513e+07,1,-0.0044069,0.00071975,0.0022645,-0.40008,-0.039111,-9.8132,0,0,45.381,1,1,755,999
9756,5.1515e+07,1,-0.003294,-0.0010288,0.0024864,-0.39734,-0.033768,-9.8227,0,0,45.381,1,1,755,999
9759,5.1517e+07,1,-0.00085341,-0.0064148,0.0024994,-0.3939,-0.032001,-9.829,0,0,45.381,1,1,755,999
9790,5.152e+07,1,0.0035377,-0.0094919,0.00072081,-0.3909,-0.050493,-9.8084,0,0,45.381,1,1,755,999
9794,5.1522e+07,1,0.0046067,-0.008506,-0.0003173,-0.40467,-0.065493,-9.7949,0,0,45.381,1,1,755,999
9798,5.1525e+07,1,0.0050751,-0.0031209,0.00053553,-0.42514,-0.08401,-9.7953,0,0,45.381,1,1,755,999
9801,5.1527e+07,1,0.004521,-0.0017395,0.0017664,-0.44787,-0.092427,-9.8074,0,0,45.382,1,1,755,999
9832,5.153e+07,1,0.0024635,-0.0017826,0.0027571,-0.45162,-0.07932,-9.8391,0,0,45.382,1,1,755,999
9835,5.1533e+07,1,-0.00026532,-0.0022133,0.0025823,-0.44699,-0.065799,-9.8511,0,0,45.382,1,1,755,999
9838,5.1535e+07,1,-0.0017284,-0.0017371,0.0011806,-0.44969,-0.053904,-9.8457,0,0,45.382,1,1,755,999
9841,5.1538e+07,1,-0.0025335,-0.0017408,-0.0028036,-0.45245,-0.044833,-9.8315,0,0,45.382,1,1,755,999
9872,5.154e+07,1,-0.0016231,-0.00092535,-0.0044171,-0.43601,-0.027038,-9.8041,0,0,45.382,1,1,755,999
9877,5.1543e+07,1,-0.0014845,0.00076002,-0.0023739,-0.42005,-0.019134,-9.7905,0,0,45.382,1,1,755,999
9880,5.1545e+07,1,-0.00015536,-0.00035255,-0.0013168,-0.40277,-0.0012391,-9.7769,0,0,45.382,1,1,755,999
9883,5.1548e+07,1,0.0010774,-0.0017215,-0.00015708,-0.40362,0.017394,-9.768,0,0,45.382,1,1,755,999
9914,5.1551e+07,1,0.00089649,-0.0027058,0.00030636,-0.4077,0.036342,-9.7421,0,0,45.383,1,1,755,999
9917,5.1553e+07,1,-0.0037332,-0.0074889,-0.00028913,-0.41833,0.029848,-9.7177,0,0,45.383,1,1,755,999
9920,5.1558e+07,1,-0.01033,-0.0081939,-0.0014046,-0.44854,-0.011088,-9.6828,0,0,45.383,1,1,755,999
9951,5.1561e+07,1,-0.010554,-0.0069161,-0.0018861,-0.45891,-0.030898,-9.6774,0,0,45.383,1,1,755,999
9954,5.1563e+07,1,-0.0085924,-0.0062148,-0.001706,-0.47089,-0.051412,-9.6824,0,0,45.383,1,1,755,999
9958,5.1565e+07,1,-0.00092477,-0.0021777,0.00040736,-0.48676,-0.09017,-9.6954,0,0,45.383,1,1,755,999
9961,5.1568e+07,1,0.0023042,0.00054819,0.0031066,-0.48463,-0.1066,-9.7023,0,0,45.383,1,1,755,999
9992,5.157e+07,1,0.0032253,0.00053843,0.0049167,-0.46028,-0.11303,-9.7163,0,0,45.383,1,1,755,999
9995,5.1573e+07,1,0.0028243,-0.00022124,0.0081578,-0.42887,-0.1052,-9.7241,0,0,45.383,1,1,755,999
10000,5.1576e+07,1,0.0022203,0.00032097,0.0087955,-0.41936,-0.10278,-9.7266,0,0,45.383,1,1,755,999
10003,5.1578e+07,1,0.0020963,0.00070138,0.0064072,-0.40641,-0.10308,-9.7295,0,0,45.383,1,1,755,999
10034,5.1581e+07,1,0.0028962,-7.9009e-05,0.0048759,-0.39088,-0.10219,-9.7279,0,0,45.383,1,1,755,999
10037,5.1583e+07,1,0.0035562,-0.0018482,0.001372,-0.36492,-0.090372,-9.7416,0,0,45.384,1,1,755,999
10042,5.1586e+07,1,0.00176,-0.001991,-0.0017098,-0.36658,-0.07522,-9.7658,0,0,45.384,1,1,755,999
10045,5.1588e+07,1,0.00055892,-0.00029071,-0.0045328,-0.37722,-0.07334,-9.8049,0,0,45.384,1,1,755,999
10076,5.1591e+07,1,0.0017754,0.002989,-0.0044865,-0.38669,-0.072873,-9.8137,0,0,45.384,1,1,755,999
10079,5.1593e+07,1,0.0044184,0.0030613,-0.0016625,-0.38934,-0.069959,-9.8048,0,0,45.384,1,1,755,999
10083,5.1595e+07,1,0.005737,0.0010754,-0.00057534,-0.38678,-0.073126,-9.7953,0,0,45.384,1,1,755,999
10086,5.1598e+07,1,0.0050336,-0.0042331,-0.0026093,-0.38558,-0.082208,-9.7842,0,0,45.384,1,1,755,999
10117,5.1601e+07,1,0.0026741,-0.0048848,-0.0043062,-0.39095,-0.070975,-9.7594,0,0,45.384,1,1,755,999
10120,5.1603e+07,1,0.0017711,-0.0049187,-0.0040068,-0.39641,-0.054904,-9.7265,0,0,45.384,1,1,755,999
10123,5.1606e+07,1,0.0004581,-0.0043932,-0.0022706,-0.40921,-0.040559,-9.6918,0,0,45.384,1,1,755,999
10126,5.1608e+07,1,0.0030559,-0.0031782,-0.0019943,-0.43161,-0.017954,-9.6777,0,0,45.384,1,1,755,999
10157,5.1611e+07,1,0.0057027,-0.0030911,-0.0019759,-0.44041,-0.010397,-9.7009,0,0,45.384,1,1,755,999
10160,5.1613e+07,1,0.0042831,-0.0038405,-0.00074212,-0.43898,-0.033481,-9.7538,0,0,45.384,1,1,755,999
10168,5.1616e+07,1,0.0035992,-0.0035539,-9.1755e-05,-0.43573,-0.055865,-9.7856,0,0,45.384,1,1,755,999
10171,5.1618e+07,1,-0.0010028,0.00061829,-0.00067568,-0.42568,-0.081658,-9.8058,0,0,45.384,1,1,755,999
10202,5.1621e+07,1,-0.0050721,0.0040278,-0.00098957,-0.39313,-0.08806,-9.8175,0,0,45.384,1,1,755,999
10205,5.1623e+07,1,-0.0057681,0.0053155,0.0012791,-0.38004,-0.084673,-9.8222,0,0,45.384,1,1,755,999
10208,5.1626e+07,1,-0.0034837,0.0045236,0.0033337,-0.379,-0.078117,-9.8148,0,0,45.385,1,1,755,999
10211,5.1629e+07,1,-0.0024281,0.0046902,0.0035437,-0.38761,-0.079088,-9.8047,0,0,45.385,1,1,755,999
10242,5.1631e+07,1,-7.9071e-06,0.0033582,0.0025855,-0.40047,-0.091323,-9.7853,0,0,45.385,1,1,755,999
10245,5.1634e+07,1,0.00063739,0.0026951,0.0017917,-0.40524,-0.1119,-9.7734,0,0,45.385,1,1,755,999
10249,5.1636e+07,1,0.00013284,-0.001148,0.0027058,-0.40495,-0.14095,-9.7493,0,0,45.385,1,1,755,999
10252,5.1639e+07,1,-0.001602,-0.0063343,0.0057032,-0.40072,-0.1461,-9.738,0,0,45.385,1,1,755,999
10283,5.1641e+07,1,-0.00044964,-0.0054061,0.0083201,-0.40483,-0.1484,-9.7261,0,0,45.385,1,1,755,999
10287,5.1644e+07,1,0.0012433,-0.0045215,0.0086837,-0.41661,-0.15707,-9.7176,0,0,45.385,1,1,755,999
10292,5.1647e+07,1,0.0001652,-0.0057171,0.0083875,-0.43045,-0.16789,-9.7137,0,0,45.385,1,1,755,999
10295,5.1648e+07,1,-0.00068106,-0.0058197,0.0076165,-0.4353,-0.1679,-9.7151,0,0,45.385,1,1,755,999
10326,5.1651e+07,1,-9.7581e-05,-0.0046387,0.001778,-0.43684,-0.14895,-9.7052,0,0,45.385,1,1,755,999
10329,5.1654e+07,1,0.00090446,-0.0046139,-0.000152,-0.43325,-0.13703,-9.6942,0,0,45.385,1,1,755,999
10332,5.1659e+07,1,0.0015681,-0.0048633,-0.003047,-0.39705,-0.12139,-9.6864,0,0,45.385,1,1,755,999
10363,5.1661e+07,1,0.0016822,-0.0021856,0.00019549,-0.39504,-0.10237,-9.6781,0,0,45.385,1,1,755,999
10366,5.1664e+07,1,0.0017005,0.00057146,0.0023898,-0.40325,-0.085896,-9.7003,0,0,45.385,1,1,755,999
10370,5.1666e+07,1,0.00010981,0.0023033,0.0021925,-0.403,-0.073356,-9.7104,0,0,45.385,1,1,755,999
10373,5.1669e+07,1,-0.0019792,0.0036551,0.0013269,-0.40034,-0.061275,-9.7404,0,0,45.385,1,1,755,999
10404,5.1672e+07,1,-0.0032613,0.0025532,-0.00011107,-0.40414,-0.067788,-9.7682,0,0,45.386,1,1,755,999
10407,5.1674e+07,1,-0.0033968,0.0018243,-0.0029296,-0.4091,-0.084763,-9.8214,0,0,45.386,1,1,755,999
10410,5.1676e+07,1,-0.0028856,0.0010321,-0.0054594,-0.42404,-0.091955,-9.8477,0,0,45.386,1,1,755,999
10413,5.1679e+07,1,-0.0015301,-0.00098332,-0.006503,-0.45057,-0.10344,-9.8656,0,0,45.386,1,1,755,999
10444,5.1682e+07,1,-0.00095223,-0.0014111,-0.0066992,-0.46358,-0.10906,-9.8651,0,0,45.386,1,1,755,999
10447,5.1684e+07,1,-4.4806e-05,-0.0004696,-0.0073978,-0.47383,-0.11152,-9.8615,0,0,45.386,1,1,755,999
10451,5.1686e+07,1,0.00062367,6.033e-05,-0.0076024,-0.47669,-0.11294,-9.8514,0,0,45.386,1,1,755,999
10455,5.1689e+07,1,0.0013162,-0.0001336,-0.0073298,-0.47776,-0.11988,-9.8213,0,0,45.386,1,1,755,999
10486,5.1692e+07,1,0.00047811,-0.00077401,-0.005889,-0.47356,-0.12557,-9.7858,0,0,45.386,1,1,755,999
10489,5.1694e+07,1,-0.0016657,-0.0010581,-0.0043469,-0.45722,-0.13061,-9.75,0,0,45.386,1,1,755,999
10492,5.1697e+07,1,-0.00098773,-0.0019034,-0.0048557,-0.45207,-0.12395,-9.7281,0,0,45.386,1,1,755,999
10495,5.1699e+07,1,0.0015933,-0.0018827,-0.0039324,-0.43989,-0.10109,-9.6763,0,0,45.386,1,1,755,999
10526,5.1701e+07,1,0.0026788,-0.0039576,-0.001304,-0.43509,-0.091028,-9.6485,0,0,45.386,1,1,755,999
10529,5.1704e+07,1,0.0037981,-0.0039496,0.0033177,-0.44579,-0.08185,-9.6266,0,0,45.386,1,1,755,999
10533,5.1707e+07,1,0.0039374,-0.0030956,0.0056775,-0.46024,-0.084884,-9.6196,0,0,45.386,1,1,755,999
10536,5.1709e+07,1,0.00478,-0.0016608,0.0084735,-0.47463,-0.089547,-9.6207,0,0,45.386,1,1,755,999
10567,5.1712e+07,1,0.003968,-0.001932,0.0077711,-0.46949,-0.097952,-9.6359,0,0,45.386,1,1,755,999
10571,5.1714e+07,1,0.0016126,-0.0028128,0.005743,-0.45596,-0.10998,-9.6771,0,0,45.386,1,1,755,999
10579,5.1717e+07,1,0.00096281,-0.0027545,0.0017048,-0.44187,-0.12528,-9.6997,0,0,45.386,1,1,755,999
10582,5.1719e+07,1,0.00032533,-0.0028775,-0.0015229,-0.43315,-0.13645,-9.7176,0,0,45.386,1,1,755,999
10613,5.1722e+07,1,-0.0039353,-0.0036277,-0.0036139,-0.44245,-0.10154,-9.738,0,0,45.386,1,1,755,999
10616,5.1725e+07,1,-0.0085578,-0.0031986,-0.0050981,-0.46076,-0.062726,-9.7565,0,0,45.386,1,1,755,999
10619,5.1727e+07,1,-0.0078924,-0.00050942,-0.0025736,-0.46331,-0.025284,-9.7873,0,0,45.387,1,1,755,999
10622,5.1729e+07,1,-0.0043674,0.00062491,0.0023053,-0.45235,-0.019733,-9.8003,0,0,45.387,1,1,755,999
10653,5.1732e+07,1,-0.0015048,-0.0022,0.0061991,-0.42455,-0.021633,-9.8196,0,0,45.387,1,1,755,999
10656,5.1734e+07,1,-0.00061712,-0.003128,0.0076659,-0.3992,-0.032324,-9.8221,0,0,45.387,1,1,755,999
10660,5.1737e+07,1,0.0024234,0.0010231,0.008373,-0.36055,-0.053192,-9.8036,0,0,45.387,1,1,755,999
10663,5.174e+07,1,0.0033589,0.0029651,0.0078254,-0.34766,-0.062006,-9.7927,0,0,45.387,1,1,755,999
10694,5.1742e+07,1,0.0047902,0.0026096,0.0046773,-0.35704,-0.080414,-9.7822,0,0,45.387,1,1,755,999
10697,5.1745e+07,1,0.0051829,0.0025801,0.0027711,-0.36937,-0.092786,-9.7756,0,0,45.387,1,1,755,999
10700,5.1747e+07,1,0.0038322,0.0041054,-0.0012,-0.36999,-0.11161,-9.7702,0,0,45.387,1,1,755,999
10703,5.175e+07,1,0.00053209,0.0033792,-0.0043934,-0.36993,-0.13306,-9.7667,0,0,45.387,1,1,755,999
10734,5.1752e+07,1,-0.0014449,0.0025773,-0.005899,-0.36945,-0.17524,-9.764,0,0,45.387,1,1,755,999
10738,5.1757e+07,1,-0.00029424,-0.0021456,-0.0002209,-0.37576,-0.21612,-9.7602,0,0,45.387,1,1,755,999
10743,5.176e+07,1,-0.00063029,-0.0030776,0.00050022,-0.37644,-0.21855,-9.7606,0,0,45.387,1,1,755,999
10774,5.1765e+07,1,-0.0037462,-0.00016438,-0.0046463,-0.39566,-0.20492,-9.7992,0,0,45.387,1,1,755,999
10777,5.1768e+07,1,-0.0038035,-0.00092576,-0.0050491,-0.40228,-0.19023,-9.8201,0,0,45.387,1,1,755,999
10781,5.1771e+07,1,-0.004371,-0.0060188,-0.0039556,-0.40399,-0.16531,-9.8264,0,0,45.387,1,1,755,999
10812,5.1773e+07,1,-0.0057109,-0.0037725,-0.0031593,-0.4072,-0.13932,-9.7953,0,0,45.387,1,1,755,999
10815,5.1776e+07,1,-0.0051147,-0.0019365,-0.0033732,-0.41442,-0.11797,-9.7598,0,0,45.387,1,1,755,999
10818,5.1778e+07,1,-0.0013794,0.0011806,-0.00025706,-0.41818,-0.096972,-9.7077,0,0,45.387,1,1,755,999
10821,5.1781e+07,1,0.00031992,0.0020437,0.0023632,-0.4277,-0.091367,-9.6827,0,0,45.387,1,1,755,999
10854,5.1784e+07,1,0.00049128,0.0048962,0.0039683,-0.43375,-0.086098,-9.645,0,0,45.387,1,1,755,999
10857,5.1786e+07,1,-0.0028983,0.0093712,0.0020193,-0.42572,-0.08289,-9.6411,0,0,45.387,1,1,755,999
10860,5.1789e+07,1,-0.0040756,0.010474,0.0012779,-0.42107,-0.082848,-9.6474,0,0,45.387,1,1,755,999
10866,5.1792e+07,1,-0.0076234,0.0062757,-0.002905,-0.41444,-0.088172,-9.6842,0,0,45.387,1,1,755,999
10897,5.1795e+07,1,-0.0072159,-0.00042165,-0.0067119,-0.40884,-0.084831,-9.7304,0,0,45.387,1,1,755,999
10900,5.1797e+07,1,-0.0069409,-0.0040233,-0.009253,-0.40517,-0.081488,-9.7408,0,0,45.387,1,1,755,999
10903,5.1799e+07,1,-0.0062585,-0.0046163,-0.010454,-0.38898,-0.082086,-9.7126,0,0,45.387,1,1,755,999
10906,5.1803e+07,1,-0.0038307,-0.0046139,-0.0099625,-0.37013,-0.090302,-9.6658,0,0,45.387,1,1,755,999
10937,5.1805e+07,1,-0.0015209,-0.0037111,-0.0078473,-0.34519,-0.1025,-9.6336,0,0,45.388,1,1,755,999
10940,5.1807e+07,1,-0.00184,-0.0024145,-0.0043991,-0.32467,-0.11248,-9.6394,0,0,45.388,1,1,755,999
10943,5.181e+07,1,-0.0013309,-0.0015167,-8.1761e-06,-0.31055,-0.111,-9.6656,0,0,45.388,1,1,755,999
10947,5.1813e+07,1,-0.00093898,-0.00074068,0.0024391,-0.30964,-0.10559,-9.6872,0,0,45.388,1,1,755,999
10978,5.1815e+07,1,0.00096407,-0.00010647,0.0065098,-0.30927,-0.097111,-9.7113,0,0,45.388,1,1,755,999
10981,5.1818e+07,1,0.00061681,-0.00024764,0.0064877,-0.31637,-0.093164,-9.7142,0,0,45.388,1,1,755,999
10988,5.182e+07,1,-0.00032384,0.0011204,0.0040226,-0.33485,-0.089963,-9.712,0,0,45.388,1,1,755,999
10993,5.1822e+07,1,0.00064409,0.00049652,0.00048938,-0.34246,-0.088721,-9.698,0,0,45.388,1,1,755,999
11024,5.1825e+07,1,0.0021661,-0.00083067,-0.00097327,-0.35736,-0.079501,-9.6804,0,0,45.388,1,1,755,999
11027,5.1828e+07,1,0.0020586,-0.0015436,-0.00089599,-0.37206,-0.066188,-9.6925,0,0,45.388,1,1,755,999
11030,5.183e+07,1,-0.0017637,-0.0060004,-0.00023305,-0.39613,-0.035056,-9.7358,0,0,45.388,1,1,755,999
11033,5.1832e+07,1,-0.0032682,-0.0074475,0.0012949,-0.40363,-0.013684,-9.7558,0,0,45.388,1,1,755,999
11064,5.1835e+07,1,-0.00087575,-0.0040975,0.0032184,-0.39783,0.002084,-9.7701,0,0,45.388,1,1,755,999
11067,5.1837e+07,1,0.0013281,-0.0021346,0.0041478,-0.39718,0.001947,-9.7919,0,0,45.388,1,1,755,999
11070,5.184e+07,1,0.0035048,0.0032844,0.0024346,-0.38657,0.012377,-9.8156,0,0,45.388,1,1,755,999
11074,5.1843e+07,1,0.0036244,0.0044938,0.0012629,-0.3767,0.016723,-9.8327,0,0,45.388,1,1,755,999
11105,5.1845e+07,1,0.0023425,0.0062194,0.00025471,-0.36562,0.0059088,-9.8609,0,0,45.388,1,1,755,999
11108,5.1848e+07,1,0.00027246,0.0069294,-0.0019512,-0.35267,-0.012937,-9.8697,0,0,45.388,1,1,755,999
11111,5.185e+07,1,-0.0012933,0.0069567,-0.0023067,-0.34003,-0.025128,-9.8551,0,0,45.388,1,1,755,999
11114,5.1853e+07,1,-0.0037734,0.0049937,-0.00021057,-0.3332,-0.027438,-9.8453,0,0,45.388,1,1,755,999
11145,5.1856e+07,1,-0.003919,0.001366,6.7895e-05,-0.32099,-0.026015,-9.8582,0,0,45.388,1,1,755,999
11148,5.1858e+07,1,-0.0017761,-0.00030795,-0.0025608,-0.31392,-0.024701,-9.8933,0,0,45.388,1,1,755,999
11152,5.186e+07,1,-0.00056421,-0.00080691,-0.0010861,-0.3158,-0.023737,-9.9161,0,0,45.388,1,1,755,999
11156,5.1863e+07,1,0.00077914,-0.001358,0.0033223,-0.33571,-0.014939,-9.9467,0,0,45.388,1,1,755,999
11187,5.1871e+07,1,0.0033796,-0.0040398,0.0050069,-0.42887,-0.053941,-9.9051,0,0,45.388,1,1,755,999
11190,5.1873e+07,1,0.00074588,-0.0020253,0.0015498,-0.44898,-0.080351,-9.8647,0,0,45.388,1,1,755,999
11221,5.1876e+07,1,7.4571e-05,-0.00093883,-0.00021753,-0.46352,-0.10251,-9.8328,0,0,45.388,1,1,755,999
11225,5.1878e+07,1,-0.00034042,0.00069815,-0.0026915,-0.46849,-0.12718,-9.8245,0,0,45.388,1,1,755,999
11229,5.1881e+07,1,-0.0009348,0.001544,-0.0037793,-0.46509,-0.12774,-9.8115,0,0,45.388,1,1,755,999
11233,5.1883e+07,1,-0.0037492,0.0025223,-0.0043056,-0.45412,-0.1454,-9.7644,0,0,45.388,1,1,755,999
11264,5.1885e+07,1,-0.0053458,0.006398,-0.0047291,-0.44209,-0.1729,-9.7298,0,0,45.388,1,1,755,999
11267,5.1888e+07,1,-0.0066987,0.0081134,-0.0048337,-0.42056,-0.19142,-9.6805,0,0,45.388,1,1,755,999
11270,5.189e+07,1,-0.0071118,0.0081955,-0.0050517,-0.403,-0.18857,-9.6664,0,0,45.388,1,1,755,999
11274,5.1893e+07,1,-0.0043372,0.0057682,-0.0046857,-0.37601,-0.1642,-9.6614,0,0,45.388,1,1,755,999
11305,5.1896e+07,1,-0.0034412,0.0068603,-0.00055472,-0.37136,-0.15772,-9.66,0,0,45.388,1,1,755,999
11308,5.1899e+07,1,-0.004552,0.0068782,0.0015009,-0.36815,-0.15759,-9.6678,0,0,45.388,1,1,755,999
11312,5.1901e+07,1,-0.0040412,0.001873,0.00533,-0.36487,-0.15218,-9.6816,0,0,45.388,1,1,755,999
11316,5.1904e+07,1,-0.0023854,-0.00034145,0.0060209,-0.36698,-0.13609,-9.7082,0,0,45.388,1,1,755,999
11347,5.1906e+07,1,0.0009872,-0.0044364,0.0050029,-0.38109,-0.12718,-9.7471,0,0,45.388,1,1,755,999
11350,5.1909e+07,1,0.0032621,-0.0081557,0.0025343,-0.38245,-0.12158,-9.7808,0,0,45.388,1,1,755,999
11354,5.1911e+07,1,0.0035571,-0.0092568,0.00080707,-0.38497,-0.11049,-9.8164,0,0,45.388,1,1,755,999
11358,5.1914e+07,1,0.003955,-0.0078727,0.00070982,-0.38728,-0.11341,-9.8316,0,0,45.389,1,1,755,999
11389,5.1916e+07,1,0.00264,-0.0067969,0.0031577,-0.4003,-0.11563,-9.8531,0,0,45.389,1,1,755,999
11392,5.1919e+07,1,0.0010714,-0.0035604,0.0073835,-0.40389,-0.11597,-9.8794,0,0,45.389,1,1,755,999
11399,5.1922e+07,1,0.00015184,-0.0020401,0.0096269,-0.40938,-0.11719,-9.8885,0,0,45.389,1,1,755,999
11402,5.1924e+07,1,-0.00021745,-0.001461,0.0099696,-0.4217,-0.11033,-9.8843,0,0,45.389,1,1,755,999
11433,5.1926e+07,1,-0.0017264,0.00010156,0.007255,-0.43955,-0.089571,-9.864,0,0,45.389,1,1,755,999
11436,5.1929e+07,1,-0.0036537,0.0008603,0.001868,-0.43307,-0.067817,-9.8325,0,0,45.389,1,1,755,999
11439,5.1932e+07,1,-0.0044628,0.0010082,-0.0010575,-0.40903,-0.038394,-9.7974,0,0,45.389,1,1,755,999
11443,5.1934e+07,1,-0.0042491,0.00067165,-0.0031585,-0.39373,-0.024874,-9.7927,0,0,45.389,1,1,755,999
11474,5.1936e+07,1,-0.0035719,0.00046915,-0.0016842,-0.37267,-0.012648,-9.7815,0,0,45.389,1,1,755,999
11477,5.1939e+07,1,-0.0040084,-6.9213e-06,0.00070049,-0.37549,-0.022097,-9.7593,0,0,45.389,1,1,755,999
11480,5.1942e+07,1,-0.0032863,-0.0001744,0.0045367,-0.37818,-0.034805,-9.7418,0,0,45.389,1,1,755,999
11483,5.1944e+07,1,-0.0026296,-0.00094886,0.0070435,-0.37476,-0.041023,-9.7283,0,0,45.389,1,1,755,999
11514,5.1947e+07,1,-0.0043483,-0.0016156,0.0056105,-0.36894,-0.028729,-9.7015,0,0,45.389,1,1,755,999
11519,5.1949e+07,1,-0.0045089,-0.0016077,0.0023842,-0.36964,-0.026036,-9.6935,0,0,45.389,1,1,755,999
11522,5.1951e+07,1,-0.0038824,-0.0012527,0.0018827,-0.37138,-0.030759,-9.7047,0,0,45.389,1,1,755,999
11526,5.1954e+07,1,-0.0035527,-0.00075906,0.0022304,-0.37149,-0.042422,-9.7214,0,0,45.389,1,1,755,999
11557,5.1957e+07,1,-0.0046261,0.00018059,0.0019368,-0.37396,-0.059001,-9.7456,0,0,45.389,1,1,755,999
11560,5.1959e+07,1,-0.0082972,0.0019568,0.00056552,-0.38025,-0.072517,-9.759,0,0,45.389,1,1,755,999
11563,5.1962e+07,1,-0.0075601,0.0017611,0.0015789,-0.38811,-0.088018,-9.7725,0,0,45.389,1,1,755,999
11567,5.1964e+07,1,-0.0041768,-0.00096281,0.0059033,-0.40267,-0.10521,-9.7756,0,0,45.389,1,1,755,999
11598,5.1966e+07,1,-0.0037372,-0.0031521,0.0095533,-0.43364,-0.13177,-9.7745,0,0,45.389,1,1,755,999
11601,5.1969e+07,1,-0.0035112,-0.0033858,0.0099813,-0.44904,-0.13831,-9.7663,0,0,45.389,1,1,755,999
11604,5.1975e+07,1,0.0010492,0.00018131,0.0081026,-0.44483,-0.12014,-9.7421,0,0,45.389,1,1,755,999
11609,5.1977e+07,1,0.0010961,0.0010449,0.0081972,-0.42474,-0.11915,-9.7273,0,0,45.389,1,1,755,999
11640,5.1979e+07,1,0.00098323,0.00030945,0.0077266,-0.39603,-0.12406,-9.7168,0,0,45.389,1,1,755,999
11643,5.1983e+07,1,0.00060542,-0.0021382,0.005828,-0.37207,-0.12065,-9.7297,0,0,45.389,1,1,755,999
11646,5.1985e+07,1,-0.0001986,-0.0025303,0.0045939,-0.36004,-0.1144,-9.7486,0,0,45.389,1,1,755,999
11649,5.1987e+07,1,-0.0015093,-0.0011374,0.0023788,-0.35434,-0.1216,-9.7621,0,0,45.389,1,1,755,999
11680,5.199e+07,1,-0.00052904,-0.00061087,0.0010579,-0.35176,-0.13507,-9.7454,0,0,45.389,1,1,755,999
11684,5.1993e+07,1,0.00075018,-0.00026745,-0.00012394,-0.36498,-0.14227,-9.7322,0,0,45.389,1,1,755,999
11688,5.1995e+07,1,0.0032538,-0.0025934,-0.002949,-0.38847,-0.12604,-9.6934,0,0,45.389,1,1,755,999
11691,5.1997e+07,1,0.0023776,-0.0032509,-0.0029402,-0.39542,-0.11665,-9.6661,0,0,45.389,1,1,755,999
11722,5.2e+07,1,-0.0027217,-0.0036443,-0.0046876,-0.40566,-0.12905,-9.6389,0,0,45.389,1,1,755,999
11726,5.2003e+07,1,-0.0025862,-0.0026095,-0.0055909,-0.4118,-0.13111,-9.6295,0,0,45.389,1,1,755,999
11729,5.2006e+07,1,0.00059528,0.00057235,-0.0057056,-0.41332,-0.12966,-9.6221,0,0,45.389,1,1,755,999
11732,5.2008e+07,1,0.0043488,0.0018034,-0.0039454,-0.41531,-0.13256,-9.6181,0,0,45.389,1,1,755,999
11763,5.201e+07,1,0.0057931,-0.0010201,-0.0018471,-0.41185,-0.14259,-9.6152,0,0,45.389,1,1,755,999
11766,5.2013e+07,1,0.0053048,-0.0029391,-0.0012166,-0.41213,-0.14921,-9.6292,0,0,45.389,1,1,755,999
11769,5.2015e+07,1,0.0046562,-0.0032526,-0.0017475,-0.41381,-0.15212,-9.6587,0,0,45.389,1,1,755,999
11773,5.2018e+07,1,0.0050449,-0.0031282,-0.0020264,-0.42261,-0.15455,-9.6852,0,0,45.389,1,1,755,999
11804,5.202e+07,1,0.0068925,-0.0032527,-0.00363,-0.43782,-0.14979,-9.7097,0,0,45.389,1,1,755,999
11812,5.2023e+07,1,0.0065065,-0.0022961,-0.0032317,-0.43862,-0.13615,-9.7212,0,0,45.389,1,1,755,999
11815,5.2025e+07,1,0.0050218,-0.0011857,-0.00037212,-0.43967,-0.10331,-9.7439,0,0,45.389,1,1,755,999
11818,5.2028e+07,1,0.0032732,-0.0012018,0.00062995,-0.44023,-0.087174,-9.7623,0,0,45.389,1,1,755,999
11850,5.2031e+07,1,0.001653,-0.00077508,-0.00034754,-0.42878,-0.064102,-9.8119,0,0,45.389,1,1,755,999
11853,5.2033e+07,1,0.00072267,-0.0017817,0.00023857,-0.41556,-0.04747,-9.8348,0,0,45.389,1,1,755,999
11856,5.2035e+07,1,0.0016593,-0.0036065,0.0021596,-0.39816,-0.032851,-9.841,0,0,45.389,1,1,755,999
11859,5.2037e+07,1,0.0019298,-0.0042757,0.0030215,-0.39402,-0.029443,-9.8256,0,0,45.389,1,1,755,999
11890,5.2041e+07,1,0.00059932,-0.0051034,0.0062842,-0.39395,-0.026592,-9.7989,0,0,45.389,1,1,755,999
11894,5.2043e+07,1,0.00043931,-0.0050794,0.0053961,-0.39488,-0.024684,-9.7858,0,0,45.389,1,1,755,999
11897,5.2045e+07,1,-0.00064303,-0.0030118,0.00062456,-0.38763,-0.036116,-9.7422,0,0,45.389,1,1,755,999
11900,5.2047e+07,1,-0.0015981,-0.0025622,-0.00047779,-0.38317,-0.053162,-9.6966,0,0,45.389,1,1,755,999
11931,5.205e+07,1,-0.0035069,-0.0025114,-0.00084734,-0.38689,-0.070846,-9.6369,0,0,45.389,1,1,755,999
11934,5.2053e+07,1,-0.0046305,-0.0019283,0.00039018,-0.39513,-0.07942,-9.605,0,0,45.389,1,1,755,999
11937,5.2055e+07,1,-0.006709,-0.00081605,0.0018375,-0.40934,-0.1074,-9.5839,0,0,45.389,1,1,755,999
11940,5.2058e+07,1,-0.0073465,0.00071625,0.0021524,-0.41385,-0.12086,-9.5905,0,0,45.389,1,1,755,999
11971,5.206e+07,1,-0.0050703,-0.0012375,0.0028419,-0.42292,-0.1158,-9.6176,0,0,45.389,1,1,755,999
11975,5.2063e+07,1,-0.0015245,-0.0032726,0.0014751,-0.42318,-0.097547,-9.6047,0,0,45.389,1,1,755,999
11978,5.2066e+07,1,0.001296,-0.0060792,-0.0010515,-0.41868,-0.081536,-9.5979,0,0,45.389,1,1,755,999
11982,5.2072e+07,1,0.002531,-0.0051191,-0.0055137,-0.43384,-0.067892,-9.6292,0,0,45.39,1,1,755,999
11986,5.2073e+07,1,0.00089419,-0.0061525,-0.0043093,-0.44606,-0.061684,-9.6291,0,0,45.39,1,1,755,999
12017,5.2076e+07,1,-0.0013542,-0.0087651,-0.0019114,-0.45236,-0.055486,-9.633,0,0,45.39,1,1,755,999
12020,5.2079e+07,1,-0.0031281,-0.0089308,-0.0015377,-0.44704,-0.058035,-9.6305,0,0,45.39,1,1,755,999
12023,5.2081e+07,1,-0.0096809,-0.003561,-0.0055629,-0.43937,-0.058796,-9.6239,0,0,45.39,1,1,755,999
12026,5.2084e+07,1,-0.011412,-0.00096438,-0.0064122,-0.43998,-0.061852,-9.6238,0,0,45.39,1,1,755,999
12057,5.2087e+07,1,-0.012447,0.0029123,-0.0058042,-0.45556,-0.077744,-9.6434,0,0,45.39,1,1,755,999
12061,5.2089e+07,1,-0.0068032,0.0031022,-0.0046921,-0.46241,-0.077607,-9.6706,0,0,45.39,1,1,755,999
12064,5.2092e+07,1,-0.005241,0.0024222,-0.004873,-0.47085,-0.079463,-9.6817,0,0,45.39,1,1,755,999
12068,5.2094e+07,1,-0.0036434,0.0016075,-0.00671,-0.47476,-0.083169,-9.6732,0,0,45.39,1,1,755,999
12099,5.2097e+07,1,-0.0054791,-0.00073715,-0.010552,-0.46217,-0.085219,-9.6918,0,0,45.39,1,1,755,999
12102,5.21e+07,1,-0.005856,-0.0021517,-0.011847,-0.45418,-0.086976,-9.7156,0,0,45.39,1,1,755,999
12105,5.2102e+07,1,-0.0033729,-0.0027536,-0.010666,-0.44944,-0.089813,-9.7486,0,0,45.39,1,1,755,999
12108,5.2105e+07,1,-0.0036717,-0.002113,-0.0099062,-0.44578,-0.095616,-9.7752,0,0,45.39,1,1,755,999
12139,5.2108e+07,1,-0.0075752,-0.001199,-0.0099563,-0.44236,-0.10723,-9.7817,0,0,45.39,1,1,755,999
12143,5.211e+07,1,-0.011854,-6.4397e-05,-0.011261,-0.4449,-0.10816,-9.7609,0,0,45.39,1,1,755,999
12146,5.2112e+07,1,-0.011047,0.0024678,-0.01093,-0.44943,-0.10478,-9.7267,0,0,45.39,1,1,755,999
12150,5.2114e+07,1,-0.0076383,0.0062854,-0.009059,-0.46344,-0.098758,-9.6851,0,0,45.39,1,1,755,999
12181,5.2117e+07,1,-0.0044451,0.0072081,-0.0063891,-0.44866,-0.092189,-9.6644,0,0,45.39,1,1,755,999
12184,5.212e+07,1,-0.0032001,0.0069591,-0.0051814,-0.43486,-0.094344,-9.6437,0,0,45.39,1,1,755,999
12187,5.2122e+07,1,0.0016831,0.0062142,-0.00071967,-0.42191,-0.093637,-9.6238,0,0,45.39,1,1,755,999
12195,5.2125e+07,1,0.0029076,0.0051366,0.0011793,-0.41389,-0.094277,-9.6206,0,0,45.39,1,1,755,999
12228,5.2127e+07,1,0.0030542,0.00094629,0.0023671,-0.40116,-0.099911,-9.6101,0,0,45.39,1,1,755,999
12231,5.213e+07,1,0.0024618,-0.0029584,-0.00057428,-0.39522,-0.098638,-9.6086,0,0,45.39,1,1,755,999
12234,5.2133e+07,1,0.0044395,-0.005172,-0.0018047,-0.3897,-0.099804,-9.614,0,0,45.39,1,1,755,999
12238,5.2135e+07,1,0.0068186,-0.005441,-0.0014171,-0.3866,-0.095966,-9.6114,0,0,45.39,1,1,755,999
12269,5.2138e+07,1,0.0072456,-0.0057469,-0.0014798,-0.37793,-0.080654,-9.6149,0,0,45.39,1,1,755,999
12272,5.214e+07,1,0.0061687,-0.0055146,0.00022054,-0.37002,-0.067359,-9.6268,0,0,45.39,1,1,755,999
12275,5.2143e+07,1,0.003161,-0.0042316,0.00077995,-0.35692,-0.062326,-9.6344,0,0,45.39,1,1,755,999
12279,5.2145e+07,1,0.0020526,-0.003023,-9.6947e-05,-0.35249,-0.071517,-9.6356,0,0,45.39,1,1,755,999
12310,5.2148e+07,1,0.0034431,0.00024,-0.0031305,-0.36317,-0.096943,-9.6429,0,0,45.39,1,1,755,999
12313,5.215e+07,1,0.0047331,-0.00089154,-0.0028099,-0.37387,-0.10894,-9.6639,0,0,45.39,1,1,755,999
12316,5.2152e+07,1,0.0043371,-0.0029424,-0.0016638,-0.38927,-0.11236,-9.7039,0,0,45.39,1,1,755,999
12319,5.2155e+07,1,0.0014045,-0.0067602,0.0011904,-0.39905,-0.11525,-9.722,0,0,45.39,1,1,755,999
12350,5.2157e+07,1,-0.00038787,-0.0093341,0.0043166,-0.40339,-0.12818,-9.7283,0,0,45.39,1,1,755,999
12353,5.216e+07,1,-0.002485,-0.012053,0.0060397,-0.39485,-0.13229,-9.7459,0,0,45.39,1,1,755,999
12356,5.2163e+07,1,-0.0048324,-0.011933,0.0038085,-0.39997,-0.1311,-9.7603,0,0,45.39,1,1,755,999
12360,5.2166e+07,1,-0.0050402,-0.008678,0.0030134,-0.41415,-0.11973,-9.785,0,0,45.39,1,1,755,999
12391,5.2171e+07,1,0.0017796,-0.0036891,0.0029694,-0.45311,-0.1152,-9.7809,0,0,45.39,1,1,755,999
12394,5.2174e+07,1,0.002947,-0.0036475,0.0033308,-0.4738,-0.11063,-9.7613,0,0,45.39,1,1,755,999
12397,5.2179e+07,1,0.00146,-0.0072786,0.0034909,-0.46527,-0.070774,-9.7178,0,0,45.39,1,1,755,999
12430,5.2182e+07,1,0.0020408,-0.0089902,0.0017704,-0.45229,-0.055431,-9.7094,0,0,45.39,1,1,755,999
12433,5.2184e+07,1,0.0030104,-0.014142,-0.00061634,-0.43014,-0.030051,-9.713,0,0,45.39,1,1,755,999
12437,5.2187e+07,1,0.0020193,-0.014424,-0.00074686,-0.40672,-0.025784,-9.7185,0,0,45.39,1,1,755,999
12440,5.2189e+07,1,0.00076598,-0.013705,-3.4861e-05,-0.37651,-0.02877,-9.7193,0,0,45.39,1,1,755,999
12471,5.2192e+07,1,0.0010137,-0.011275,0.0012321,-0.36476,-0.038815,-9.7213,0,0,45.39,1,1,755,999
12474,5.2194e+07,1,0.0026225,-0.0094992,0.0039271,-0.36502,-0.053792,-9.7246,0,0,45.39,1,1,755,999
12478,5.2197e+07,1,0.0044852,-0.0082589,0.0072771,-0.37612,-0.055238,-9.7324,0,0,45.39,1,1,755,999
12482,5.2199e+07,1,0.005038,-0.0059923,0.0088292,-0.39282,-0.066375,-9.7335,0,0,45.39,1,1,755,999
12513,5.2202e+07,1,0.0046257,-0.0051401,0.0083728,-0.39971,-0.082243,-9.7242,0,0,45.39,1,1,755,999
12516,5.2205e+07,1,0.0057237,-0.001778,0.001272,-0.41112,-0.11851,-9.7103,0,0,45.39,1,1,755,999
12519,5.2206e+07,1,0.0068489,-0.00027928,-0.00051696,-0.41609,-0.12853,-9.7007,0,0,45.39,1,1,755,999
12523,5.2209e+07,1,0.0070726,0.0024489,7.611e-05,-0.41302,-0.11804,-9.6897,0,0,45.39,1,1,755,999
12554,5.2212e+07,1,0.0088733,0.0024396,0.0050029,-0.41133,-0.10584,-9.6827,0,0,45.39,1,1,755,999
12557,5.2215e+07,1,0.010214,0.0021958,0.0062102,-0.41881,-0.10782,-9.6769,0,0,45.39,1,1,755,999
12561,5.2217e+07,1,0.008508,0.0017742,0.0065614,-0.43423,-0.11352,-9.6799,0,0,45.39,1,1,755,999
12564,5.222e+07,1,0.0061757,0.00099109,0.0064034,-0.43853,-0.10951,-9.7017,0,0,45.39,1,1,755,999
12595,5.2222e+07,1,0.0016836,0.00052192,0.0046354,-0.43984,-0.098343,-9.7416,0,0,45.391,1,1,755,999
12598,5.2225e+07,1,-0.004956,-0.00086529,-0.0021415,-0.44238,-0.093006,-9.7548,0,0,45.391,1,1,755,999
12605,5.2228e+07,1,-0.0053818,-0.0010859,-0.0042787,-0.44096,-0.10079,-9.7631,0,0,45.391,1,1,755,999
12608,5.223e+07,1,-0.0036913,-0.00027132,-0.0066618,-0.44041,-0.12159,-9.7528,0,0,45.391,1,1,755,999
12639,5.2233e+07,1,-0.0016337,0.0016621,-0.0080623,-0.43487,-0.12855,-9.7481,0,0,45.391,1,1,755,999
12642,5.2235e+07,1,-0.00078487,0.0020212,-0.0084086,-0.44348,-0.12989,-9.7417,0,0,45.391,1,1,755,999
12646,5.2238e+07,1,0.0010177,0.0016613,-0.0065838,-0.46046,-0.13569,-9.7446,0,0,45.391,1,1,755,999
12649,5.224e+07,1,0.0039333,-6.2314e-05,-0.0051812,-0.46784,-0.13264,-9.743,0,0,45.391,1,1,755,999
12680,5.2243e+07,1,0.0043744,-0.0014565,-0.0035008,-0.47524,-0.12357,-9.7264,0,0,45.391,1,1,755,999
12683,5.2245e+07,1,0.0033519,-0.0051205,-0.0003462,-0.47377,-0.1051,-9.7264,0,0,45.391,1,1,755,999
12687,5.2248e+07,1,0.0027421,-0.0089196,-0.00014909,-0.46924,-0.08123,-9.7341,0,0,45.391,1,1,755,999
12690,5.225e+07,1,0.0022675,-0.0097049,-0.0015814,-0.46372,-0.049217,-9.7467,0,0,45.391,1,1,755,999
12721,5.2253e+07,1,-0.0014257,-0.0069863,-0.0040578,-0.46287,-0.016145,-9.7709,0,0,45.391,1,1,755,999
12724,5.2256e+07,1,-0.0030568,-0.0046272,-0.0033254,-0.4607,-0.0015311,-9.7977,0,0,45.391,1,1,755,999
12728,5.2258e+07,1,-0.0042236,-0.0011068,-0.00097999,-0.4526,0.006198,-9.8216,0,0,45.391,1,1,755,999
12731,5.226e+07,1,-0.0036705,-0.0013518,-0.00085856,-0.43379,0.016284,-9.8462,0,0,45.391,1,1,755,999
12762,5.2263e+07,1,-0.002669,-0.0026924,-0.00069349,-0.41111,0.03009,-9.8434,0,0,45.391,1,1,755,999
12765,5.2266e+07,1,-0.00052492,-0.0045949,2.4332e-06,-0.39614,0.027721,-9.8346,0,0,45.391,1,1,755,999
12768,5.227e+07,1,0.0040998,-0.00057649,0.0056481,-0.38053,-0.0044966,-9.8228,0,0,45.391,1,1,755,999
12799,5.2276e+07,1,0.0014169,0.0010007,0.0051207,-0.38645,-0.010968,-9.8284,0,0,45.391,1,1,755,999
12803,5.2278e+07,1,0.00046095,-0.0019648,0.005515,-0.39093,-0.023576,-9.8308,0,0,45.391,1,1,755,999
12806,5.2281e+07,1,0.00029947,-0.0034469,0.0059528,-0.38921,-0.062545,-9.8027,0,0,45.391,1,1,755,999
12839,5.2283e+07,1,0.00075984,-0.0068402,0.0065719,-0.37889,-0.098249,-9.7642,0,0,45.391,1,1,755,999
12842,5.2287e+07,1,0.002675,-0.012684,0.0094253,-0.36897,-0.12874,-9.7482,0,0,45.391,1,1,755,999
12846,5.2289e+07,1,0.0025749,-0.01329,0.010149,-0.35778,-0.14262,-9.7395,0,0,45.391,1,1,755,999
12849,5.2291e+07,1,0.00018309,-0.011251,0.0086471,-0.32669,-0.16959,-9.7435,0,0,45.391,1,1,755,999
12880,5.2294e+07,1,6.8449e-05,-0.0047823,0.0017325,-0.29276,-0.17679,-9.7611,0,0,45.391,1,1,755,999
12883,5.2296e+07,1,0.0015024,-0.0035937,0.00021275,-0.28193,-0.16127,-9.7742,0,0,45.391,1,1,755,999
12886,5.23e+07,1,0.0021688,-0.003137,0.00096545,-0.28156,-0.13939,-9.7902,0,0,45.391,1,1,755,999
12890,5.2302e+07,1,0.0020234,-0.002765,0.0022917,-0.28889,-0.11856,-9.8102,0,0,45.391,1,1,755,999
12921,5.2305e+07,1,0.0019136,-0.0011128,0.0028892,-0.29631,-0.091631,-9.8215,0,0,45.391,1,1,755,999
12925,5.2307e+07,1,0.00072396,0.001368,0.0036519,-0.29224,-0.071383,-9.8293,0,0,45.391,1,1,755,999
12929,5.2309e+07,1,0.0014563,0.0020699,0.0027888,-0.2979,-0.048981,-9.8629,0,0,45.391,1,1,755,999
12932,5.2312e+07,1,0.0035564,0.0013189,0.00037529,-0.30306,-0.049085,-9.8752,0,0,45.391,1,1,755,999
12963,5.2315e+07,1,0.0041727,-0.0020084,-0.0004001,-0.31603,-0.043795,-9.8581,0,0,45.391,1,1,755,999
12966,5.2317e+07,1,0.0039046,-0.002777,0.0002617,-0.32262,-0.058664,-9.8429,0,0,45.391,1,1,755,999
12969,5.232e+07,1,0.0026985,-0.0028134,0.00067319,-0.33078,-0.078766,-9.8432,0,0,45.391,1,1,755,999
12972,5.2323e+07,1,0.0012335,-0.0032189,9.8357e-05,-0.33897,-0.079445,-9.8457,0,0,45.391,1,1,755,999
13003,5.2325e+07,1,6.5084e-05,-0.0038266,-0.00028247,-0.34892,-0.072523,-9.8512,0,0,45.391,1,1,755,999
13006,5.2328e+07,1,-0.0011375,-0.0024602,-0.00086805,-0.36257,-0.081394,-9.8467,0,0,45.391,1,1,755,999
13014,5.233e+07,1,-0.0026001,0.00013495,-0.0031993,-0.38439,-0.089514,-9.826,0,0,45.391,1,1,755,999
13017,5.2333e+07,1,-0.0038742,0.0029845,-0.0053505,-0.39073,-0.090138,-9.8184,0,0,45.391,1,1,755,999
13048,5.2336e+07,1,-0.0027648,0.004255,-0.005966,-0.39386,-0.096547,-9.8119,0,0,45.391,1,1,755,999
13051,5.2338e+07,1,-0.0018662,0.0035322,-0.0059047,-0.39564,-0.10581,-9.795,0,0,45.391,1,1,755,999
13054,5.2341e+07,1,-0.0014621,-0.00052903,-0.004696,-0.40445,-0.11497,-9.7698,0,0,45.391,1,1,755,999
13058,5.2343e+07,1,-0.00132,-0.00062965,-0.0028365,-0.4144,-0.12175,-9.7602,0,0,45.391,1,1,755,999
13089,5.2346e+07,1,0.0011808,-0.00056514,-0.00025256,-0.42064,-0.12508,-9.7499,0,0,45.391,1,1,755,999
13092,5.2349e+07,1,0.0041133,-0.0014,-0.00045995,-0.4275,-0.1216,-9.7518,0,0,45.391,1,1,755,999
13096,5.2351e+07,1,0.004544,-0.0015856,-0.00056953,-0.43443,-0.11924,-9.7681,0,0,45.391,1,1,755,999
13099,5.2353e+07,1,0.0047399,-0.00097067,0.0012325,-0.4404,-0.11205,-9.7934,0,0,45.391,1,1,755,999
13130,5.2356e+07,1,0.005637,-6.4269e-05,0.0050903,-0.43672,-0.11369,-9.8064,0,0,45.391,1,1,755,999
13133,5.2358e+07,1,0.0062561,-0.0020906,0.0054107,-0.42541,-0.11434,-9.7973,0,0,45.391,1,1,755,999
13137,5.2361e+07,1,0.0065425,-0.0059347,0.0039428,-0.41393,-0.12013,-9.7832,0,0,45.391,1,1,755,999
13140,5.2364e+07,1,0.0049106,-0.0062627,0.0036355,-0.40501,-0.13974,-9.7708,0,0,45.391,1,1,755,999
13143,5.2366e+07,1,0.00086518,-0.0058059,0.004736,-0.38855,-0.14567,-9.783,0,0,45.391,1,1,755,999
13174,5.2369e+07,1,0.00049362,-0.0046139,0.0047512,-0.38539,-0.13883,-9.7995,0,0,45.391,1,1,755,999
13177,5.2371e+07,1,0.001624,-0.0047674,0.0046891,-0.38549,-0.12664,-9.8161,0,0,45.391,1,1,755,999
13180,5.2373e+07,1,0.0035822,-0.0062102,0.0043222,-0.39177,-0.11585,-9.8215,0,0,45.391,1,1,755,999
13183,5.2376e+07,1,0.0024185,-0.0061832,0.0043514,-0.40542,-0.10754,-9.8095,0,0,45.39,1,1,755,999
13186,5.2381e+07,1,-0.0025822,-0.0059993,0.0041458,-0.40974,-0.042441,-9.7529,0,0,45.39,1,1,755,999
13218,5.2383e+07,1,-0.0058315,-0.0069747,0.00076642,-0.40172,-0.015948,-9.7303,0,0,45.39,1,1,755,999
13223,5.2386e+07,1,-0.0058949,-0.0079337,0.00018202,-0.39518,-0.0074462,-9.7131,0,0,45.39,1,1,755,999
13226,5.2389e+07,1,-0.0030445,-0.01052,0.0028682,-0.39351,-0.012833,-9.6916,0,0,45.39,1,1,755,999
13229,5.2391e+07,1,-0.002543,-0.010776,0.0031596,-0.39333,-0.018223,-9.6799,0,0,45.39,1,1,755,999
13260,5.2394e+07,1,-0.0035011,-0.0081116,0.00070723,-0.39032,-0.032688,-9.6579,0,0,45.39,1,1,755,999
13264,5.2396e+07,1,-0.0024597,-0.0076578,-0.0024988,-0.39784,-0.048411,-9.6577,0,0,45.39,1,1,755,999
13267,5.2399e+07,1,-0.001067,-0.0075432,-0.0028294,-0.40482,-0.065582,-9.6636,0,0,45.39,1,1,755,999
13270,5.2401e+07,1,0.0028226,-0.0060133,-0.0031813,-0.42223,-0.096102,-9.6881,0,0,45.39,1,1,755,999
13301,5.2404e+07,1,0.0039578,-0.0033043,-0.0038648,-0.42699,-0.10682,-9.7252,0,0,45.39,1,1,755,999
13304,5.2406e+07,1,0.0042221,-0.0025008,-0.0035696,-0.4258,-0.10831,-9.7334,0,0,45.39,1,1,755,999
13308,5.2409e+07,1,0.0046063,-0.0030864,-0.0030965,-0.42045,-0.11648,-9.7414,0,0,45.39,1,1,755,999
13312,5.2412e+07,1,0.0025405,-0.005942,-0.0033586,-0.40562,-0.13806,-9.7451,0,0,45.39,1,1,755,999
13343,5.2414e+07,1,-0.0012589,-0.0051828,-0.0034059,-0.39567,-0.14458,-9.7505,0,0,45.39,1,1,755,999
13347,5.2417e+07,1,-0.0042459,-0.0038459,-0.00058042,-0.38852,-0.14681,-9.7545,0,0,45.39,1,1,755,999
13350,5.2419e+07,1,-0.0054902,-0.0015762,-0.00026174,-0.37423,-0.15659,-9.7393,0,0,45.39,1,1,755,999
13353,5.2422e+07,1,-0.0043709,0.0036328,-0.0029867,-0.36515,-0.16967,-9.7259,0,0,45.39,1,1,755,999
13384,5.2425e+07,1,-0.0028581,0.0070941,-0.0077203,-0.35164,-0.18162,-9.7079,0,0,45.39,1,1,755,999
13387,5.2427e+07,1,-0.0028402,0.0074355,-0.011132,-0.34022,-0.18458,-9.6925,0,0,45.39,1,1,755,999
13390,5.2429e+07,1,-0.0028686,0.003206,-0.017699,-0.32156,-0.17993,-9.6768,0,0,45.39,1,1,755,999
13397,5.2433e+07,1,-0.0016683,-0.00095973,-0.016759,-0.31361,-0.16955,-9.6676,0,0,45.39,1,1,755,999
13400,5.2434e+07,1,0.0012159,-0.012013,-0.0057929,-0.31897,-0.15146,-9.6604,0,0,45.39,1,1,755,999
13432,5.2437e+07,1,0.00021268,-0.012861,0.0019776,-0.32432,-0.13817,-9.6517,0,0,45.39,1,1,755,999
13435,5.2439e+07,1,-0.00094577,-0.01189,0.003731,-0.32813,-0.12887,-9.6462,0,0,45.39,1,1,755,999
13438,5.2442e+07,1,-0.0040206,-0.0081586,0.0031499,-0.33194,-0.11155,-9.6618,0,0,45.389,1,1,755,999
13441,5.2445e+07,1,-0.0046164,-0.0043041,0.00063873,-0.33662,-0.075427,-9.6991,0,0,45.389,1,1,755,999
13472,5.2447e+07,1,-0.0040142,-0.0010044,0.0010746,-0.33241,-0.05327,-9.7191,0,0,45.389,1,1,755,999
13476,5.245e+07,1,-0.0034211,0.0018408,0.0051963,-0.33128,-0.039779,-9.7187,0,0,45.389,1,1,755,999
13479,5.2452e+07,1,-0.00092099,0.0015345,0.0076977,-0.3418,-0.020482,-9.7308,0,0,45.389,1,1,755,999
13482,5.2454e+07,1,0.0010126,0.0016392,0.0076232,-0.34871,-0.015714,-9.7525,0,0,45.389,1,1,755,999
13514,5.2458e+07,1,-3.1499e-05,0.0025326,0.0068358,-0.35745,-0.031443,-9.77,0,0,45.389,1,1,755,999
13517,5.246e+07,1,-0.0015848,0.0027023,0.0057596,-0.36366,-0.05483,-9.7667,0,0,45.389,1,1,755,999
13521,5.2463e+07,1,-0.0038128,0.0042935,0.001744,-0.37531,-0.1063,-9.7723,0,0,45.389,1,1,755,999
13524,5.2464e+07,1,-0.0025282,0.0056432,0.00067488,-0.39034,-0.13612,-9.7834,0,0,45.389,1,1,755,999
13555,5.2467e+07,1,0.00068615,0.0072769,-5.4568e-06,-0.40568,-0.17079,-9.7981,0,0,45.389,1,1,755,999
13559,5.247e+07,1,0.0035853,0.0050042,-0.0010388,-0.40011,-0.18787,-9.789,0,0,45.389,1,1,755,999
13562,5.2473e+07,1,0.0046705,0.00051356,-0.0012442,-0.39729,-0.19613,-9.7817,0,0,45.389,1,1,755,999
13565,5.2475e+07,1,0.0016272,-0.0010041,-0.00026063,-0.38963,-0.19332,-9.7879,0,0,45.389,1,1,755,999
13596,5.248e+07,1,0.0030229,0.0028053,-0.00086929,-0.3682,-0.16141,-9.7942,0,0,45.389,1,1,755,999
13600,5.2485e+07,1,0.0045734,0.003159,0.0070728,-0.3441,-0.13882,-9.7624,0,0,45.388,1,1,755,999
13631,5.2488e+07,1,0.0045596,0.0043156,0.0090647,-0.33467,-0.11985,-9.7606,0,0,45.388,1,1,755,999
13634,5.249e+07,1,0.0031548,0.0042194,0.0084516,-0.32724,-0.1088,-9.7545,0,0,45.388,1,1,755,999
13637,5.2493e+07,1,0.00062784,0.0047005,0.0062971,-0.31625,-0.083814,-9.7291,0,0,45.388,1,1,755,999
13640,5.2495e+07,1,-0.0029727,0.0033988,0.0019845,-0.32075,-0.060141,-9.7071,0,0,45.388,1,1,755,999
13671,5.2498e+07,1,-0.0028057,0.0010428,-0.00080247,-0.33833,-0.030377,-9.6814,0,0,45.388,1,1,755,999
13674,5.2501e+07,1,-0.0012607,-0.00058261,-0.00091817,-0.34765,-0.027558,-9.6808,0,0,45.388,1,1,755,999
13678,5.2503e+07,1,0.0022661,-0.0055701,3.239e-05,-0.35102,-0.030541,-9.6949,0,0,45.388,1,1,755,999
13682,5.2506e+07,1,0.0025791,-0.0065243,0.00029616,-0.35996,-0.037163,-9.7297,0,0,45.388,1,1,755,999
13713,5.2508e+07,1,0.0022165,-0.0047647,-0.0020689,-0.371,-0.050104,-9.7738,0,0,45.388,1,1,755,999
13716,5.2511e+07,1,0.00060536,-0.0018596,-0.0037009,-0.38316,-0.066542,-9.7962,0,0,45.388,1,1,755,999
13720,5.2514e+07,1,-0.00099281,0.000871,-0.005205,-0.39154,-0.073039,-9.7912,0,0,45.388,1,1,755,999
13723,5.2516e+07,1,-0.003113,0.0048222,-0.006143,-0.4168,-0.082972,-9.7939,0,0,45.388,1,1,755,999
13754,5.2519e+07,1,3.3503e-05,0.0048145,-0.0056255,-0.43876,-0.078055,-9.798,0,0,45.387,1,1,755,999
13757,5.2521e+07,1,0.0049354,0.0020254,-0.0065722,-0.47918,-0.067943,-9.8031,0,0,45.387,1,1,755,999
13761,5.2524e+07,1,0.004917,-0.00046031,-0.0036621,-0.49853,-0.054254,-9.8056,0,0,45.387,1,1,755,999
13764,5.2527e+07,1,0.0025809,-0.0016022,0.0028661,-0.50423,-0.037346,-9.7931,0,0,45.387,1,1,755,999
13795,5.2529e+07,1,-0.00083291,-0.0023863,0.0081248,-0.49774,-0.03332,-9.7739,0,0,45.387,1,1,755,999
13798,5.2532e+07,1,-0.0030124,-0.0036959,0.0094325,-0.49821,-0.032312,-9.7622,0,0,45.387,1,1,755,999
13805,5.2535e+07,1,-0.0034026,-0.0027696,0.011081,-0.47943,-0.023425,-9.7627,0,0,45.387,1,1,755,999
13808,5.2537e+07,1,-0.0031627,-0.00098161,0.012879,-0.45709,-0.0095273,-9.7606,0,0,45.387,1,1,755,999
13839,5.254e+07,1,-0.0011372,-0.00024737,0.012594,-0.43837,-0.0018621,-9.7512,0,0,45.387,1,1,755,999
13842,5.2542e+07,1,-0.00028155,-0.0018303,0.010704,-0.42479,-0.0089202,-9.7455,0,0,45.387,1,1,755,999
13846,5.2544e+07,1,-0.0031861,-0.0044788,0.0032577,-0.41067,-0.034722,-9.7454,0,0,45.387,1,1,755,999
13849,5.2547e+07,1,-0.0048463,-0.0044311,-0.0020724,-0.40216,-0.054396,-9.7551,0,0,45.387,1,1,755,999
13880,5.255e+07,1,-0.0065937,-0.0029998,-0.00972,-0.39555,-0.088509,-9.7622,0,0,45.387,1,1,755,999
13883,5.2553e+07,1,-0.0057039,0.00058767,-0.012782,-0.39998,-0.1101,-9.7648,0,0,45.386,1,1,755,999
13886,5.2554e+07,1,-0.0051765,0.0019362,-0.011532,-0.41512,-0.1232,-9.762,0,0,45.386,1,1,755,999
13889,5.2557e+07,1,-0.0028757,0.0022394,-0.0060127,-0.44338,-0.11783,-9.7663,0,0,45.386,1,1,755,999
13920,5.256e+07,1,-0.00090039,0.00048043,-0.0023675,-0.46356,-0.11388,-9.77,0,0,45.386,1,1,755,999
13924,5.2562e+07,1,-2.1357e-06,0.00015882,-0.0010533,-0.47517,-0.11511,-9.7706,0,0,45.386,1,1,755,999
13928,5.2567e+07,1,-3.9412e-05,0.0016667,-0.0009718,-0.45667,-0.12567,-9.7812,0,0,45.386,1,1,755,999
13959,5.2571e+07,1,-0.0033795,0.00088466,-0.0044614,-0.43517,-0.12772,-9.7978,0,0,45.386,1,1,755,999
13962,5.2573e+07,1,-0.0040506,-0.0008422,-0.0082608,-0.4122,-0.11466,-9.8037,0,0,45.386,1,1,755,999
13966,5.2576e+07,1,-0.0015457,-0.0036617,-0.0064391,-0.40249,-0.097954,-9.7946,0,0,45.386,1,1,755,999
13969,5.2577e+07,1,0.0041569,-0.0048838,-0.0004078,-0.40093,-0.079728,-9.7895,0,0,45.386,1,1,755,999
14000,5.258e+07,1,0.0068212,-0.0035472,0.0022564,-0.40166,-0.068328,-9.7831,0,0,45.386,1,1,755,999
14003,5.2583e+07,1,0.0069608,-0.0029939,0.0015184,-0.39675,-0.063631,-9.78,0,0,45.386,1,1,755,999
14007,5.2585e+07,1,0.0050154,-0.0027022,-0.0025858,-0.3951,-0.057639,-9.7801,0,0,45.385,1,1,755,999
14010,5.2588e+07,1,0.0014938,-0.00070159,-0.0078888,-0.39653,-0.055109,-9.7789,0,0,45.385,1,1,755,999
14041,5.259e+07,1,-0.00023306,0.0030284,-0.011427,-0.40019,-0.068238,-9.7735,0,0,45.385,1,1,755,999
14046,5.2594e+07,1,0.00084781,0.0061741,-0.010253,-0.40531,-0.080733,-9.7736,0,0,45.385,1,1,755,999
