LineNo,TimeUS,I,GyrX,GyrY,GyrZ,AccX,AccY,AccZ,EG,EA,T,GH,AH,GHz,AHz
185,4.9046e+07,2,0.00040213,0.0002111,0.00221,-0.31716,-0.091187,-9.8214,0,0,36.967,1,1,7745,3872
294,4.908e+07,2,0.0023823,-0.001372,-0.00027962,-0.31131,-0.109,-9.8281,0,0,36.968,1,1,7745,3872
325,4.9083e+07,2,0.0017733,-0.00037754,0.0013679,-0.31085,-0.11316,-9.8266,0,0,36.968,1,1,7745,3872
405,4.9103e+07,2,-0.00053525,-0.00018424,0.0014493,-0.29315,-0.11795,-9.8288,0,0,36.968,1,1,7745,3872
521,4.9126e+07,2,-0.000963,0.0011212,0.003087,-0.30278,-0.11752,-9.8141,0,0,36.969,1,1,7745,3872
556,4.9129e+07,2,-0.0016729,0.0022145,0.0015981,-0.30049,-0.11737,-9.8136,0,0,36.969,1,1,7745,3872
632,4.9146e+07,2,-0.0039483,-0.00026474,-0.00020564,-0.30562,-0.098536,-9.8324,0,0,36.97,1,1,7745,3872
747,4.9167e+07,2,-0.0042474,0.0007284,-0.00057619,-0.29305,-0.097535,-9.8346,0,0,36.971,1,1,7745,3872
862,4.9188e+07,2,-0.0013559,-5.4199e-06,0.00075491,-0.30441,-0.08011,-9.8433,0,0,36.972,1,1,7745,3872
976,4.9212e+07,2,-0.0019845,-0.0006698,-0.0016871,-0.30017,-0.087913,-9.8115,0,0,36.974,1,1,7745,3872
979,4.9215e+07,2,-0.0013541,-0.0010798,-0.0019887,-0.30066,-0.086263,-9.8119,0,0,36.974,1,1,7745,3872
982,4.9216e+07,2,0.00040125,-0.001305,-0.0018063,-0.3004,-0.08213,-9.8127,0,0,36.974,1,1,7745,3872
1013,4.9219e+07,2,0.0021876,-0.0012173,-0.0019992,-0.29911,-0.081066,-9.8142,0,0,36.974,1,1,7745,3872
1084,4.9246e+07,2,0.00025661,-0.00033476,0.00021685,-0.30428,-0.11487,-9.8008,0,0,36.975,1,1,7745,3872
1199,4.9329e+07,2,-0.0029345,-0.0025251,-0.00039578,-0.29258,-0.10138,-9.8154,0,0,36.976,1,1,7745,3872
1230,4.9331e+07,2,-0.0018668,-0.0024214,-0.0009198,-0.29209,-0.10016,-9.8151,0,0,36.976,1,1,7745,3872
1310,4.9405e+07,2,0.00089537,0.0021926,0.0013539,-0.30128,-0.098914,-9.8375,0,0,36.977,1,1,7745,3872
1392,4.9425e+07,2,0.00032845,-0.00090888,0.00066356,-0.29697,-0.10002,-9.8017,0,0,36.977,1,1,7745,3872
1489,4.9436e+07,2,-0.0010379,0.00090008,0.00080837,-0.29361,-0.10965,-9.7953,0,0,36.977,1,1,7745,3872
1581,4.9448e+07,2,-0.0016192,-0.00078102,-0.00022907,-0.29803,-0.10472,-9.8187,0,0,36.977,1,1,7745,3872
1612,4.9451e+07,2,-0.0020746,-0.00055777,0.00041884,-0.29797,-0.10468,-9.8242,0,0,36.977,1,1,7745,3872
1643,4.9455e+07,2,-0.0016795,-0.00022388,0.00035793,-0.2974,-0.10492,-9.825,0,0,36.977,1,1,7745,3872
1647,4.9456e+07,2,-0.0018978,-0.00020612,-0.0010804,-0.2961,-0.10463,-9.8253,0,0,36.977,1,1,7745,3872
1650,4.9459e+07,2,-0.0019778,-0.00018888,-0.00079098,-0.29625,-0.10597,-9.8239,0,0,36.977,1,1,7745,3872
1653,4.9461e+07,2,-0.0023698,-0.00047434,-0.00059112,-0.29695,-0.10949,-9.8218,0,0,36.977,1,1,7745,3872
1666,4.9474e+07,2,-0.0041775,-0.0022299,-0.00086358,-0.29988,-0.11509,-9.8174,0,0,36.977,1,1,7745,3872
1670,4.9477e+07,2,-0.0039885,-0.0034378,-0.0005529,-0.30217,-0.11245,-9.8189,0,0,36.977,1,1,7745,3872
1673,4.9479e+07,2,-0.0038095,-0.0039,-0.00045412,-0.30284,-0.1105,-9.8204,0,0,36.977,1,1,7745,3872
1676,4.9482e+07,2,-0.003176,-0.0033474,-0.00045255,-0.303,-0.10809,-9.8203,0,0,36.977,1,1,7745,3872
1711,4.9485e+07,2,-0.0021715,-0.0028885,-0.0011458,-0.30377,-0.10568,-9.8193,0,0,36.977,1,1,7745,3872
1714,4.9488e+07,2,-0.0019717,-0.0027094,-0.00114,-0.30441,-0.10419,-9.8183,0,0,36.977,1,1,7745,3872
1717,4.9489e+07,2,-0.0012971,-0.0013637,-0.00022337,-0.30501,-0.10101,-9.8167,0,0,36.977,1,1,7745,3872
1720,4.9493e+07,2,-0.0018429,-0.00027596,0.00055548,-0.30579,-0.097854,-9.8141,0,0,36.977,1,1,7745,3872
1751,4.9495e+07,2,-0.0021803,0.00017595,0.00016301,-0.30723,-0.095016,-9.814,0,0,36.977,1,1,7745,3872
1755,4.9497e+07,2,-0.0025292,0.00032208,-0.0012514,-0.30723,-0.094596,-9.8154,0,0,36.977,1,1,7745,3872
1758,4.95e+07,2,-0.0030002,0.00056331,-0.0020624,-0.30633,-0.095491,-9.8164,0,0,36.977,1,1,7745,3872
1761,4.9502e+07,2,-0.0026441,0.00070387,-0.0014948,-0.30374,-0.099705,-9.8165,0,0,36.977,1,1,7745,3872
1792,4.9505e+07,2,-0.0018878,-4.1765e-05,-0.00037163,-0.30143,-0.10129,-9.8156,0,0,36.977,1,1,7745,3872
1795,4.9507e+07,2,-0.0012492,-0.001084,0.0011979,-0.29747,-0.10437,-9.8122,0,0,36.977,1,1,7745,3872
1798,4.951e+07,2,-0.0013731,-0.00063089,0.0013704,-0.29499,-0.1068,-9.8074,0,0,36.977,1,1,7745,3872
1802,4.9513e+07,2,-0.0019291,0.0010664,0.0018484,-0.29386,-0.10812,-9.7999,0,0,36.977,1,1,7745,3872
1833,4.9515e+07,2,-0.0019438,0.0010535,0.00055124,-0.29423,-0.1063,-9.7985,0,0,36.977,1,1,7745,3872
1837,4.9518e+07,2,-0.0019502,0.00017753,0.00051246,-0.29585,-0.10451,-9.7987,0,0,36.977,1,1,7745,3872
1840,4.952e+07,2,-0.0013872,0.00017345,0.00016651,-0.29776,-0.10231,-9.7998,0,0,36.977,1,1,7745,3872
1843,4.9522e+07,2,-0.0011342,0.0011952,-0.00096484,-0.29846,-0.10083,-9.8048,0,0,36.977,1,1,7745,3872
1874,4.9525e+07,2,-0.0015023,0.0020832,-0.0016266,-0.29862,-0.10026,-9.8096,0,0,36.977,1,1,7745,3872
1878,4.9527e+07,2,-0.001871,0.0022092,-0.0018523,-0.298,-0.099064,-9.8137,0,0,36.977,1,1,7745,3872
1881,4.9531e+07,2,-0.0017869,0.0017716,-0.0011466,-0.29796,-0.098385,-9.8144,0,0,36.977,1,1,7745,3872
1884,4.9533e+07,2,-0.00054231,0.0022859,-0.0002272,-0.29962,-0.096782,-9.818,0,0,36.978,1,1,7745,3872
1915,4.9535e+07,2,0.00010341,0.0023545,-0.00064286,-0.30305,-0.098926,-9.8216,0,0,36.978,1,1,7745,3872
1919,4.9537e+07,2,0.00076969,0.0018327,-0.00099172,-0.30481,-0.099754,-9.8233,0,0,36.978,1,1,7745,3872
1922,4.954e+07,2,0.0012867,0.0013238,-0.00029118,-0.30591,-0.10037,-9.8237,0,0,36.978,1,1,7745,3872
1925,4.9543e+07,2,0.0019373,0.00086874,0.00074866,-0.30907,-0.10181,-9.8214,0,0,36.978,1,1,7745,3872
1956,4.9547e+07,2,0.0022169,0.00065817,0.00036319,-0.31272,-0.10235,-9.8186,0,0,36.978,1,1,7745,3872
1959,4.9548e+07,2,0.0017193,0.0002147,-0.00052631,-0.31519,-0.10101,-9.8194,0,0,36.978,1,1,7745,3872
1962,4.955e+07,2,0.0012884,-0.0002022,-0.0011635,-0.31552,-0.10074,-9.8214,0,0,36.978,1,1,7745,3872
1965,4.9553e+07,2,0.0014405,0.00032979,-0.0010059,-0.31433,-0.10147,-9.822,0,0,36.978,1,1,7745,3872
1996,4.9556e+07,2,0.0020135,0.0010553,-0.0010344,-0.31347,-0.10271,-9.8207,0,0,36.978,1,1,7745,3872
2000,4.9558e+07,2,0.0023668,0.0017259,-0.00062071,-0.31455,-0.10229,-9.8162,0,0,36.978,1,1,7745,3872
2003,4.956e+07,2,0.00275,0.0022221,-0.00012518,-0.31587,-0.10233,-9.8104,0,0,36.978,1,1,7745,3872
2006,4.9563e+07,2,0.0027009,0.00098096,-0.00018057,-0.31639,-0.10479,-9.803,0,0,36.978,1,1,7745,3872
2037,4.9566e+07,2,0.0028656,-0.00020322,-3.6341e-05,-0.31607,-0.1063,-9.8001,0,0,36.977,1,1,7745,3872
2042,4.9568e+07,2,0.0030098,-0.00091721,-0.00016065,-0.31508,-0.10707,-9.799,0,0,36.977,1,1,7745,3872
2045,4.957e+07,2,0.0026395,-0.0013281,0.00027987,-0.31155,-0.1074,-9.8011,0,0,36.977,1,1,7745,3872
2048,4.9573e+07,2,0.003318,-0.00072047,0.0006702,-0.30903,-0.10797,-9.8041,0,0,36.977,1,1,7745,3872
2079,4.9575e+07,2,0.0036867,0.0003099,0.0015689,-0.30686,-0.10836,-9.8088,0,0,36.977,1,1,7745,3872
2082,4.9578e+07,2,0.0032075,0.00042789,0.00088799,-0.30484,-0.10817,-9.8101,0,0,36.977,1,1,7745,3872
2087,4.9581e+07,2,0.0022136,-8.7835e-05,0.00010094,-0.30135,-0.10803,-9.8094,0,0,36.977,1,1,7745,3872
2090,4.9583e+07,2,0.0024898,-0.00082113,0.00020917,-0.30016,-0.10777,-9.8092,0,0,36.977,1,1,7745,3872
2125,4.9586e+07,2,0.0024977,-0.0011991,0.00039436,-0.29925,-0.10733,-9.8095,0,0,36.977,1,1,7745,3872
2129,4.9588e+07,2,0.0021902,-0.0016091,0.00099061,-0.29868,-0.10664,-9.8093,0,0,36.977,1,1,7745,3872
2132,4.9591e+07,2,0.0018538,-0.0021364,0.0016731,-0.29881,-0.1076,-9.8103,0,0,36.977,1,1,7745,3872
2135,4.9594e+07,2,0.0020031,-0.0026276,0.0019495,-0.29992,-0.11048,-9.8126,0,0,36.977,1,1,7745,3872
2166,4.9596e+07,2,0.0012426,-0.0023443,0.0018114,-0.30222,-0.11427,-9.8148,0,0,36.977,1,1,7745,3872
2169,4.9598e+07,2,0.0010394,-0.0012369,0.0016038,-0.30509,-0.11583,-9.8176,0,0,36.977,1,1,7745,3872
2172,4.9601e+07,2,0.0012297,-0.00061613,0.0021368,-0.30667,-0.11488,-9.8199,0,0,36.977,1,1,7745,3872
2175,4.9604e+07,2,0.0012102,0.0002017,0.0028972,-0.30805,-0.11148,-9.8224,0,0,36.977,1,1,7745,3872
2206,4.9606e+07,2,0.00070801,0.00014963,0.0023356,-0.30945,-0.10914,-9.8224,0,0,36.977,1,1,7745,3872
2210,4.9608e+07,2,8.052e-05,0.00062262,0.00091612,-0.31044,-0.10674,-9.821,0,0,36.977,1,1,7745,3872
2213,4.9611e+07,2,-0.0006246,0.0010641,0.0010667,-0.30972,-0.10604,-9.8211,0,0,36.977,1,1,7745,3872
2217,4.9614e+07,2,-0.00092786,0.0010612,0.0015283,-0.309,-0.10435,-9.8224,0,0,36.977,1,1,7745,3872
2248,4.9616e+07,2,-0.0018183,0.00059534,1.3234e-06,-0.30706,-0.10294,-9.8238,0,0,36.977,1,1,7745,3872
2251,4.9619e+07,2,-0.0021658,0.00077824,-0.00051016,-0.30512,-0.1022,-9.8241,0,0,36.977,1,1,7745,3872
2254,4.9622e+07,2,-0.0018333,0.00060955,-0.001675,-0.30217,-0.10275,-9.8256,0,0,36.977,1,1,7745,3872
2257,4.9626e+07,2,-0.0026368,0.00076624,-0.00045547,-0.29455,-0.10635,-9.8353,0,0,36.977,1,1,7745,3872
2289,4.9629e+07,2,-0.002556,0.0015985,0.0011149,-0.29053,-0.10754,-9.8399,0,0,36.977,1,1,7745,3872
2292,4.9633e+07,2,-0.0024837,0.0015292,0.0017012,-0.28789,-0.10638,-9.8414,0,0,36.977,1,1,7745,3872
2295,4.9634e+07,2,-0.0031202,0.00057073,0.0014996,-0.28455,-0.10409,-9.842,0,0,36.977,1,1,7745,3872
2298,4.9637e+07,2,-0.003702,0.00014631,0.001184,-0.28469,-0.10365,-9.8418,0,0,36.977,1,1,7745,3872
2329,4.9639e+07,2,-0.0041633,-0.00077586,-9.1104e-05,-0.28662,-0.10487,-9.8398,0,0,36.977,1,1,7745,3872
2334,4.9642e+07,2,-0.0037618,-0.00097856,-0.00093113,-0.28828,-0.1071,-9.8352,0,0,36.977,1,1,7745,3872
2337,4.9645e+07,2,-0.0040852,-0.00097726,-0.00044584,-0.28939,-0.11062,-9.8269,0,0,36.977,1,1,7745,3872
2340,4.9647e+07,2,-0.0039364,-0.00097588,-0.00085691,-0.29039,-0.11208,-9.8246,0,0,36.977,1,1,7745,3872
2371,4.965e+07,2,-0.0024566,-0.00040848,-0.0012904,-0.29276,-0.11143,-9.8238,0,0,36.977,1,1,7745,3872
2374,4.9653e+07,2,-0.0017638,5.1865e-05,-0.0014452,-0.29305,-0.10881,-9.8207,0,0,36.977,1,1,7745,3872
2377,4.9655e+07,2,-0.0022073,0.00021323,-0.0012546,-0.29343,-0.10587,-9.8166,0,0,36.977,1,1,7745,3872
2380,4.9657e+07,2,-0.0028203,0.00035722,-0.0012872,-0.29519,-0.10313,-9.8114,0,0,36.977,1,1,7745,3872
2411,4.966e+07,2,-0.0028545,0.00037344,-0.0013131,-0.29762,-0.1007,-9.8058,0,0,36.977,1,1,7745,3872
2415,4.9663e+07,2,-0.002367,-5.8597e-05,0.00021933,-0.30072,-0.095874,-9.8006,0,0,36.977,1,1,7745,3872
2418,4.9665e+07,2,-0.0022903,-0.00064309,0.0010177,-0.30131,-0.09246,-9.7995,0,0,36.977,1,1,7745,3872
2421,4.9668e+07,2,-0.0016528,-0.0010398,0.0015834,-0.29963,-0.088602,-9.7994,0,0,36.977,1,1,7745,3872
2452,4.967e+07,2,-0.0018438,-0.00069168,0.00038061,-0.29797,-0.089106,-9.8014,0,0,36.977,1,1,7745,3872
2455,4.9673e+07,2,-0.0016968,-7.8568e-05,-0.00017446,-0.29691,-0.090832,-9.8046,0,0,36.977,1,1,7745,3872
2458,4.9675e+07,2,-0.0016576,0.0012152,-0.00028755,-0.29603,-0.092592,-9.8112,0,0,36.977,1,1,7745,3872
2461,4.9678e+07,2,-0.0019594,0.0015633,2.2063e-05,-0.29698,-0.094039,-9.8162,0,0,36.977,1,1,7745,3872
2492,4.9681e+07,2,-0.0018013,0.0013292,0.0010437,-0.29995,-0.097372,-9.8221,0,0,36.977,1,1,7745,3872
2496,4.9683e+07,2,-0.0017655,0.00041792,0.0008678,-0.3016,-0.098944,-9.8251,0,0,36.977,1,1,7745,3872
2500,4.9686e+07,2,-0.00094492,0.00035111,6.2325e-06,-0.30239,-0.098908,-9.8281,0,0,36.977,1,1,7745,3872
2507,4.9688e+07,2,-0.00053431,0.00050026,-0.00030125,-0.30213,-0.097599,-9.8302,0,0,36.977,1,1,7745,3872
2538,4.969e+07,2,2.3158e-06,0.00021135,-0.00037377,-0.30118,-0.097694,-9.8283,0,0,36.977,1,1,7745,3872
2542,4.9693e+07,2,0.00044524,-0.00030432,-3.847e-05,-0.30075,-0.098248,-9.8258,0,0,36.977,1,1,7745,3872
2545,4.9695e+07,2,0.0013276,-0.0012373,-0.00058348,-0.29931,-0.097606,-9.8205,0,0,36.977,1,1,7745,3872
2548,4.9699e+07,2,0.0021384,-0.00071933,-0.00077589,-0.2989,-0.097915,-9.817,0,0,36.977,1,1,7745,3872
2579,4.9701e+07,2,0.0024673,-0.00058556,0.00046579,-0.29833,-0.097522,-9.8152,0,0,36.977,1,1,7745,3872
2582,4.9704e+07,2,0.0021783,-0.00087182,0.0012524,-0.29814,-0.096724,-9.8125,0,0,36.977,1,1,7745,3872
2585,4.9706e+07,2,0.0021371,-0.00056194,0.00021777,-0.29771,-0.097316,-9.8111,0,0,36.977,1,1,7745,3872
2588,4.9709e+07,2,0.0016415,-0.00030881,-0.0017695,-0.29592,-0.098345,-9.8159,0,0,36.977,1,1,7745,3872
2619,4.9711e+07,2,0.0017788,-0.00011676,-0.0033793,-0.29332,-0.098872,-9.82,0,0,36.977,1,1,7745,3872
2623,4.9713e+07,2,0.0022622,-0.00086696,-0.0024146,-0.29023,-0.099147,-9.822,0,0,36.977,1,1,7745,3872
2626,4.9716e+07,2,0.0021255,-0.0014967,-0.00093972,-0.28871,-0.099421,-9.823,0,0,36.977,1,1,7745,3872
2630,4.9719e+07,2,0.0037043,-0.0011698,0.00076986,-0.28887,-0.099939,-9.8242,0,0,36.977,1,1,7745,3872
2661,4.9721e+07,2,0.0041704,-0.00072777,0.00084128,-0.29184,-0.10008,-9.8268,0,0,36.977,1,1,7745,3872
2664,4.9725e+07,2,0.0036117,-0.00045651,0.0012359,-0.2946,-0.10004,-9.8293,0,0,36.977,1,1,7745,3872
2667,4.9726e+07,2,0.0030926,-0.00026706,0.00096688,-0.29803,-0.10017,-9.8318,0,0,36.977,1,1,7745,3872
2670,4.9729e+07,2,0.0031376,-0.00035619,0.00057271,-0.30117,-0.10001,-9.8307,0,0,36.977,1,1,7745,3872
2701,4.9731e+07,2,0.0027681,-0.00057596,0.0010778,-0.30692,-0.10037,-9.8281,0,0,36.977,1,1,7745,3872
2705,4.9737e+07,2,0.0024057,-0.0011797,-0.00017788,-0.31069,-0.10116,-9.8262,0,0,36.977,1,1,7745,3872
2708,4.9739e+07,2,0.0021872,-0.0010652,-0.00076567,-0.30858,-0.10354,-9.8242,0,0,36.977,1,1,7745,3872
2739,4.9741e+07,2,0.0017006,-0.00078342,-0.0011038,-0.30428,-0.10796,-9.8198,0,0,36.977,1,1,7745,3872
2742,4.9744e+07,2,0.0018781,1.2105e-05,-0.00057013,-0.30311,-0.1106,-9.8194,0,0,36.977,1,1,7745,3872
2745,4.9747e+07,2,0.0028576,-0.00045621,-0.00065434,-0.3044,-0.11276,-9.8221,0,0,36.977,1,1,7745,3872
2748,4.9749e+07,2,0.0020304,-0.0014422,0.00013983,-0.30718,-0.11458,-9.826,0,0,36.977,1,1,7745,3872
2779,4.9752e+07,2,0.0010425,-0.0021853,0.0011638,-0.31028,-0.11668,-9.8275,0,0,36.977,1,1,7745,3872
2783,4.9754e+07,2,0.00087767,-0.0020395,0.0012509,-0.30999,-0.1167,-9.8271,0,0,36.977,1,1,7745,3872
2786,4.9756e+07,2,0.00061886,-0.0019484,0.0010343,-0.30906,-0.11363,-9.8287,0,0,36.977,1,1,7745,3872
2789,4.9759e+07,2,0.00083705,-0.0014871,0.00055615,-0.30902,-0.11039,-9.8327,0,0,36.977,1,1,7745,3872
2820,4.9762e+07,2,0.0011703,-0.00061001,-0.00092242,-0.30825,-0.10607,-9.8374,0,0,36.977,1,1,7745,3872
2824,4.9764e+07,2,0.00061861,-0.00054071,-0.0014228,-0.30629,-0.10538,-9.839,0,0,36.977,1,1,7745,3872
2827,4.9766e+07,2,0.0002311,0.00019347,-0.0013435,-0.3055,-0.10593,-9.8371,0,0,36.977,1,1,7745,3872
2831,4.9769e+07,2,0.00019072,0.00074563,-0.00044005,-0.30606,-0.10658,-9.8332,0,0,36.977,1,1,7745,3872
2862,4.9772e+07,2,-0.00051288,0.00095615,0.00098161,-0.30789,-0.10714,-9.8253,0,0,36.977,1,1,7745,3872
2865,4.9774e+07,2,-0.0013938,0.00089909,0.00091674,-0.30911,-0.10837,-9.8209,0,0,36.977,1,1,7745,3872
2868,4.9777e+07,2,-0.0016091,0.00013872,0.0007593,-0.30989,-0.10988,-9.8171,0,0,36.978,1,1,7745,3872
2871,4.9779e+07,2,-0.00088426,-0.00023259,0.00079147,-0.3098,-0.10933,-9.8166,0,0,36.978,1,1,7745,3872
2902,4.9781e+07,2,-0.0010369,1.3878e-05,0.00043881,-0.30921,-0.1065,-9.8159,0,0,36.978,1,1,7745,3872
2906,4.9784e+07,2,-0.0018259,0.00056484,-0.00043404,-0.3093,-0.10541,-9.8164,0,0,36.978,1,1,7745,3872
2911,4.9787e+07,2,-0.0025778,0.0011869,-0.0011313,-0.30891,-0.10598,-9.8167,0,0,36.978,1,1,7745,3872
2918,4.9789e+07,2,-0.002675,0.0012099,-0.0018918,-0.30793,-0.10747,-9.8176,0,0,36.978,1,1,7745,3872
2949,4.9792e+07,2,-0.0037015,0.00072033,-0.0021075,-0.30715,-0.10809,-9.8203,0,0,36.978,1,1,7745,3872
2952,4.9795e+07,2,-0.0040391,0.00088269,-0.0011884,-0.30812,-0.10706,-9.8197,0,0,36.978,1,1,7745,3872
2955,4.9797e+07,2,-0.0038451,0.0011404,0.00029982,-0.3085,-0.10581,-9.8188,0,0,36.978,1,1,7745,3872
2959,4.9799e+07,2,-0.0034323,0.00053867,0.00029701,-0.30923,-0.10182,-9.8217,0,0,36.978,1,1,7745,3872
2995,4.9803e+07,2,-0.0029906,0.00044225,-0.0003065,-0.31155,-0.098078,-9.8239,0,0,36.978,1,1,7745,3872
2999,4.9804e+07,2,-0.003394,-0.00022452,-0.0001663,-0.3127,-0.09569,-9.8258,0,0,36.978,1,1,7745,3872
3002,4.9807e+07,2,-0.0042198,-0.0011763,0.00053056,-0.31403,-0.092855,-9.8279,0,0,36.978,1,1,7745,3872
3005,4.981e+07,2,-0.0049124,-0.0011055,0.00069025,-0.31481,-0.090658,-9.8299,0,0,36.978,1,1,7745,3872
3036,4.9812e+07,2,-0.0037494,-0.00078033,0.001377,-0.31329,-0.090049,-9.8329,0,0,36.979,1,1,7745,3872
3039,4.9815e+07,2,-0.003053,-0.00094093,0.00094033,-0.3116,-0.090642,-9.8347,0,0,36.979,1,1,7745,3872
3042,4.9817e+07,2,-0.0023076,-0.0016956,-0.0011512,-0.30984,-0.090926,-9.8364,0,0,36.979,1,1,7745,3872
3046,4.982e+07,2,-0.0029158,-0.0020809,-0.0025284,-0.30762,-0.092264,-9.8361,0,0,36.979,1,1,7745,3872
3077,4.9822e+07,2,-0.001954,-0.0018146,-0.0029036,-0.3069,-0.094263,-9.8315,0,0,36.979,1,1,7745,3872
3081,4.9824e+07,2,-0.0013367,-0.0013821,-0.0022675,-0.30638,-0.094133,-9.8267,0,0,36.979,1,1,7745,3872
3084,4.9828e+07,2,-0.0014339,-0.0011051,-0.0020256,-0.30577,-0.094408,-9.8237,0,0,36.979,1,1,7745,3872
3087,4.9829e+07,2,-0.0019864,-0.00061534,-0.0022833,-0.30303,-0.097139,-9.8207,0,0,36.979,1,1,7745,3872
3118,4.9835e+07,2,-0.0033265,-0.00011255,-0.001949,-0.2987,-0.099418,-9.8188,0,0,36.979,1,1,7745,3872
3121,4.9837e+07,2,-0.002909,6.1749e-05,2.1463e-06,-0.29784,-0.098582,-9.8215,0,0,36.979,1,1,7745,3872
3124,4.9841e+07,2,-0.0019775,0.0012988,0.00015368,-0.29878,-0.097034,-9.8251,0,0,36.979,1,1,7745,3872
3155,4.9843e+07,2,-0.0007183,0.0016782,0.0011105,-0.29957,-0.095829,-9.8278,0,0,36.979,1,1,7745,3872
3158,4.9846e+07,2,-0.0006167,0.001568,0.0015889,-0.29995,-0.095392,-9.829,0,0,36.979,1,1,7745,3872
3162,4.9848e+07,2,-0.00072314,0.0012637,0.0020369,-0.3013,-0.09589,-9.8253,0,0,36.979,1,1,7745,3872
3165,4.9851e+07,2,-0.00092905,0.0013373,0.0017041,-0.30237,-0.096965,-9.8213,0,0,36.979,1,1,7745,3872
3196,4.9854e+07,2,-0.00037683,0.00080403,0.0018151,-0.30282,-0.098429,-9.8189,0,0,36.979,1,1,7745,3872
3199,4.9857e+07,2,-0.00013173,0.00074078,0.0020003,-0.30303,-0.10007,-9.818,0,0,36.979,1,1,7745,3872
3203,4.9859e+07,2,0.00085452,0.00045945,0.0019355,-0.30403,-0.10182,-9.8171,0,0,36.979,1,1,7745,3872
3207,4.9861e+07,2,6.5732e-05,0.00028308,0.0004232,-0.30455,-0.10249,-9.8195,0,0,36.979,1,1,7745,3872
3238,4.9864e+07,2,3.5153e-05,0.00073712,-0.00053415,-0.30456,-0.10303,-9.8218,0,0,36.978,1,1,7745,3872
3241,4.9866e+07,2,0.00087098,0.0012679,-0.001065,-0.30391,-0.10529,-9.8239,0,0,36.978,1,1,7745,3872
3245,4.9869e+07,2,0.0019938,0.0019958,-0.00077744,-0.30132,-0.10832,-9.8245,0,0,36.978,1,1,7745,3872
3248,4.9871e+07,2,0.0028719,0.0020608,-0.00035901,-0.29952,-0.10849,-9.8233,0,0,36.978,1,1,7745,3872
3279,4.9874e+07,2,0.0030164,0.0018861,-0.00027259,-0.29792,-0.10782,-9.8222,0,0,36.979,1,1,7745,3872
3282,4.9876e+07,2,0.0031521,0.0014323,0.00070611,-0.29551,-0.10689,-9.8236,0,0,36.979,1,1,7745,3872
3285,4.9879e+07,2,0.0026384,0.0017203,0.00068874,-0.29431,-0.10578,-9.8247,0,0,36.979,1,1,7745,3872
3289,4.9881e+07,2,0.0023324,0.0019503,0.00038561,-0.2939,-0.10445,-9.8257,0,0,36.979,1,1,7745,3872
3320,4.9883e+07,2,0.0029663,0.0018583,-0.00018477,-0.29494,-0.10178,-9.8287,0,0,36.979,1,1,7745,3872
3323,4.9886e+07,2,0.0037054,0.0016848,0.00014358,-0.29689,-0.099521,-9.83,0,0,36.979,1,1,7745,3872
3330,4.9889e+07,2,0.0032267,0.00083175,0.00053798,-0.2986,-0.098591,-9.8286,0,0,36.979,1,1,7745,3872
3337,4.9892e+07,2,0.0023645,0.00022836,0.0011075,-0.29972,-0.099558,-9.8277,0,0,36.979,1,1,7745,3872
3368,4.9894e+07,2,0.0028887,0.00037351,0.0020054,-0.30061,-0.10132,-9.8258,0,0,36.979,1,1,7745,3872
3371,4.9897e+07,2,0.0035577,-0.00011849,0.0012865,-0.30132,-0.10135,-9.8253,0,0,36.979,1,1,7745,3872
3374,4.9899e+07,2,0.0033181,-0.00107,0.00019564,-0.30459,-0.10298,-9.8258,0,0,36.979,1,1,7745,3872
3377,4.9902e+07,2,0.0022114,-0.0015735,-0.00048488,-0.30544,-0.10395,-9.8256,0,0,36.979,1,1,7745,3872
3408,4.9905e+07,2,0.0013509,-0.0020336,-0.0013896,-0.30557,-0.10874,-9.826,0,0,36.979,1,1,7745,3872
3411,4.9907e+07,2,0.00097251,-0.0015513,-0.00045494,-0.30653,-0.11333,-9.8282,0,0,36.979,1,1,7745,3872
3415,4.991e+07,2,0.00092917,-0.0013169,0.00012927,-0.3076,-0.11789,-9.8304,0,0,36.979,1,1,7745,3872
3418,4.9912e+07,2,2.2264e-05,-0.00049692,0.0020145,-0.30834,-0.12236,-9.8312,0,0,36.979,1,1,7745,3872
3449,4.9915e+07,2,-0.00056601,-0.00069114,0.0030989,-0.30817,-0.12377,-9.8308,0,0,36.979,1,1,7745,3872
3452,4.9918e+07,2,-0.0014065,-0.00095763,0.0035041,-0.30767,-0.12521,-9.8312,0,0,36.979,1,1,7745,3872
3455,4.992e+07,2,-0.0015639,-0.00016378,0.0036777,-0.30778,-0.12471,-9.8295,0,0,36.979,1,1,7745,3872
3458,4.9923e+07,2,-0.00098882,0.00096674,0.002769,-0.30706,-0.12159,-9.8258,0,0,36.979,1,1,7745,3872
3489,4.9925e+07,2,-0.0008635,0.00035203,0.0024699,-0.30655,-0.11964,-9.8243,0,0,36.979,1,1,7745,3872
3492,4.9928e+07,2,-0.0012781,-0.00050532,0.0020182,-0.30434,-0.11741,-9.8229,0,0,36.979,1,1,7745,3872
3495,4.993e+07,2,-0.0014576,-0.00044117,0.001196,-0.30238,-0.11785,-9.823,0,0,36.979,1,1,7745,3872
3499,4.9932e+07,2,-0.0017532,-0.00033503,-0.0004227,-0.29859,-0.11832,-9.8205,0,0,36.979,1,1,7745,3872
3530,4.9935e+07,2,-0.0021351,-0.00050036,-0.0012239,-0.2962,-0.11775,-9.8168,0,0,36.979,1,1,7745,3872
3533,4.9937e+07,2,-0.0023559,-0.00029971,-0.0012046,-0.29375,-0.11766,-9.8155,0,0,36.979,1,1,7745,3872
3537,4.994e+07,2,-0.0028257,-0.00037156,7.3143e-05,-0.29259,-0.11863,-9.8166,0,0,36.979,1,1,7745,3872
3541,4.9942e+07,2,-0.0026328,-0.00033454,0.0010302,-0.2918,-0.12041,-9.8179,0,0,36.979,1,1,7745,3872
3572,4.9946e+07,2,-0.0019983,-0.00075763,0.0016321,-0.29078,-0.12184,-9.8182,0,0,36.979,1,1,7745,3872
3575,4.9948e+07,2,-0.0011496,-0.0014972,0.0012844,-0.28943,-0.12227,-9.8215,0,0,36.979,1,1,7745,3872
3578,4.995e+07,2,-0.0012067,-0.0017928,0.0017008,-0.28885,-0.12268,-9.8229,0,0,36.979,1,1,7745,3872
3581,4.9953e+07,2,-0.002012,-0.0023975,0.0014802,-0.28816,-0.12417,-9.823,0,0,36.979,1,1,7745,3872
3612,4.9956e+07,2,-0.0030104,-0.0024573,0.00053986,-0.2884,-0.1246,-9.8236,0,0,36.979,1,1,7745,3872
3615,4.9958e+07,2,-0.0040163,-0.0024034,-0.00020932,-0.28982,-0.1254,-9.8232,0,0,36.979,1,1,7745,3872
3618,4.996e+07,2,-0.0052155,-0.0020595,-0.00038532,-0.29179,-0.12538,-9.8236,0,0,36.979,1,1,7745,3872
3622,4.9963e+07,2,-0.0053869,-0.00087936,-0.00062533,-0.29482,-0.12428,-9.8241,0,0,36.979,1,1,7745,3872
3653,4.9965e+07,2,-0.0046174,-0.00013784,-0.0016571,-0.29713,-0.12287,-9.8227,0,0,36.979,1,1,7745,3872
3657,4.9968e+07,2,-0.0043987,0.00064375,-0.0024161,-0.2988,-0.12154,-9.8212,0,0,36.979,1,1,7745,3872
3660,4.997e+07,2,-0.0041564,0.0011312,-0.0027221,-0.29986,-0.1197,-9.8209,0,0,36.978,1,1,7745,3872
3663,4.9973e+07,2,-0.0033391,0.0017549,-0.002806,-0.30265,-0.11688,-9.8231,0,0,36.978,1,1,7745,3872
3694,4.9975e+07,2,-0.0020742,0.0014822,-0.0010736,-0.30626,-0.11278,-9.8283,0,0,36.978,1,1,7745,3872
3697,4.9978e+07,2,-0.0011016,0.0013401,-0.00021262,-0.30809,-0.10959,-9.8298,0,0,36.978,1,1,7745,3872
3700,4.998e+07,2,-0.00086511,0.0010553,0.00043174,-0.30984,-0.10653,-9.8305,0,0,36.978,1,1,7745,3872
3705,4.9983e+07,2,-0.00059409,0.00054705,0.0011491,-0.31113,-0.10046,-9.8295,0,0,36.978,1,1,7745,3872
3736,4.9985e+07,2,-0.0010073,-0.00023316,0.0010951,-0.31121,-0.095373,-9.8302,0,0,36.978,1,1,7745,3872
3739,4.9987e+07,2,-0.0012177,-0.00038881,0.00030518,-0.31008,-0.093494,-9.8306,0,0,36.978,1,1,7745,3872
3744,4.9991e+07,2,-0.001236,-4.0305e-05,-0.00050035,-0.30837,-0.091691,-9.8288,0,0,36.978,1,1,7745,3872
3752,4.9993e+07,2,-0.00083373,-7.173e-05,-0.00075576,-0.30649,-0.090245,-9.8249,0,0,36.979,1,1,7745,3872
3783,4.9996e+07,2,-0.0011195,0.00036774,-0.00030595,-0.30465,-0.089973,-9.8207,0,0,36.979,1,1,7745,3872
3786,4.9998e+07,2,-0.0020778,0.00086594,0.00065668,-0.30275,-0.090145,-9.8197,0,0,36.979,1,1,7745,3872
3789,5.0001e+07,2,-0.0027121,0.0017123,0.00036322,-0.301,-0.090489,-9.8212,0,0,36.979,1,1,7745,3872
3792,5.0003e+07,2,-0.0026609,0.002243,5.3991e-05,-0.2991,-0.091799,-9.8272,0,0,36.979,1,1,7745,3872
3823,5.0006e+07,2,-0.0019986,0.0017833,-0.0002021,-0.29843,-0.092879,-9.8303,0,0,36.979,1,1,7745,3872
3826,5.0008e+07,2,-0.0013178,0.0012545,-0.000199,-0.29785,-0.094926,-9.833,0,0,36.979,1,1,7745,3872
3829,5.0011e+07,2,-0.00096618,0.00085948,-0.00058044,-0.2974,-0.095185,-9.8317,0,0,36.979,1,1,7745,3872
3833,5.0013e+07,2,-0.0007454,-4.5958e-05,-6.913e-05,-0.29705,-0.093867,-9.8298,0,0,36.979,1,1,7745,3872
3864,5.0016e+07,2,-0.00094709,-0.00050246,-0.00071754,-0.29835,-0.093184,-9.8288,0,0,36.979,1,1,7745,3872
3867,5.0019e+07,2,-0.00046613,-0.0012753,-0.00042921,-0.30279,-0.094874,-9.8303,0,0,36.979,1,1,7745,3872
3870,5.0021e+07,2,5.8898e-06,-0.00092407,0.00033837,-0.30565,-0.096887,-9.8318,0,0,36.979,1,1,7745,3872
3873,5.0023e+07,2,0.00086572,-0.00079699,0.00093704,-0.30847,-0.098962,-9.8333,0,0,36.979,1,1,7745,3872
3904,5.0026e+07,2,0.0016146,-0.001014,0.0007801,-0.30966,-0.10004,-9.8331,0,0,36.979,1,1,7745,3872
3907,5.0029e+07,2,0.0018718,-0.00033147,0.0012531,-0.31099,-0.10056,-9.8281,0,0,36.98,1,1,7745,3872
3910,5.0031e+07,2,0.0010742,0.0006335,0.00086062,-0.31093,-0.10079,-9.8263,0,0,36.98,1,1,7745,3872
3914,5.0033e+07,2,0.0010656,0.00053924,0.00066178,-0.30858,-0.10126,-9.8216,0,0,36.98,1,1,7745,3872
3945,5.0036e+07,2,0.0014652,-0.00016801,0.00052078,-0.30733,-0.10176,-9.8218,0,0,36.98,1,1,7745,3872
3948,5.0038e+07,2,0.0013403,-0.00019089,0.00054354,-0.3059,-0.10435,-9.8258,0,0,36.98,1,1,7745,3872
3951,5.0045e+07,2,0.00065808,-0.0005539,0.0013702,-0.30311,-0.10748,-9.8344,0,0,36.98,1,1,7745,3872
3954,5.0046e+07,2,0.000334,0.00011048,0.0017817,-0.30212,-0.10623,-9.8394,0,0,36.98,1,1,7745,3872
3985,5.0049e+07,2,2.1674e-05,0.00040033,0.0012924,-0.30102,-0.10357,-9.8414,0,0,36.98,1,1,7745,3872
3988,5.0051e+07,2,0.00012872,-0.00049535,0.0011037,-0.29723,-0.097909,-9.8419,0,0,36.98,1,1,7745,3872
3991,5.0054e+07,2,0.0003107,-0.00049434,0.00182,-0.29368,-0.094673,-9.8448,0,0,36.981,1,1,7745,3872
3995,5.0057e+07,2,0.0017657,0.00031742,0.0015424,-0.29109,-0.092979,-9.8475,0,0,36.981,1,1,7745,3872
4026,5.0059e+07,2,0.0019713,3.8862e-06,0.0015994,-0.2902,-0.09487,-9.8451,0,0,36.981,1,1,7745,3872
4029,5.0062e+07,2,0.0020106,-0.00081401,0.0014766,-0.28992,-0.095555,-9.8443,0,0,36.981,1,1,7745,3872
4032,5.0064e+07,2,0.0010197,-0.002518,9.0068e-05,-0.28968,-0.097981,-9.841,0,0,36.981,1,1,7745,3872
4036,5.0067e+07,2,0.0010031,-0.0027646,-0.00050556,-0.28966,-0.099776,-9.8382,0,0,36.981,1,1,7745,3872
4067,5.007e+07,2,0.0014646,-0.0018611,-0.00057991,-0.29063,-0.10237,-9.8343,0,0,36.981,1,1,7745,3872
4070,5.0072e+07,2,0.00072733,-0.00027584,0.0010828,-0.29346,-0.10402,-9.8302,0,0,36.981,1,1,7745,3872
4074,5.0075e+07,2,-3.5295e-05,0.00051817,0.0017499,-0.29601,-0.10361,-9.8265,0,0,36.981,1,1,7745,3872
4077,5.0077e+07,2,-0.0017567,2.9123e-05,0.0028761,-0.30033,-0.10316,-9.8209,0,0,36.981,1,1,7745,3872
4108,5.008e+07,2,-0.0019363,-0.00072533,0.001819,-0.30243,-0.10331,-9.8189,0,0,36.981,1,1,7745,3872
4111,5.0082e+07,2,-0.00037597,-0.0012726,-0.00043582,-0.30329,-0.10301,-9.8183,0,0,36.981,1,1,7745,3872
4115,5.0085e+07,2,0.00018302,-0.0015133,-0.0014076,-0.30446,-0.10314,-9.8179,0,0,36.981,1,1,7745,3872
4119,5.0087e+07,2,-0.00015246,-0.00047479,-0.001484,-0.30551,-0.10431,-9.8165,0,0,36.981,1,1,7745,3872
4150,5.009e+07,2,-0.00056949,0.00035782,-0.0011841,-0.3058,-0.10498,-9.8165,0,0,36.981,1,1,7745,3872
4153,5.0093e+07,2,-0.00073152,0.0011831,-0.0011016,-0.30695,-0.10632,-9.8186,0,0,36.981,1,1,7745,3872
4160,5.0095e+07,2,0.00015103,0.00096258,-0.0018948,-0.3073,-0.10683,-9.8199,0,0,36.981,1,1,7745,3872
4165,5.0097e+07,2,0.00027281,0.0011218,-0.0019097,-0.30619,-0.10698,-9.8227,0,0,36.981,1,1,7745,3872
4196,5.01e+07,2,-0.00051868,0.0014002,-0.0011903,-0.3039,-0.10617,-9.8223,0,0,36.981,1,1,7745,3872
4199,5.0102e+07,2,-0.0014098,0.0015026,-0.0018157,-0.29997,-0.10707,-9.8235,0,0,36.981,1,1,7745,3872
4202,5.0105e+07,2,-0.0018973,0.0013507,-0.0023141,-0.29745,-0.10905,-9.8269,0,0,36.981,1,1,7745,3872
4206,5.0108e+07,2,-0.0021201,0.00093612,-0.0018153,-0.29539,-0.11251,-9.8324,0,0,36.981,1,1,7745,3872
4237,5.011e+07,2,-0.001699,0.0010722,-0.0011916,-0.29622,-0.11205,-9.8359,0,0,36.981,1,1,7745,3872
4240,5.0113e+07,2,-0.0015164,0.0018044,0.0003267,-0.29941,-0.10932,-9.8379,0,0,36.981,1,1,7745,3872
4243,5.0115e+07,2,-0.0019326,0.0019111,0.0010366,-0.29991,-0.10815,-9.8361,0,0,36.981,1,1,7745,3872
4247,5.0118e+07,2,-0.0021667,0.0014336,-0.00042525,-0.2981,-0.10609,-9.8315,0,0,36.981,1,1,7745,3872
4278,5.0121e+07,2,-0.0017804,0.00042392,-0.00069398,-0.29758,-0.10311,-9.8222,0,0,36.981,1,1,7745,3872
4281,5.0123e+07,2,-0.0023175,-3.4729e-05,-0.00093377,-0.29782,-0.10286,-9.8152,0,0,36.981,1,1,7745,3872
4284,5.0125e+07,2,-0.0018925,-0.00025008,-0.0017159,-0.29868,-0.10368,-9.8126,0,0,36.981,1,1,7745,3872
4287,5.0128e+07,2,-0.0017468,-0.0002268,-0.00167,-0.29865,-0.10534,-9.813,0,0,36.981,1,1,7745,3872
4318,5.0131e+07,2,-0.0020748,-0.00023787,-0.0014989,-0.29857,-0.10933,-9.8134,0,0,36.981,1,1,7745,3872
4322,5.0134e+07,2,-0.0022086,-0.00015973,-0.00088594,-0.29911,-0.11179,-9.8137,0,0,36.981,1,1,7745,3872
4325,5.0135e+07,2,-0.0026273,0.00053432,-0.00084066,-0.30086,-0.11396,-9.8151,0,0,36.981,1,1,7745,3872
4329,5.0138e+07,2,-0.0027788,0.00011472,-0.00075969,-0.30209,-0.115,-9.8142,0,0,36.981,1,1,7745,3872
4360,5.0144e+07,2,-0.00231,0.00026038,0.00013237,-0.3033,-0.11847,-9.8113,0,0,36.981,1,1,7745,3872
4363,5.0145e+07,2,-0.0026609,0.00029215,0.00030937,-0.30198,-0.11923,-9.8126,0,0,36.981,1,1,7745,3872
4366,5.0148e+07,2,-0.0028752,0.00014022,-4.4075e-05,-0.29958,-0.11978,-9.8127,0,0,36.981,1,1,7745,3872
4397,5.015e+07,2,-0.001964,0.00046398,-0.00043545,-0.29788,-0.12011,-9.8104,0,0,36.981,1,1,7745,3872
4400,5.0154e+07,2,-0.00048776,0.00061392,0.00037252,-0.29656,-0.11998,-9.8094,0,0,36.981,1,1,7745,3872
4403,5.0156e+07,2,-0.00046722,0.0005454,0.00072065,-0.29395,-0.11884,-9.8096,0,0,36.981,1,1,7745,3872
4407,5.0158e+07,2,-0.0010853,-7.0891e-05,0.00065694,-0.29034,-0.11643,-9.8105,0,0,36.981,1,1,7745,3872
4438,5.016e+07,2,-0.0012185,-0.00082413,0.0011202,-0.28653,-0.11134,-9.8134,0,0,36.981,1,1,7745,3872
4441,5.0163e+07,2,-0.001251,-0.0017121,0.0015228,-0.28508,-0.10661,-9.8147,0,0,36.981,1,1,7745,3872
4444,5.0166e+07,2,-0.00095102,-0.0022618,0.0010286,-0.2847,-0.098315,-9.8181,0,0,36.981,1,1,7745,3872
4447,5.0168e+07,2,-0.00068768,-0.0014026,0.00039704,-0.28532,-0.09434,-9.8216,0,0,36.981,1,1,7745,3872
4478,5.017e+07,2,-0.00087642,3.4169e-05,-0.00020301,-0.28628,-0.091079,-9.825,0,0,36.981,1,1,7745,3872
4481,5.0173e+07,2,-0.0003058,0.00038379,-0.00019103,-0.28723,-0.089631,-9.826,0,0,36.981,1,1,7745,3872
4484,5.0176e+07,2,0.00042273,0.00086935,-0.00080435,-0.29112,-0.089657,-9.8242,0,0,36.981,1,1,7745,3872
4488,5.0178e+07,2,-0.0001661,0.0015413,-0.00053433,-0.29487,-0.090973,-9.8234,0,0,36.981,1,1,7745,3872
4519,5.0181e+07,2,-0.00015227,0.0015823,1.2963e-06,-0.30015,-0.093586,-9.8233,0,0,36.981,1,1,7745,3872
4522,5.0183e+07,2,-0.00019265,0.0011661,0.00042675,-0.30248,-0.094556,-9.8238,0,0,36.981,1,1,7745,3872
4526,5.0185e+07,2,-0.00079916,3.8081e-05,0.0016996,-0.30418,-0.095407,-9.8213,0,0,36.981,1,1,7745,3872
4529,5.0188e+07,2,-0.00087977,-0.00014541,0.002448,-0.305,-0.095894,-9.8187,0,0,36.981,1,1,7745,3872
4560,5.0191e+07,2,-0.00037919,0.00013385,0.0017355,-0.30642,-0.094882,-9.8171,0,0,36.981,1,1,7745,3872
4563,5.0193e+07,2,7.7196e-05,0.00022849,0.0007593,-0.3087,-0.09268,-9.8169,0,0,36.981,1,1,7745,3872
4572,5.0196e+07,2,0.00021696,0.00065777,0.0004811,-0.31145,-0.089289,-9.8168,0,0,36.981,1,1,7745,3872
4576,5.0198e+07,2,-0.00017978,0.0006727,0.0011959,-0.31177,-0.086714,-9.8176,0,0,36.981,1,1,7745,3872
4607,5.0201e+07,2,-7.3393e-06,0.0013156,0.0024051,-0.31081,-0.085144,-9.8203,0,0,36.981,1,1,7745,3872
4610,5.0203e+07,2,0.00057526,0.0011392,0.0033847,-0.31047,-0.085928,-9.8213,0,0,36.981,1,1,7745,3872
4613,5.0206e+07,2,0.00059628,0.00081878,0.0035605,-0.30731,-0.087616,-9.8231,0,0,36.981,1,1,7745,3872
4617,5.0208e+07,2,0.00077117,0.00026656,0.0025583,-0.30429,-0.089232,-9.8248,0,0,36.981,1,1,7745,3872
4648,5.021e+07,2,0.0013454,-0.00023567,0.0015432,-0.30025,-0.091204,-9.827,0,0,36.981,1,1,7745,3872
4651,5.0213e+07,2,0.0017624,-0.00032319,0.0010015,-0.29865,-0.091804,-9.8285,0,0,36.981,1,1,7745,3872
4654,5.0215e+07,2,0.001607,-0.00069379,0.00098148,-0.29744,-0.092807,-9.8303,0,0,36.981,1,1,7745,3872
4657,5.0218e+07,2,0.00092441,-0.00016283,0.0017666,-0.2979,-0.093083,-9.8305,0,0,36.981,1,1,7745,3872
4688,5.0221e+07,2,0.00075038,0.00069482,0.0030433,-0.2991,-0.093317,-9.8309,0,0,36.981,1,1,7745,3872
4691,5.0223e+07,2,0.0011783,0.0011401,0.0033431,-0.30078,-0.093265,-9.8302,0,0,36.981,1,1,7745,3872
4694,5.0226e+07,2,0.0015682,0.001555,0.0031928,-0.30134,-0.095017,-9.8262,0,0,36.981,1,1,7745,3872
4698,5.0228e+07,2,0.00087992,0.0014318,0.0023931,-0.30101,-0.096849,-9.8245,0,0,36.981,1,1,7745,3872
4729,5.0231e+07,2,0.00036196,0.0022829,0.0012774,-0.30098,-0.098184,-9.8245,0,0,36.981,1,1,7745,3872
4732,5.0233e+07,2,0.00055258,0.0023499,0.00036076,-0.3009,-0.10044,-9.8256,0,0,36.981,1,1,7745,3872
4735,5.0235e+07,2,-2.2042e-05,0.00075268,-0.00081459,-0.30103,-0.10519,-9.8264,0,0,36.981,1,1,7745,3872
4738,5.024e+07,2,-7.1844e-05,0.0004803,-0.0010136,-0.30111,-0.11268,-9.8313,0,0,36.981,1,1,7745,3872
4769,5.0244e+07,2,0.00092297,0.00044217,0.00032999,-0.30203,-0.11481,-9.8324,0,0,36.981,1,1,7745,3872
4772,5.0245e+07,2,0.00096515,0.0002694,0.0010924,-0.30297,-0.1154,-9.8309,0,0,36.981,1,1,7745,3872
4776,5.0248e+07,2,0.00087422,-0.00064473,0.00093229,-0.30328,-0.11585,-9.8272,0,0,36.981,1,1,7745,3872
4779,5.0251e+07,2,0.00066886,-0.0013949,0.00067861,-0.30319,-0.11627,-9.823,0,0,36.981,1,1,7745,3872
4810,5.0253e+07,2,0.00010771,-0.00084497,-0.00063986,-0.30263,-0.11466,-9.8183,0,0,36.981,1,1,7745,3872
4813,5.0256e+07,2,-0.00025366,-0.00024221,-0.0011931,-0.30198,-0.11351,-9.8142,0,0,36.981,1,1,7745,3872
4816,5.0258e+07,2,-0.00036313,0.00090839,-0.001424,-0.30254,-0.11301,-9.8082,0,0,36.981,1,1,7745,3872
4819,5.0261e+07,2,-0.00051464,-0.00012174,-0.0012811,-0.30308,-0.11261,-9.8059,0,0,36.981,1,1,7745,3872
4850,5.0264e+07,2,-0.0014364,-0.00092972,8.9139e-05,-0.30402,-0.11276,-9.8038,0,0,36.981,1,1,7745,3872
4854,5.0267e+07,2,-0.0010898,-0.00096538,0.00055749,-0.30284,-0.11384,-9.8012,0,0,36.981,1,1,7745,3872
4858,5.0269e+07,2,-0.0011311,-0.00085499,0.00021988,-0.30145,-0.11444,-9.7999,0,0,36.981,1,1,7745,3872
4861,5.0271e+07,2,-0.0019561,-0.00052517,6.3793e-05,-0.29934,-0.1143,-9.798,0,0,36.981,1,1,7745,3872
4892,5.0274e+07,2,-0.0022325,-0.00046919,0.00021094,-0.29898,-0.11407,-9.7975,0,0,36.981,1,1,7745,3872
4895,5.0276e+07,2,-0.0018386,-3.3998e-05,0.00026019,-0.29931,-0.11312,-9.7966,0,0,36.981,1,1,7745,3872
4899,5.0279e+07,2,-0.0018746,0.0001913,-0.00020019,-0.30078,-0.11125,-9.7966,0,0,36.981,1,1,7745,3872
4902,5.0282e+07,2,-0.0013317,9.372e-05,-0.0013435,-0.30212,-0.10991,-9.8007,0,0,36.981,1,1,7745,3872
4933,5.0284e+07,2,-0.0018023,0.00014656,-0.0013347,-0.30271,-0.10862,-9.8047,0,0,36.981,1,1,7745,3872
4938,5.0287e+07,2,-0.0020457,0.00051114,-0.00090287,-0.30418,-0.10646,-9.8081,0,0,36.981,1,1,7745,3872
4941,5.0289e+07,2,-0.0021939,0.00093929,9.2818e-06,-0.30729,-0.10262,-9.8141,0,0,36.981,1,1,7745,3872
4944,5.0292e+07,2,-0.0026837,0.00021673,-0.00047341,-0.31002,-0.10075,-9.8193,0,0,36.981,1,1,7745,3872
4977,5.0294e+07,2,-0.0027364,9.66e-05,-0.0012742,-0.31254,-0.099462,-9.8252,0,0,36.981,1,1,7745,3872
4984,5.0298e+07,2,-0.0022834,0.00049423,-0.002116,-0.31317,-0.10021,-9.8271,0,0,36.981,1,1,7745,3872
4987,5.0299e+07,2,-0.00053727,0.00057052,-0.0019972,-0.31211,-0.10321,-9.8264,0,0,36.981,1,1,7745,3872
4990,5.0302e+07,2,-2.8632e-06,0.0002095,-0.0011156,-0.31059,-0.10455,-9.825,0,0,36.981,1,1,7745,3872
5021,5.0305e+07,2,-0.00054541,-0.0013362,-0.0004861,-0.3082,-0.10442,-9.821,0,0,36.981,1,1,7745,3872
5024,5.0307e+07,2,-0.0011002,-0.0016642,-0.00094385,-0.30642,-0.10507,-9.8163,0,0,36.981,1,1,7745,3872
5027,5.031e+07,2,-0.001418,-0.0013569,-0.00073669,-0.30453,-0.10564,-9.8121,0,0,36.981,1,1,7745,3872
5030,5.0313e+07,2,-0.0015416,-0.00012708,-0.00024547,-0.30135,-0.1047,-9.8068,0,0,36.981,1,1,7745,3872
5061,5.0315e+07,2,-0.0019971,0.00044639,0.00035018,-0.30061,-0.10433,-9.8059,0,0,36.981,1,1,7745,3872
5066,5.0317e+07,2,-0.0031359,0.00064922,0.0006683,-0.29905,-0.10371,-9.805,0,0,36.981,1,1,7745,3872
5070,5.032e+07,2,-0.0030965,0.00063502,0.00074635,-0.29843,-0.10295,-9.8056,0,0,36.981,1,1,7745,3872
5073,5.0323e+07,2,-0.003143,-5.2034e-05,-0.00026614,-0.29786,-0.1007,-9.807,0,0,36.981,1,1,7745,3872
5104,5.0325e+07,2,-0.0043757,0.00047539,-0.0013834,-0.29675,-0.097485,-9.8078,0,0,36.981,1,1,7745,3872
5107,5.0328e+07,2,-0.0042235,0.0015903,-0.0017147,-0.2972,-0.095797,-9.8086,0,0,36.981,1,1,7745,3872
5111,5.033e+07,2,-0.0024295,0.0020794,-0.0011755,-0.29902,-0.094688,-9.8105,0,0,36.981,1,1,7745,3872
5114,5.0335e+07,2,-0.0010954,0.00012146,0.0010173,-0.30039,-0.0925,-9.8217,0,0,36.981,1,1,7745,3872
5145,5.0338e+07,2,-0.0016314,-0.00022934,0.0019541,-0.29967,-0.091272,-9.8265,0,0,36.981,1,1,7745,3872
5149,5.034e+07,2,-0.0028821,0.00047979,0.0022118,-0.2991,-0.090523,-9.831,0,0,36.981,1,1,7745,3872
5152,5.0343e+07,2,-0.0031623,0.00087352,0.0017377,-0.29917,-0.089964,-9.8342,0,0,36.981,1,1,7745,3872
5155,5.0346e+07,2,-0.0026137,0.0008836,0.0013344,-0.30173,-0.090446,-9.8401,0,0,36.981,1,1,7745,3872
5186,5.0348e+07,2,-0.0024268,0.0012072,0.002105,-0.30314,-0.09141,-9.8424,0,0,36.981,1,1,7745,3872
5190,5.0353e+07,2,-0.0012949,0.00092806,0.00043248,-0.30301,-0.094058,-9.8355,0,0,36.981,1,1,7745,3872
5193,5.0356e+07,2,-0.00048617,0.00020123,-0.00038335,-0.30146,-0.095463,-9.8308,0,0,36.981,1,1,7745,3872
5224,5.0359e+07,2,0.00032574,0.00010165,-0.00066467,-0.29824,-0.096218,-9.8251,0,0,36.981,1,1,7745,3872
5227,5.0361e+07,2,0.00026011,0.00057618,-0.00039093,-0.29547,-0.095425,-9.8215,0,0,36.981,1,1,7745,3872
5230,5.0363e+07,2,-0.00043063,0.0016089,0.00070022,-0.2943,-0.094301,-9.8159,0,0,36.981,1,1,7745,3872
5233,5.0366e+07,2,-0.00085698,0.0015631,0.00072941,-0.29419,-0.093506,-9.8123,0,0,36.981,1,1,7745,3872
5264,5.0368e+07,2,-0.00053979,0.001702,0.00031663,-0.29321,-0.092036,-9.8118,0,0,36.981,1,1,7745,3872
5268,5.0371e+07,2,3.5703e-05,0.0019044,0.00082945,-0.29313,-0.09093,-9.8135,0,0,36.981,1,1,7745,3872
5271,5.0374e+07,2,-6.6322e-05,0.00036632,1.3237e-06,-0.29487,-0.087837,-9.8167,0,0,36.982,1,1,7745,3872
5274,5.0376e+07,2,-0.00031089,-0.00057885,0.00022561,-0.29546,-0.086868,-9.8176,0,0,36.982,1,1,7745,3872
5307,5.0379e+07,2,-6.0823e-05,-0.0015531,0.00077316,-0.29375,-0.085136,-9.8195,0,0,36.982,1,1,7745,3872
5310,5.0381e+07,2,0.00040367,-0.0018053,0.0010244,-0.29221,-0.085476,-9.821,0,0,36.982,1,1,7745,3872
5313,5.0384e+07,2,0.00090923,1.1975e-05,0.0010979,-0.29214,-0.087509,-9.8212,0,0,36.982,1,1,7745,3872
5317,5.0386e+07,2,0.0015091,0.00063888,0.001361,-0.2935,-0.08994,-9.8206,0,0,36.982,1,1,7745,3872
5348,5.0388e+07,2,0.0015314,5.9289e-05,0.00064218,-0.29696,-0.093318,-9.8194,0,0,36.982,1,1,7745,3872
5352,5.0391e+07,2,0.0015566,5.6034e-06,0.00038121,-0.2988,-0.09592,-9.8197,0,0,36.982,1,1,7745,3872
5355,5.0393e+07,2,0.00099381,0.00017746,0.00010749,-0.30017,-0.09937,-9.8223,0,0,36.982,1,1,7745,3872
5358,5.0396e+07,2,0.00014956,0.00022246,0.00031898,-0.30008,-0.10098,-9.824,0,0,36.982,1,1,7745,3872
5393,5.0399e+07,2,-0.00023634,-0.00012524,0.00096529,-0.29744,-0.10382,-9.8267,0,0,36.982,1,1,7745,3872
5396,5.0401e+07,2,0.00014498,-0.00097999,0.00019106,-0.29489,-0.10664,-9.8314,0,0,36.982,1,1,7745,3872
5400,5.0404e+07,2,-7.5913e-05,-0.00075859,-0.00044485,-0.29339,-0.10864,-9.834,0,0,36.982,1,1,7745,3872
5403,5.0407e+07,2,-0.00014047,-0.00036395,-5.6478e-05,-0.29245,-0.1103,-9.8341,0,0,36.983,1,1,7745,3872
5434,5.0409e+07,2,-0.00048447,-0.00055967,0.00037704,-0.29175,-0.11171,-9.8338,0,0,36.983,1,1,7745,3872
5438,5.0412e+07,2,-0.00033915,-0.00092305,0.00091289,-0.2926,-0.11244,-9.8341,0,0,36.983,1,1,7745,3872
5441,5.0414e+07,2,-0.00016835,-0.0012662,-0.00035698,-0.29409,-0.11227,-9.8336,0,0,36.983,1,1,7745,3872
5444,5.0416e+07,2,0.00053599,-0.0006847,-0.0012872,-0.29677,-0.11299,-9.8313,0,0,36.983,1,1,7745,3872
5475,5.0419e+07,2,0.0012141,0.00013018,-0.0010488,-0.29793,-0.11274,-9.83,0,0,36.983,1,1,7745,3872
5479,5.0422e+07,2,0.00073436,4.4013e-05,-0.00016596,-0.2982,-0.11158,-9.8275,0,0,36.983,1,1,7745,3872
5482,5.0424e+07,2,-6.3377e-05,0.00027391,4.0898e-05,-0.29846,-0.11194,-9.8249,0,0,36.983,1,1,7745,3872
5485,5.0426e+07,2,-0.00025608,0.00070322,-0.00058697,-0.30124,-0.11386,-9.8229,0,0,36.983,1,1,7745,3872
5516,5.0429e+07,2,-0.00098787,0.00077811,-0.00078159,-0.30351,-0.11554,-9.823,0,0,36.983,1,1,7745,3872
5519,5.0432e+07,2,-0.001566,0.00097077,-0.0016301,-0.30589,-0.11869,-9.8239,0,0,36.983,1,1,7745,3872
5522,5.0434e+07,2,-0.0014567,0.00079853,-0.0015668,-0.30598,-0.1216,-9.8225,0,0,36.983,1,1,7745,3872
5525,5.0437e+07,2,-0.0011898,0.0015838,-0.0014358,-0.30371,-0.12233,-9.8229,0,0,36.983,1,1,7745,3872
5556,5.0439e+07,2,-0.00064649,0.0014259,-0.0013987,-0.30208,-0.11935,-9.8272,0,0,36.983,1,1,7745,3872
5560,5.0442e+07,2,-0.0010663,0.00070875,-0.0017749,-0.30196,-0.11839,-9.8288,0,0,36.983,1,1,7745,3872
5563,5.0444e+07,2,-0.0010779,-0.00045628,-0.001225,-0.30235,-0.11777,-9.8305,0,0,36.983,1,1,7745,3872
5566,5.0449e+07,2,-0.0015718,-0.0016741,-0.0010036,-0.30412,-0.11621,-9.8314,0,0,36.982,1,1,7745,3872
5597,5.0452e+07,2,-0.0019118,-0.0011784,-0.0013756,-0.3061,-0.11456,-9.8333,0,0,36.982,1,1,7745,3872
5600,5.0457e+07,2,-0.0027072,-0.0019862,-0.00015506,-0.30589,-0.11158,-9.8356,0,0,36.982,1,1,7745,3872
5604,5.046e+07,2,-0.0020209,-0.0025614,-8.2132e-05,-0.30393,-0.1078,-9.8306,0,0,36.982,1,1,7745,3872
5635,5.0462e+07,2,-0.0021387,-0.0019855,-0.00034952,-0.30309,-0.10365,-9.8208,0,0,36.982,1,1,7745,3872
5639,5.0465e+07,2,-0.0023371,-0.0022144,8.364e-05,-0.30335,-0.1013,-9.8162,0,0,36.982,1,1,7745,3872
5642,5.0468e+07,2,-0.0032089,-0.002412,0.0010025,-0.30463,-0.098413,-9.812,0,0,36.982,1,1,7745,3872
5645,5.047e+07,2,-0.0035405,-0.0017126,0.0011997,-0.30577,-0.098682,-9.8103,0,0,36.982,1,1,7745,3872
5676,5.0473e+07,2,-0.0036335,-0.00052952,0.00053906,-0.30773,-0.099177,-9.8095,0,0,36.982,1,1,7745,3872
5680,5.0475e+07,2,-0.0032931,-0.0003125,0.00071402,-0.30959,-0.098949,-9.8068,0,0,36.982,1,1,7745,3872
5683,5.0477e+07,2,-0.0025144,-7.4627e-05,0.00071935,-0.30927,-0.099482,-9.804,0,0,36.982,1,1,7745,3872
5686,5.048e+07,2,-0.00082162,0.00050644,-0.00084702,-0.3074,-0.10037,-9.7998,0,0,36.982,1,1,7745,3872
5717,5.0483e+07,2,-0.00057937,0.0009007,-0.00092196,-0.3064,-0.10125,-9.8004,0,0,36.982,1,1,7745,3872
5720,5.0485e+07,2,-0.00061911,0.00068351,-0.0016225,-0.30509,-0.10157,-9.8061,0,0,36.982,1,1,7745,3872
5723,5.0488e+07,2,-0.00064425,0.00014288,-0.0010428,-0.30483,-0.10196,-9.8085,0,0,36.982,1,1,7745,3872
5726,5.049e+07,2,-0.0006738,-0.00032146,5.6132e-05,-0.30433,-0.10303,-9.8085,0,0,36.982,1,1,7745,3872
5757,5.0493e+07,2,0.00015652,-0.00094166,0.0005367,-0.30368,-0.10326,-9.8074,0,0,36.981,1,1,7745,3872
5761,5.0496e+07,2,0.00020759,-0.0010966,0.00076373,-0.30412,-0.10333,-9.806,0,0,36.981,1,1,7745,3872
5764,5.0497e+07,2,-0.00064076,-0.00056323,0.00069397,-0.30663,-0.10283,-9.8035,0,0,36.981,1,1,7745,3872
5771,5.05e+07,2,-0.0015469,-0.00040068,0.00058034,-0.30773,-0.1022,-9.8041,0,0,36.981,1,1,7745,3872
5802,5.0503e+07,2,-0.0020909,-0.00028096,0.00042591,-0.30814,-0.10195,-9.8047,0,0,36.981,1,1,7745,3872
5805,5.0505e+07,2,-0.0013742,0.00097761,-0.0004916,-0.30788,-0.10067,-9.8016,0,0,36.981,1,1,7745,3872
5808,5.0508e+07,2,-0.00092364,0.0013584,-0.00045654,-0.30761,-0.099735,-9.7972,0,0,36.981,1,1,7745,3872
5811,5.051e+07,2,0.00028603,0.0016475,-0.0003818,-0.30744,-0.098497,-9.7943,0,0,36.981,1,1,7745,3872
5842,5.0513e+07,2,0.00058948,0.0014293,-0.00055659,-0.30674,-0.098726,-9.7948,0,0,36.981,1,1,7745,3872
5846,5.0515e+07,2,3.9249e-05,0.00079968,-0.0017174,-0.30555,-0.099515,-9.8006,0,0,36.981,1,1,7745,3872
5851,5.0518e+07,2,5.105e-05,0.0002043,-0.0014814,-0.30404,-0.10025,-9.8054,0,0,36.981,1,1,7745,3872
5854,5.0521e+07,2,0.00015155,-0.0010664,-0.00019876,-0.30188,-0.10195,-9.8058,0,0,36.981,1,1,7745,3872
5885,5.0523e+07,2,0.00057778,-0.0016693,2.8179e-05,-0.30041,-0.10257,-9.8018,0,0,36.981,1,1,7745,3872
5888,5.0525e+07,2,5.3216e-06,-5.7816e-05,-0.00026799,-0.29993,-0.10236,-9.796,0,0,36.981,1,1,7745,3872
5891,5.0528e+07,2,-0.00010069,0.0014842,0.0001536,-0.29989,-0.10036,-9.7953,0,0,36.981,1,1,7745,3872
5894,5.0531e+07,2,0.00088837,0.0024176,0.00061724,-0.29998,-0.097336,-9.7975,0,0,36.981,1,1,7745,3872
5925,5.0536e+07,2,0.0023614,0.0011862,-0.00031057,-0.29795,-0.088778,-9.8051,0,0,36.981,1,1,7745,3872
5929,5.0539e+07,2,0.0029981,0.00070636,-0.0023351,-0.29711,-0.08525,-9.8079,0,0,36.981,1,1,7745,3872
5932,5.0541e+07,2,0.0029035,0.00056201,-0.0023877,-0.29798,-0.084266,-9.8113,0,0,36.981,1,1,7745,3872
5963,5.0544e+07,2,0.002342,-0.00065605,-0.0023912,-0.29999,-0.085722,-9.8183,0,0,36.981,1,1,7745,3872
5966,5.0546e+07,2,0.0013974,-0.001393,-0.0023125,-0.30143,-0.087268,-9.8255,0,0,36.981,1,1,7745,3872
5969,5.0549e+07,2,0.00084563,-0.0013242,-0.0018321,-0.30194,-0.091197,-9.8368,0,0,36.981,1,1,7745,3872
5972,5.0551e+07,2,0.0010009,-0.001216,-0.0011024,-0.30188,-0.094804,-9.8433,0,0,36.981,1,1,7745,3872
6003,5.0556e+07,2,0.00033951,-0.00032719,0.00041464,-0.30064,-0.099411,-9.8505,0,0,36.982,1,1,7745,3872
6006,5.0559e+07,2,-0.00019648,-0.00051605,0.0010743,-0.2998,-0.10066,-9.8422,0,0,36.982,1,1,7745,3872
6009,5.0561e+07,2,0.00032065,-0.00035494,0.0015198,-0.29967,-0.10187,-9.8369,0,0,36.982,1,1,7745,3872
6040,5.0563e+07,2,0.00069598,-4.3341e-06,0.0016435,-0.30005,-0.10376,-9.8322,0,0,36.982,1,1,7745,3872
6043,5.0566e+07,2,0.00012413,0.00037253,0.0020594,-0.30081,-0.10558,-9.8282,0,0,36.982,1,1,7745,3872
6047,5.0569e+07,2,-6.2653e-05,0.00067157,0.0017326,-0.30308,-0.10693,-9.8228,0,0,36.982,1,1,7745,3872
6050,5.0571e+07,2,-0.00016442,0.00078025,0.0017909,-0.30466,-0.10665,-9.8201,0,0,36.982,1,1,7745,3872
6081,5.0573e+07,2,-0.00088192,0.00058201,0.0011275,-0.30786,-0.10502,-9.8171,0,0,36.982,1,1,7745,3872
6084,5.0576e+07,2,-0.00077264,0.00057813,0.00044948,-0.30867,-0.10542,-9.8147,0,0,36.982,1,1,7745,3872
6088,5.0579e+07,2,0.00046246,-0.00017433,0.00030234,-0.3093,-0.10878,-9.81,0,0,36.982,1,1,7745,3872
6093,5.0582e+07,2,0.00063224,-0.00077993,0.00068766,-0.31047,-0.11067,-9.8072,0,0,36.981,1,1,7745,3872
6096,5.0583e+07,2,3.9371e-05,-0.00098665,-0.00024772,-0.3109,-0.11182,-9.8076,0,0,36.981,1,1,7745,3872
6127,5.0586e+07,2,3.6969e-05,-0.00037031,-0.00085953,-0.30887,-0.11169,-9.8081,0,0,36.981,1,1,7745,3872
6130,5.0589e+07,2,0.00022647,0.00066082,-0.00017716,-0.3032,-0.11125,-9.8057,0,0,36.981,1,1,7745,3872
6133,5.0591e+07,2,-0.00027367,0.00081298,0.00079993,-0.29983,-0.1113,-9.8038,0,0,36.981,1,1,7745,3872
6136,5.0594e+07,2,-0.00049459,0.00013232,0.0014604,-0.29649,-0.11201,-9.8042,0,0,36.981,1,1,7745,3872
6167,5.0596e+07,2,-0.00056847,0.00014584,0.0017128,-0.29535,-0.11167,-9.8043,0,0,36.981,1,1,7745,3872
6171,5.0599e+07,2,-0.00078677,7.219e-05,0.0011703,-0.29482,-0.10955,-9.8031,0,0,36.981,1,1,7745,3872
6178,5.0602e+07,2,-0.0012596,0.00039505,0.00049283,-0.2958,-0.10617,-9.8049,0,0,36.981,1,1,7745,3872
6181,5.0604e+07,2,-0.0017375,0.0011802,0.00043117,-0.29724,-0.10469,-9.8068,0,0,36.981,1,1,7745,3872
6184,5.0607e+07,2,-0.0028455,0.0012751,0.00070312,-0.29927,-0.10207,-9.8087,0,0,36.981,1,1,7745,3872
6215,5.0609e+07,2,-0.0028656,0.001654,0.00066267,-0.30126,-0.09931,-9.8122,0,0,36.981,1,1,7745,3872
6218,5.0612e+07,2,-0.0023225,0.0014266,0.0013362,-0.30186,-0.09805,-9.8158,0,0,36.981,1,1,7745,3872
6221,5.0614e+07,2,-0.002221,0.00119,0.0019956,-0.30234,-0.096011,-9.8208,0,0,36.981,1,1,7745,3872
6224,5.0617e+07,2,-0.0018812,0.00088324,0.0018428,-0.30215,-0.095149,-9.8239,0,0,36.981,1,1,7745,3872
6255,5.062e+07,2,-0.0018229,-0.00077798,0.0016251,-0.29846,-0.095187,-9.8275,0,0,36.981,1,1,7745,3872
6259,5.0622e+07,2,-0.0017001,-0.001394,0.0008357,-0.29456,-0.09582,-9.8305,0,0,36.981,1,1,7745,3872
6262,5.0624e+07,2,-0.00092473,-0.0015672,0.00088606,-0.29076,-0.097777,-9.8329,0,0,36.981,1,1,7745,3872
6265,5.0627e+07,2,-0.00034829,-0.0012018,0.00063063,-0.28788,-0.1021,-9.8357,0,0,36.981,1,1,7745,3872
6296,5.063e+07,2,-0.00071338,-0.001,0.00018358,-0.28461,-0.10922,-9.8369,0,0,36.98,1,1,7745,3872
6300,5.0632e+07,2,-0.0011219,-0.0011349,0.00012053,-0.28311,-0.11353,-9.8345,0,0,36.98,1,1,7745,3872
6303,5.0634e+07,2,-0.00095881,-0.00074366,0.00035925,-0.2839,-0.11815,-9.8299,0,0,36.98,1,1,7745,3872
6306,5.0636e+07,2,-0.00051553,0.00039788,0.00068619,-0.28569,-0.11934,-9.8266,0,0,36.98,1,1,7745,3872
6337,5.0639e+07,2,-0.0012949,0.00096083,0.0010284,-0.28767,-0.11846,-9.8204,0,0,36.98,1,1,7745,3872
6342,5.0642e+07,2,-0.00090581,0.00072119,0.00085282,-0.28872,-0.1175,-9.8176,0,0,36.98,1,1,7745,3872
6345,5.0649e+07,2,0.00011004,-0.0012603,-0.00061904,-0.29779,-0.10697,-9.8135,0,0,36.98,1,1,7745,3872
6376,5.0652e+07,2,-0.00034127,-0.0010744,-0.0013022,-0.30033,-0.10445,-9.819,0,0,36.98,1,1,7745,3872
6379,5.0654e+07,2,0.00027138,-0.0012849,-0.00096008,-0.30121,-0.10085,-9.8305,0,0,36.98,1,1,7745,3872
6382,5.0657e+07,2,-2.0174e-05,-0.0016593,3.8526e-05,-0.30017,-0.099169,-9.8371,0,0,36.98,1,1,7745,3872
6385,5.0659e+07,2,-0.0015138,-0.001787,0.00090197,-0.30016,-0.098709,-9.8425,0,0,36.98,1,1,7745,3872
6417,5.0662e+07,2,-0.0017459,-0.0014146,0.00091761,-0.30147,-0.10015,-9.8439,0,0,36.98,1,1,7745,3872
6420,5.0664e+07,2,-0.0020842,-0.00074714,0.00055715,-0.30258,-0.10106,-9.8412,0,0,36.98,1,1,7745,3872
6423,5.0666e+07,2,-0.0017813,-0.00061248,0.00077031,-0.30293,-0.10303,-9.8381,0,0,36.98,1,1,7745,3872
6426,5.067e+07,2,-0.00065758,-0.00055291,0.00064433,-0.30084,-0.10808,-9.835,0,0,36.98,1,1,7745,3872
6457,5.0672e+07,2,-0.0005148,-0.00041088,0.00011669,-0.29821,-0.11061,-9.8326,0,0,36.98,1,1,7745,3872
6461,5.0674e+07,2,-8.3699e-05,-0.00046839,-0.00090837,-0.29379,-0.11266,-9.8299,0,0,36.98,1,1,7745,3872
6464,5.0677e+07,2,0.00045775,-0.00048522,-0.00096558,-0.29216,-0.11265,-9.8278,0,0,36.98,1,1,7745,3872
6468,5.068e+07,2,0.00096458,-0.00035524,-0.0002746,-0.29223,-0.11174,-9.8249,0,0,36.98,1,1,7745,3872
6499,5.0683e+07,2,-0.00093091,-0.0001393,0.00076888,-0.29634,-0.1117,-9.8246,0,0,36.98,1,1,7745,3872
6502,5.0685e+07,2,-0.00088247,-4.0211e-05,0.00082459,-0.29805,-0.1107,-9.8248,0,0,36.979,1,1,7745,3872
6505,5.0687e+07,2,-0.00068597,4.3606e-05,0.00062179,-0.29849,-0.10744,-9.8248,0,0,36.979,1,1,7745,3872
6508,5.069e+07,2,4.8501e-05,0.00072655,0.00072869,-0.2985,-0.10243,-9.8235,0,0,36.979,1,1,7745,3872
6539,5.0693e+07,2,0.00042449,0.00073057,0.00061517,-0.29935,-0.10032,-9.8214,0,0,36.979,1,1,7745,3872
6543,5.0695e+07,2,0.00035489,0.00059385,-1.2051e-06,-0.29989,-0.099142,-9.8174,0,0,36.979,1,1,7745,3872
6546,5.0697e+07,2,-0.00026504,0.00034394,-0.00093206,-0.29985,-0.098728,-9.8105,0,0,36.979,1,1,7745,3872
6549,5.07e+07,2,-0.0003078,0.00058831,-0.00091536,-0.29915,-0.098349,-9.8089,0,0,36.979,1,1,7745,3872
6584,5.0703e+07,2,9.3184e-05,0.00052163,-0.00071371,-0.29875,-0.098293,-9.8068,0,0,36.979,1,1,7745,3872
6588,5.0705e+07,2,0.00038502,0.0006353,-0.00095571,-0.29877,-0.10098,-9.8045,0,0,36.979,1,1,7745,3872
6591,5.0708e+07,2,0.00031704,0.00038768,-0.00070185,-0.29764,-0.10276,-9.8029,0,0,36.979,1,1,7745,3872
6594,5.071e+07,2,0.00039182,0.00063683,-0.00052728,-0.29876,-0.10438,-9.8018,0,0,36.978,1,1,7745,3872
6625,5.0713e+07,2,0.0003303,0.00026178,2.4943e-05,-0.30146,-0.10487,-9.8038,0,0,36.978,1,1,7745,3872
6628,5.0715e+07,2,0.00032157,-0.00037871,0.00078783,-0.30599,-0.10489,-9.811,0,0,36.978,1,1,7745,3872
6631,5.0718e+07,2,-9.4976e-07,-0.00054211,0.00099035,-0.3101,-0.10221,-9.8144,0,0,36.978,1,1,7745,3872
6634,5.0721e+07,2,-2.954e-07,-0.00046273,0.0007528,-0.31666,-0.098364,-9.8191,0,0,36.978,1,1,7745,3872
6665,5.0723e+07,2,0.00011176,0.00026727,0.0011408,-0.32032,-0.096651,-9.8213,0,0,36.978,1,1,7745,3872
6669,5.0726e+07,2,7.9517e-05,0.00047389,0.001277,-0.32219,-0.095175,-9.8212,0,0,36.978,1,1,7745,3872
6672,5.0728e+07,2,0.00040689,0.00033847,0.0011403,-0.32161,-0.093961,-9.8212,0,0,36.978,1,1,7745,3872
6676,5.0731e+07,2,0.00058851,0.00022844,0.00047726,-0.31998,-0.093145,-9.8205,0,0,36.978,1,1,7745,3872
6707,5.0733e+07,2,0.00043935,-0.00077938,0.0010278,-0.31516,-0.094764,-9.8207,0,0,36.978,1,1,7745,3872
6710,5.0736e+07,2,0.00089862,-0.0013048,0.00047191,-0.31145,-0.096621,-9.8224,0,0,36.978,1,1,7745,3872
6714,5.0739e+07,2,0.0012153,-0.0012418,0.00019906,-0.30504,-0.099024,-9.8269,0,0,36.978,1,1,7745,3872
6717,5.0741e+07,2,0.0011419,-0.00089332,0.00030977,-0.29995,-0.099398,-9.8319,0,0,36.978,1,1,7745,3872
6748,5.0747e+07,2,-0.0014228,-0.00011878,0.00089846,-0.29076,-0.1004,-9.831,0,0,36.978,1,1,7745,3872
6752,5.0749e+07,2,-0.00099708,-0.00060018,0.00050458,-0.29063,-0.10469,-9.8297,0,0,36.978,1,1,7745,3872
6755,5.0751e+07,2,-0.0011262,-0.0011695,-0.00039659,-0.2913,-0.10598,-9.8298,0,0,36.978,1,1,7745,3872
6786,5.0754e+07,2,-0.0016949,-0.0023003,-0.0010933,-0.29331,-0.10773,-9.8306,0,0,36.978,1,1,7745,3872
6789,5.0757e+07,2,-0.0018986,-0.002574,-0.00098863,-0.29786,-0.10886,-9.8308,0,0,36.978,1,1,7745,3872
6793,5.0759e+07,2,-0.0018523,-0.0022285,-8.5276e-05,-0.30238,-0.10916,-9.8293,0,0,36.978,1,1,7745,3872
6796,5.0764e+07,2,0.00026418,-0.0011273,0.00078994,-0.30629,-0.11119,-9.8248,0,0,36.978,1,1,7745,3872
6827,5.0767e+07,2,-0.00012398,-0.00014161,0.00073306,-0.30375,-0.11124,-9.8234,0,0,36.978,1,1,7745,3872
6830,5.0769e+07,2,0.00029905,0.0002715,0.00064521,-0.30321,-0.10909,-9.8225,0,0,36.978,1,1,7745,3872
6833,5.0771e+07,2,0.00080251,0.00017858,0.00093118,-0.30354,-0.10421,-9.8181,0,0,36.978,1,1,7745,3872
6836,5.0774e+07,2,0.00053087,0.00014171,0.0018559,-0.30319,-0.10062,-9.816,0,0,36.978,1,1,7745,3872
6867,5.0777e+07,2,-0.00056642,-0.0012207,0.00085996,-0.3033,-0.098545,-9.8141,0,0,36.978,1,1,7745,3872
6871,5.078e+07,2,-0.0020996,-0.0016262,0.00055559,-0.30316,-0.098627,-9.8128,0,0,36.979,1,1,7745,3872
6874,5.0782e+07,2,-0.0028359,-0.0013021,0.0002751,-0.30123,-0.099026,-9.8123,0,0,36.979,1,1,7745,3872
6878,5.0784e+07,2,-0.0019084,-0.000662,0.0011183,-0.29914,-0.10035,-9.811,0,0,36.979,1,1,7745,3872
6913,5.0788e+07,2,-0.0014721,-0.00033533,0.0016024,-0.29719,-0.1013,-9.8105,0,0,36.979,1,1,7745,3872
6916,5.0789e+07,2,-0.00069791,0.0011411,0.0025792,-0.29415,-0.10278,-9.8128,0,0,36.979,1,1,7745,3872
6919,5.0792e+07,2,-0.00075039,0.0013665,0.0014567,-0.29206,-0.10323,-9.8165,0,0,36.979,1,1,7745,3872
6922,5.0794e+07,2,-0.00048021,0.0010105,0.00069329,-0.29006,-0.10307,-9.8197,0,0,36.979,1,1,7745,3872
6953,5.0797e+07,2,-0.00079593,0.00044233,0.00016398,-0.28926,-0.10394,-9.8199,0,0,36.979,1,1,7745,3872
6957,5.08e+07,2,-0.00091711,0.0001696,-0.00053111,-0.28898,-0.10415,-9.8208,0,0,36.979,1,1,7745,3872
6960,5.0802e+07,2,-0.0010171,0.00030361,-0.00072963,-0.29017,-0.10321,-9.8216,0,0,36.979,1,1,7745,3872
6967,5.0805e+07,2,-0.0011015,0.00011425,-0.00035544,-0.29165,-0.10049,-9.8181,0,0,36.979,1,1,7745,3872
6998,5.0807e+07,2,-0.0014327,0.00082938,-0.00018332,-0.29247,-0.098943,-9.813,0,0,36.979,1,1,7745,3872
7001,5.081e+07,2,-0.0015377,0.0010026,-0.0002031,-0.29292,-0.098625,-9.8094,0,0,36.979,1,1,7745,3872
7004,5.0813e+07,2,-0.0022674,0.00056596,-7.5429e-05,-0.29393,-0.099497,-9.8045,0,0,36.98,1,1,7745,3872
7007,5.0815e+07,2,-0.002377,0.00018907,0.00046074,-0.29411,-0.09988,-9.8033,0,0,36.98,1,1,7745,3872
7038,5.0818e+07,2,-0.0015224,-0.00042962,0.0014509,-0.29459,-0.099646,-9.8027,0,0,36.98,1,1,7745,3872
7042,5.082e+07,2,-0.0013226,-0.00050603,0.0015924,-0.295,-0.098317,-9.805,0,0,36.98,1,1,7745,3872
7045,5.0822e+07,2,-0.00051917,0.00014838,0.0016147,-0.29683,-0.096826,-9.8078,0,0,36.98,1,1,7745,3872
7048,5.0825e+07,2,-0.00031618,0.0012041,0.002096,-0.29958,-0.097744,-9.8091,0,0,36.98,1,1,7745,3872
7079,5.0828e+07,2,-0.00054871,0.0010613,0.0014415,-0.30314,-0.10036,-9.8122,0,0,36.98,1,1,7745,3872
7084,5.083e+07,2,-0.00056591,0.00085328,0.0005823,-0.30478,-0.10168,-9.8125,0,0,36.98,1,1,7745,3872
7087,5.0833e+07,2,-0.00043652,0.0012816,-0.00022945,-0.30685,-0.10091,-9.8114,0,0,36.98,1,1,7745,3872
7090,5.0835e+07,2,-0.00048315,0.0016978,-0.00031113,-0.3068,-0.099503,-9.8126,0,0,36.98,1,1,7745,3872
7121,5.0837e+07,2,-0.00061938,0.0016788,-0.0013465,-0.30415,-0.09767,-9.8218,0,0,36.98,1,1,7745,3872
7125,5.0841e+07,2,-0.00069493,0.0016098,-0.00095139,-0.30185,-0.097011,-9.8279,0,0,36.98,1,1,7745,3872
7128,5.0843e+07,2,-0.00027712,0.0024131,-0.00036774,-0.29904,-0.097371,-9.8336,0,0,36.98,1,1,7745,3872
7131,5.0845e+07,2,0.00031698,0.0022972,0.0005553,-0.29916,-0.098099,-9.8356,0,0,36.98,1,1,7745,3872
7162,5.0847e+07,2,0.00052659,0.0010101,0.0005312,-0.29993,-0.098469,-9.8373,0,0,36.98,1,1,7745,3872
7167,5.085e+07,2,0.0011134,-0.00031084,0.00026829,-0.3003,-0.098857,-9.8377,0,0,36.98,1,1,7745,3872
7170,5.0853e+07,2,0.0012307,-0.0010714,0.00035247,-0.29987,-0.101,-9.8381,0,0,36.98,1,1,7745,3872
7173,5.0856e+07,2,0.00055244,-0.0012328,0.00069651,-0.29898,-0.10174,-9.8394,0,0,36.98,1,1,7745,3872
7176,5.0857e+07,2,-0.00072171,-0.0022734,0.00086932,-0.29654,-0.10227,-9.8385,0,0,36.981,1,1,7745,3872
7207,5.086e+07,2,-0.0013892,-0.0030128,0.0015105,-0.29626,-0.10383,-9.8394,0,0,36.981,1,1,7745,3872
7210,5.0862e+07,2,-0.0011471,-0.0025361,0.0016482,-0.29585,-0.10369,-9.8421,0,0,36.981,1,1,7745,3872
7213,5.0865e+07,2,-0.0010461,-0.0017469,0.001243,-0.29474,-0.10203,-9.8446,0,0,36.981,1,1,7745,3872
7216,5.0868e+07,2,0.00014596,-0.0014673,-0.00045298,-0.29309,-0.099245,-9.8494,0,0,36.981,1,1,7745,3872
7247,5.087e+07,2,0.00095294,-0.0012714,-0.0014129,-0.29302,-0.095308,-9.8547,0,0,36.981,1,1,7745,3872
7251,5.0873e+07,2,0.0011572,-0.0013508,-0.0012664,-0.29295,-0.09333,-9.8556,0,0,36.981,1,1,7745,3872
7254,5.0875e+07,2,5.7487e-05,-0.0018417,-0.00037215,-0.29367,-0.093931,-9.8512,0,0,36.981,1,1,7745,3872
7258,5.0878e+07,2,2.9467e-05,-0.0019827,3.5843e-05,-0.2952,-0.094786,-9.8466,0,0,36.981,1,1,7745,3872
7289,5.0881e+07,2,0.0011388,-0.0018514,-0.00063728,-0.29706,-0.095843,-9.8408,0,0,36.981,1,1,7745,3872
7293,5.0883e+07,2,0.0016261,-0.0015387,-0.0014085,-0.29865,-0.095749,-9.8306,0,0,36.981,1,1,7745,3872
7296,5.0886e+07,2,0.0016029,-0.001332,-0.0015349,-0.29887,-0.095741,-9.8238,0,0,36.981,1,1,7745,3872
7299,5.0889e+07,2,0.0020583,-0.0016722,-0.00048991,-0.29964,-0.09794,-9.8184,0,0,36.981,1,1,7745,3872
7330,5.0891e+07,2,0.0021239,-0.0014185,0.00040519,-0.30131,-0.10081,-9.8156,0,0,36.981,1,1,7745,3872
7333,5.0894e+07,2,0.0018193,-0.0015111,0.00081639,-0.30249,-0.1028,-9.8104,0,0,36.981,1,1,7745,3872
7336,5.0896e+07,2,0.0015435,-0.001656,0.0010186,-0.30301,-0.10321,-9.8068,0,0,36.981,1,1,7745,3872
7339,5.0899e+07,2,0.00098565,-0.0015295,0.00068869,-0.30498,-0.10406,-9.8028,0,0,36.981,1,1,7745,3872
7371,5.0901e+07,2,0.0004391,-0.00056896,0.0013318,-0.30489,-0.10569,-9.8015,0,0,36.981,1,1,7745,3872
7375,5.0904e+07,2,-0.0002197,-0.00026188,0.00082793,-0.3044,-0.10669,-9.8041,0,0,36.982,1,1,7745,3872
7382,5.0907e+07,2,-0.00085439,4.2929e-05,0.00046949,-0.30468,-0.1067,-9.8089,0,0,36.982,1,1,7745,3872
7385,5.0909e+07,2,-0.0014925,0.00037072,3.8404e-05,-0.30523,-0.10688,-9.8163,0,0,36.982,1,1,7745,3872
7416,5.0911e+07,2,-0.0011182,0.0004028,-0.00079302,-0.30545,-0.10748,-9.8178,0,0,36.982,1,1,7745,3872
7420,5.0913e+07,2,-0.00068856,0.00049048,-0.00019068,-0.30692,-0.11075,-9.8205,0,0,36.982,1,1,7745,3872
7423,5.0916e+07,2,-0.00063524,0.00038276,0.00020856,-0.30778,-0.11214,-9.8219,0,0,36.982,1,1,7745,3872
7426,5.0919e+07,2,-0.00022775,-0.00031689,0.0013098,-0.3086,-0.11496,-9.8246,0,0,36.982,1,1,7745,3872
7457,5.0921e+07,2,-0.0012996,-0.00082006,0.0024692,-0.31104,-0.11756,-9.8283,0,0,36.982,1,1,7745,3872
7461,5.0924e+07,2,-0.0013913,-0.00069302,0.001761,-0.31253,-0.11875,-9.8289,0,0,36.982,1,1,7745,3872
7464,5.0926e+07,2,-0.00038712,-8.4557e-06,0.0003312,-0.31316,-0.12168,-9.8279,0,0,36.982,1,1,7745,3872
7467,5.0929e+07,2,9.453e-05,0.00083095,-0.00035836,-0.31253,-0.12291,-9.8278,0,0,36.983,1,1,7745,3872
7498,5.0932e+07,2,-0.00015901,0.0017289,-0.0018835,-0.30964,-0.12324,-9.8282,0,0,36.983,1,1,7745,3872
7501,5.0934e+07,2,-0.00074937,0.0020944,-0.0026032,-0.3071,-0.12324,-9.8278,0,0,36.983,1,1,7745,3872
7504,5.0936e+07,2,-0.0015734,0.0018634,-0.0030076,-0.30508,-0.12156,-9.8247,0,0,36.983,1,1,7745,3872
7507,5.0939e+07,2,-0.0015678,0.001387,-0.0026589,-0.3047,-0.12084,-9.8235,0,0,36.983,1,1,7745,3872
7538,5.0942e+07,2,-0.0012677,0.0004927,-0.0021199,-0.30271,-0.11617,-9.8194,0,0,36.983,1,1,7745,3872
7543,5.0945e+07,2,-0.000534,-0.0003292,-0.0020778,-0.30168,-0.11512,-9.8194,0,0,36.983,1,1,7745,3872
7546,5.0946e+07,2,8.8738e-05,-0.0010556,-0.0020706,-0.29887,-0.11187,-9.8217,0,0,36.983,1,1,7745,3872
7549,5.0949e+07,2,-0.0003524,-0.00097779,-0.0015284,-0.29699,-0.10984,-9.8259,0,0,36.983,1,1,7745,3872
7580,5.0951e+07,2,-0.0026464,-0.00078953,-0.00044172,-0.29479,-0.10879,-9.8276,0,0,36.983,1,1,7745,3872
7585,5.0957e+07,2,-0.0022639,-0.00068807,-0.00038809,-0.29378,-0.10399,-9.8209,0,0,36.984,1,1,7745,3872
7589,5.0959e+07,2,-0.0023315,-0.0005221,-0.0011767,-0.29348,-0.10149,-9.82,0,0,36.984,1,1,7745,3872
7620,5.0961e+07,2,-0.0024563,-0.0004577,-0.00098146,-0.29536,-0.09967,-9.8203,0,0,36.984,1,1,7745,3872
7623,5.0964e+07,2,-0.0023003,-0.00060487,-0.0010108,-0.29728,-0.097529,-9.8228,0,0,36.984,1,1,7745,3872
7627,5.0967e+07,2,-0.0018184,-0.00072217,-0.0014877,-0.30122,-0.094397,-9.8277,0,0,36.984,1,1,7745,3872
7630,5.0969e+07,2,-0.0011481,2.4693e-06,-0.0013564,-0.30267,-0.093596,-9.8324,0,0,36.984,1,1,7745,3872
7661,5.0972e+07,2,0.00014092,0.0020162,-0.00047293,-0.3034,-0.092951,-9.8381,0,0,36.984,1,1,7745,3872
7665,5.0974e+07,2,0.00068813,0.0021995,-0.00053806,-0.30358,-0.092289,-9.844,0,0,36.984,1,1,7745,3872
7668,5.0977e+07,2,0.00096029,0.0014609,-0.00071915,-0.30268,-0.093523,-9.8457,0,0,36.984,1,1,7745,3872
7671,5.0979e+07,2,-3.2253e-06,0.00062692,-0.0022493,-0.30233,-0.095969,-9.8462,0,0,36.984,1,1,7745,3872
7702,5.0982e+07,2,-0.00042666,0.0005633,-0.0022836,-0.30334,-0.096871,-9.8461,0,0,36.984,1,1,7745,3872
7705,5.0984e+07,2,-0.00057826,0.00029288,-0.0025982,-0.30563,-0.097549,-9.844,0,0,36.985,1,1,7745,3872
7708,5.0987e+07,2,-0.0004636,0.00012331,-0.0028957,-0.30579,-0.09751,-9.8434,0,0,36.985,1,1,7745,3872
7713,5.099e+07,2,-0.00094797,0.00060279,-0.0019206,-0.30633,-0.099907,-9.8397,0,0,36.985,1,1,7745,3872
7744,5.0993e+07,2,-0.001241,0.00042739,-0.00078819,-0.30681,-0.10116,-9.8358,0,0,36.985,1,1,7745,3872
7748,5.0995e+07,2,-0.00097916,1.9957e-05,6.513e-05,-0.30601,-0.10101,-9.8325,0,0,36.985,1,1,7745,3872
7751,5.0997e+07,2,-0.00038811,-0.0018143,-0.00040048,-0.30485,-0.10031,-9.8238,0,0,36.985,1,1,7745,3872
7754,5.1e+07,2,-0.00087213,-0.0026893,-0.0011329,-0.30527,-0.099118,-9.8164,0,0,36.985,1,1,7745,3872
7785,5.1003e+07,2,-0.00191,-0.0018739,-0.0019372,-0.30581,-0.097657,-9.8102,0,0,36.985,1,1,7745,3872
7788,5.1005e+07,2,-0.001869,-0.00072188,-0.00061276,-0.30592,-0.095396,-9.8036,0,0,36.985,1,1,7745,3872
7795,5.1009e+07,2,-0.0017419,-4.4284e-05,4.6065e-05,-0.30647,-0.095508,-9.7996,0,0,36.985,1,1,7745,3872
7798,5.101e+07,2,-0.0013899,0.0010796,0.00090265,-0.30667,-0.096026,-9.7955,0,0,36.986,1,1,7745,3872
7829,5.1013e+07,2,-0.001035,0.0010006,0.00060894,-0.307,-0.095799,-9.7934,0,0,36.986,1,1,7745,3872
7834,5.1015e+07,2,-0.00097467,0.00081942,0.00099475,-0.30775,-0.094388,-9.7905,0,0,36.986,1,1,7745,3872
7837,5.1018e+07,2,-0.000861,-9.552e-05,0.0012893,-0.30847,-0.093289,-9.7902,0,0,36.986,1,1,7745,3872
7840,5.1021e+07,2,-8.0722e-05,-0.00080898,0.0017158,-0.30877,-0.091134,-9.7938,0,0,36.986,1,1,7745,3872
7871,5.1023e+07,2,8.0813e-05,5.1627e-05,0.0012999,-0.30816,-0.092215,-9.7982,0,0,36.986,1,1,7745,3872
7875,5.1026e+07,2,-0.00015695,0.00066545,0.0010721,-0.30817,-0.093933,-9.8011,0,0,36.986,1,1,7745,3872
7878,5.1028e+07,2,-0.00029096,0.00081924,0.0010309,-0.30891,-0.096855,-9.8035,0,0,36.986,1,1,7745,3872
7881,5.1031e+07,2,-0.0001918,0.0010605,0.00099975,-0.30911,-0.099081,-9.804,0,0,36.986,1,1,7745,3872
7912,5.1033e+07,2,0.00010282,0.00019522,0.0010069,-0.30789,-0.10063,-9.8039,0,0,36.986,1,1,7745,3872
7915,5.1036e+07,2,0.00012171,-0.00026818,0.00023898,-0.30731,-0.10033,-9.8034,0,0,36.986,1,1,7745,3872
7918,5.1039e+07,2,-0.00032879,0.00043057,-0.00053256,-0.30604,-0.098028,-9.8037,0,0,36.986,1,1,7745,3872
7921,5.1041e+07,2,-7.8445e-05,0.00092909,-0.000262,-0.30541,-0.096852,-9.8047,0,0,36.987,1,1,7745,3872
7952,5.1045e+07,2,0.00083675,0.00044602,0.0015859,-0.3037,-0.097062,-9.8087,0,0,36.987,1,1,7745,3872
7955,5.1046e+07,2,0.00081286,0.00010587,0.0019284,-0.30279,-0.097281,-9.8119,0,0,36.987,1,1,7745,3872
7959,5.1048e+07,2,-0.00011226,-0.00029402,0.00089526,-0.30138,-0.098007,-9.8151,0,0,36.987,1,1,7745,3872
7963,5.1054e+07,2,0.00081612,-0.00038519,-0.00065516,-0.29815,-0.098644,-9.8186,0,0,36.987,1,1,7745,3872
7994,5.1056e+07,2,0.0016147,-0.00014969,0.0011247,-0.29902,-0.098448,-9.8211,0,0,36.987,1,1,7745,3872
7998,5.1059e+07,2,0.0013522,0.00033688,0.001454,-0.29843,-0.098546,-9.824,0,0,36.987,1,1,7745,3872
8001,5.1062e+07,2,0.0012666,0.00042298,0.001184,-0.29608,-0.097971,-9.83,0,0,36.987,1,1,7745,3872
8004,5.1064e+07,2,0.0012929,0.00033173,0.00089871,-0.29527,-0.09643,-9.8317,0,0,36.987,1,1,7745,3872
8035,5.1067e+07,2,0.00070515,4.3357e-05,0.00015004,-0.29454,-0.095048,-9.8334,0,0,36.987,1,1,7745,3872
8038,5.1069e+07,2,-0.00031844,0.00041966,-0.00021321,-0.29421,-0.094302,-9.835,0,0,36.987,1,1,7745,3872
8041,5.1071e+07,2,-0.0015927,0.00077958,0.00018102,-0.29408,-0.094682,-9.8349,0,0,36.987,1,1,7745,3872
8045,5.1074e+07,2,-0.0011053,4.444e-05,0.0003592,-0.29376,-0.096635,-9.8337,0,0,36.987,1,1,7745,3872
8076,5.1077e+07,2,-0.00070257,-0.00051706,-0.00019018,-0.29453,-0.10028,-9.8337,0,0,36.988,1,1,7745,3872
8080,5.1079e+07,2,-0.00082727,-0.0006424,-0.00042314,-0.29514,-0.10237,-9.8352,0,0,36.988,1,1,7745,3872
8083,5.1082e+07,2,-0.0014032,0.00037826,-0.00064552,-0.29623,-0.10447,-9.8398,0,0,36.988,1,1,7745,3872
8086,5.1084e+07,2,-0.0011062,0.0012193,0.00012322,-0.29622,-0.10497,-9.8437,0,0,36.988,1,1,7745,3872
8117,5.1086e+07,2,0.00024784,0.00061935,0.0011456,-0.29753,-0.10358,-9.8478,0,0,36.988,1,1,7745,3872
8120,5.109e+07,2,0.00036555,3.3586e-05,0.00094465,-0.29797,-0.10118,-9.8486,0,0,36.988,1,1,7745,3872
8123,5.1092e+07,2,6.9492e-05,4.3125e-05,0.00014754,-0.29867,-0.097987,-9.8452,0,0,36.988,1,1,7745,3872
8126,5.1094e+07,2,-0.00045911,-0.00029479,-0.00095668,-0.30039,-0.0965,-9.8388,0,0,36.988,1,1,7745,3872
8157,5.1096e+07,2,-0.001361,-0.00078299,-0.001315,-0.30228,-0.096485,-9.8296,0,0,36.988,1,1,7745,3872
8161,5.1099e+07,2,-0.0013653,-0.00067615,-0.001108,-0.30211,-0.096371,-9.8273,0,0,36.988,1,1,7745,3872
8164,5.1102e+07,2,-0.0011413,-0.0010088,-0.00068219,-0.30096,-0.095232,-9.8213,0,0,36.988,1,1,7745,3872
8167,5.1104e+07,2,-0.00043145,-0.0012199,1.789e-05,-0.30132,-0.094469,-9.8187,0,0,36.988,1,1,7745,3872
8198,5.1107e+07,2,9.8754e-05,-0.0011471,0.00083855,-0.30095,-0.095199,-9.8167,0,0,36.988,1,1,7745,3872
8205,5.1109e+07,2,-6.3488e-05,-0.00070075,0.0007988,-0.30037,-0.096337,-9.8155,0,0,36.988,1,1,7745,3872
8210,5.1112e+07,2,-0.0011065,-1.3201e-05,0.00083267,-0.29862,-0.099218,-9.8138,0,0,36.989,1,1,7745,3872
8214,5.1114e+07,2,-0.0014422,0.000126,0.00092835,-0.2966,-0.10104,-9.8126,0,0,36.989,1,1,7745,3872
8245,5.1117e+07,2,-0.001088,0.00033455,0.0002983,-0.29546,-0.10347,-9.8092,0,0,36.989,1,1,7745,3872
8249,5.1119e+07,2,-0.00031796,2.0908e-05,-0.00034532,-0.29496,-0.1058,-9.8076,0,0,36.989,1,1,7745,3872
8252,5.1122e+07,2,-4.9036e-05,0.0001944,0.0005271,-0.29488,-0.10786,-9.8082,0,0,36.989,1,1,7745,3872
8255,5.1124e+07,2,-0.00016832,0.00014096,0.00044655,-0.29315,-0.1113,-9.8099,0,0,36.989,1,1,7745,3872
8286,5.1127e+07,2,-3.0753e-05,-0.00025381,0.00013875,-0.29032,-0.11459,-9.8126,0,0,36.989,1,1,7745,3872
8290,5.1129e+07,2,-5.8124e-05,-0.0010779,-2.6356e-05,-0.2888,-0.11783,-9.8189,0,0,36.989,1,1,7745,3872
8293,5.1132e+07,2,-0.00060913,-0.0021253,0.00027468,-0.28977,-0.11874,-9.8232,0,0,36.989,1,1,7745,3872
8296,5.1134e+07,2,-0.00040366,-0.0021035,0.00056263,-0.29217,-0.11974,-9.8278,0,0,36.989,1,1,7745,3872
8327,5.1136e+07,2,0.0004211,-0.0014417,0.0013523,-0.2964,-0.12303,-9.8332,0,0,36.989,1,1,7745,3872
8330,5.1139e+07,2,0.00016385,-0.0010859,0.0010632,-0.29837,-0.12391,-9.8343,0,0,36.989,1,1,7745,3872
8333,5.1142e+07,2,-0.00060018,-0.00099692,0.00036566,-0.30079,-0.12305,-9.8336,0,0,36.989,1,1,7745,3872
8336,5.1144e+07,2,-0.00047941,-0.0011684,-0.00018928,-0.30178,-0.12155,-9.8313,0,0,36.989,1,1,7745,3872
8367,5.1146e+07,2,0.00039206,-0.00050555,0.00027854,-0.30441,-0.1191,-9.825,0,0,36.989,1,1,7745,3872
8371,5.1149e+07,2,0.00046586,-0.00081518,0.00089618,-0.30598,-0.11641,-9.8204,0,0,36.989,1,1,7745,3872
8374,5.1152e+07,2,0.00031323,-0.00058083,0.002327,-0.30762,-0.1123,-9.8121,0,0,36.989,1,1,7745,3872
8378,5.1157e+07,2,-0.0014583,-0.0004259,0.00091391,-0.3078,-0.10773,-9.81,0,0,36.989,1,1,7745,3872
8409,5.1159e+07,2,-0.0017233,-0.0002531,-0.0011057,-0.30943,-0.10581,-9.8122,0,0,36.989,1,1,7745,3872
8412,5.1162e+07,2,-0.001809,-0.00062664,-0.0005919,-0.31078,-0.10385,-9.8149,0,0,36.989,1,1,7745,3872
8415,5.1164e+07,2,-0.0017132,-0.00037694,6.6905e-05,-0.3105,-0.10255,-9.8178,0,0,36.989,1,1,7745,3872
8418,5.1167e+07,2,-0.0014735,0.00018787,0.00050056,-0.30928,-0.10123,-9.8207,0,0,36.989,1,1,7745,3872
8449,5.1172e+07,2,-0.0011207,-4.6943e-05,0.0026364,-0.30243,-0.099913,-9.8239,0,0,36.989,1,1,7745,3872
8453,5.1175e+07,2,-0.0014193,-0.00018317,0.0026499,-0.30079,-0.10009,-9.8238,0,0,36.989,1,1,7745,3872
8456,5.1177e+07,2,-0.0018525,-5.5732e-05,0.0027338,-0.30009,-0.098613,-9.8233,0,0,36.989,1,1,7745,3872
8487,5.118e+07,2,-0.00064684,0.00087463,0.0019265,-0.29813,-0.0974,-9.8237,0,0,36.989,1,1,7745,3872
8490,5.1182e+07,2,-0.00021306,0.00098574,0.0014628,-0.2974,-0.097739,-9.8234,0,0,36.989,1,1,7745,3872
8494,5.1184e+07,2,0.00068049,-0.00068747,0.00021043,-0.29639,-0.09799,-9.8219,0,0,36.989,1,1,7745,3872
8497,5.1187e+07,2,0.0012537,-0.0014411,-0.00041945,-0.29626,-0.099422,-9.8229,0,0,36.989,1,1,7745,3872
8528,5.1189e+07,2,0.0014243,-0.00093999,-0.00021099,-0.29609,-0.1015,-9.8241,0,0,36.989,1,1,7745,3872
8531,5.1192e+07,2,0.0014457,-0.0010303,0.00031503,-0.29607,-0.10208,-9.8233,0,0,36.989,1,1,7745,3872
8534,5.1195e+07,2,0.0016449,-0.00088837,0.0005318,-0.29618,-0.10361,-9.8204,0,0,36.989,1,1,7745,3872
8539,5.1197e+07,2,0.0016028,-0.0010121,0.0015325,-0.29543,-0.10506,-9.8191,0,0,36.989,1,1,7745,3872
8570,5.12e+07,2,0.0013707,-0.00015456,-1.3183e-05,-0.29287,-0.10683,-9.8178,0,0,36.989,1,1,7745,3872
8573,5.1203e+07,2,0.0015945,0.00010395,9.2619e-05,-0.29221,-0.10708,-9.8124,0,0,36.989,1,1,7745,3872
8577,5.1205e+07,2,0.0016726,-0.00046952,3.4989e-05,-0.2931,-0.10564,-9.8079,0,0,36.989,1,1,7745,3872
8581,5.1208e+07,2,0.0015063,-0.00084185,-0.00021735,-0.29552,-0.10181,-9.8066,0,0,36.989,1,1,7745,3872
8616,5.121e+07,2,0.00030618,-0.00080558,-0.00039248,-0.29973,-0.098308,-9.8067,0,0,36.989,1,1,7745,3872
8619,5.1213e+07,2,8.1539e-05,-0.0010151,0.00058705,-0.30294,-0.096553,-9.8062,0,0,36.989,1,1,7745,3872
8622,5.1215e+07,2,0.00020867,-0.0017197,0.0016335,-0.30699,-0.096197,-9.8114,0,0,36.989,1,1,7745,3872
8625,5.1219e+07,2,0.00032247,-0.0022241,0.0014222,-0.3074,-0.096918,-9.8155,0,0,36.989,1,1,7745,3872
8656,5.1221e+07,2,0.00026896,-0.000732,0.0010553,-0.30696,-0.097566,-9.8263,0,0,36.989,1,1,7745,3872
8659,5.1224e+07,2,-7.4227e-05,9.0621e-05,0.001871,-0.3069,-0.098095,-9.8289,0,0,36.989,1,1,7745,3872
8663,5.1226e+07,2,-0.00039603,0.00013466,0.0021496,-0.30582,-0.098899,-9.8322,0,0,36.989,1,1,7745,3872
8666,5.1229e+07,2,-0.0011135,9.7542e-05,0.0017926,-0.30274,-0.099792,-9.8302,0,0,36.989,1,1,7745,3872
8697,5.1231e+07,2,-0.0014645,0.00034821,0.0018357,-0.29976,-0.10203,-9.8267,0,0,36.989,1,1,7745,3872
8700,5.1234e+07,2,-0.00097211,0.00072974,0.0018631,-0.2957,-0.10627,-9.821,0,0,36.989,1,1,7745,3872
8704,5.1236e+07,2,-0.00077611,0.00023768,0.0011908,-0.29408,-0.10828,-9.8177,0,0,36.989,1,1,7745,3872
8707,5.1239e+07,2,-0.00055158,0.00019171,0.00087245,-0.29409,-0.10946,-9.814,0,0,36.989,1,1,7745,3872
8738,5.1241e+07,2,-0.00058956,0.00055837,0.00089805,-0.29512,-0.10897,-9.8121,0,0,36.989,1,1,7745,3872
8741,5.1244e+07,2,0.00034934,0.00033071,0.0017267,-0.2976,-0.10749,-9.8137,0,0,36.989,1,1,7745,3872
8744,5.1246e+07,2,0.00057201,0.00065526,0.0015422,-0.29892,-0.10567,-9.8148,0,0,36.989,1,1,7745,3872
8748,5.1249e+07,2,-0.00042579,0.00086752,0.00058913,-0.30013,-0.1039,-9.8159,0,0,36.989,1,1,7745,3872
8779,5.1251e+07,2,-0.0008221,-6.356e-06,0.00081306,-0.30106,-0.10434,-9.8172,0,0,36.989,1,1,7745,3872
8782,5.1254e+07,2,-0.0017043,-0.0013291,0.00011439,-0.30196,-0.10544,-9.8187,0,0,36.989,1,1,7745,3872
8787,5.1261e+07,2,-0.0017414,-0.0016683,-0.0007743,-0.29696,-0.1053,-9.8245,0,0,36.989,1,1,7745,3872
8818,5.1264e+07,2,-0.0011796,-0.0013325,-0.0017454,-0.29521,-0.106,-9.826,0,0,36.989,1,1,7745,3872
8821,5.1266e+07,2,-0.00061192,-0.00015493,-0.00082966,-0.29667,-0.10773,-9.8323,0,0,36.989,1,1,7745,3872
8824,5.1269e+07,2,-0.00014757,-2.165e-05,-0.00039227,-0.29994,-0.11024,-9.8347,0,0,36.989,1,1,7745,3872
8827,5.1272e+07,2,-0.00036765,9.863e-05,-0.00024154,-0.30384,-0.1127,-9.8346,0,0,36.989,1,1,7745,3872
8858,5.1274e+07,2,-0.0009378,-0.00034621,0.00092144,-0.30994,-0.11353,-9.8314,0,0,36.989,1,1,7745,3872
8862,5.1277e+07,2,-0.00099135,-0.00053333,0.0010463,-0.31083,-0.11245,-9.8307,0,0,36.989,1,1,7745,3872
8865,5.1279e+07,2,-0.00013973,-0.00017262,-0.0010338,-0.31209,-0.10972,-9.8274,0,0,36.989,1,1,7745,3872
8868,5.1282e+07,2,0.00062609,-0.00054378,-0.0016222,-0.31346,-0.10886,-9.8244,0,0,36.989,1,1,7745,3872
8901,5.1285e+07,2,0.00088946,-0.0012192,-0.0018148,-0.31521,-0.10862,-9.8238,0,0,36.989,1,1,7745,3872
8904,5.1287e+07,2,-0.00010513,-0.00045962,0.000285,-0.31593,-0.10942,-9.8241,0,0,36.989,1,1,7745,3872
8907,5.129e+07,2,-0.00053135,0.00047115,0.0015179,-0.31619,-0.1103,-9.825,0,0,36.989,1,1,7745,3872
8910,5.1292e+07,2,-0.0007376,0.0012405,0.0019018,-0.31408,-0.11032,-9.8306,0,0,36.989,1,1,7745,3872
8941,5.1295e+07,2,-0.00080417,0.00096208,0.0012818,-0.3107,-0.1097,-9.8367,0,0,36.989,1,1,7745,3872
8945,5.1298e+07,2,-0.00067225,-0.00010232,0.00053833,-0.30372,-0.10906,-9.8421,0,0,36.989,1,1,7745,3872
8948,5.13e+07,2,-0.0010348,-0.00051028,0.00045639,-0.29929,-0.10913,-9.8426,0,0,36.989,1,1,7745,3872
8951,5.1302e+07,2,-0.0016805,-0.00096363,-0.00050705,-0.29447,-0.10841,-9.8409,0,0,36.989,1,1,7745,3872
8982,5.1305e+07,2,-0.0013588,-0.0013464,-0.00099277,-0.29229,-0.10785,-9.8375,0,0,36.989,1,1,7745,3872
8986,5.1308e+07,2,-0.00057723,-0.0014055,-0.00029829,-0.29042,-0.1063,-9.831,0,0,36.989,1,1,7745,3872
8989,5.131e+07,2,-6.0642e-05,-0.0010892,0.00029733,-0.2883,-0.10658,-9.827,0,0,36.989,1,1,7745,3872
8996,5.1313e+07,2,0.00018921,5.8583e-05,0.00029903,-0.28412,-0.108,-9.8249,0,0,36.989,1,1,7745,3872
9027,5.1315e+07,2,-0.00036974,0.00073231,-0.00015464,-0.28209,-0.10897,-9.8248,0,0,36.989,1,1,7745,3872
9030,5.1317e+07,2,-0.00070176,0.00090604,-0.00027239,-0.28127,-0.11039,-9.8247,0,0,36.989,1,1,7745,3872
9033,5.132e+07,2,-0.00061861,0.0008832,-0.00017381,-0.28148,-0.11179,-9.825,0,0,36.989,1,1,7745,3872
9036,5.1322e+07,2,-0.00039081,0.00016716,0.00019896,-0.2845,-0.11349,-9.8287,0,0,36.989,1,1,7745,3872
9067,5.1325e+07,2,-0.00040553,-0.00052202,0.00087985,-0.28693,-0.11405,-9.8305,0,0,36.989,1,1,7745,3872
9071,5.1327e+07,2,-0.00054186,-0.00049226,0.0024449,-0.28921,-0.11307,-9.8327,0,0,36.989,1,1,7745,3872
9074,5.133e+07,2,-0.0007142,-9.2433e-05,0.0026573,-0.29015,-0.11245,-9.8341,0,0,36.989,1,1,7745,3872
9077,5.1333e+07,2,-0.00085415,0.00022188,0.0020146,-0.29195,-0.11153,-9.8326,0,0,36.989,1,1,7745,3872
9108,5.1335e+07,2,-0.00066939,-0.00017852,-1.8299e-06,-0.29228,-0.10813,-9.8258,0,0,36.989,1,1,7745,3872
9111,5.1338e+07,2,-0.00083212,-0.00017398,-0.00089185,-0.29185,-0.10516,-9.8217,0,0,36.989,1,1,7745,3872
9114,5.134e+07,2,-0.00052787,-0.0011202,-0.00095534,-0.29262,-0.10265,-9.8178,0,0,36.989,1,1,7745,3872
9117,5.1343e+07,2,-0.00062306,-0.00165,-0.00018837,-0.29312,-0.10261,-9.8175,0,0,36.989,1,1,7745,3872
9148,5.1345e+07,2,-0.00177,-0.0016648,0.00069647,-0.29478,-0.10346,-9.8165,0,0,36.99,1,1,7745,3872
9152,5.1348e+07,2,-0.0024459,-0.0010905,0.00039034,-0.29514,-0.10428,-9.8166,0,0,36.99,1,1,7745,3872
9155,5.1351e+07,2,-0.0019716,-0.0005398,1.8392e-05,-0.29664,-0.10712,-9.8179,0,0,36.99,1,1,7745,3872
9158,5.1353e+07,2,-0.0010887,-6.5066e-05,-0.00033722,-0.29684,-0.10694,-9.8183,0,0,36.99,1,1,7745,3872
9189,5.1358e+07,2,0.0006418,-0.00073305,-9.3727e-05,-0.29539,-0.10239,-9.8217,0,0,36.99,1,1,7745,3872
9192,5.1361e+07,2,0.0002737,-0.0011575,-0.0007327,-0.29469,-0.10055,-9.8223,0,0,36.99,1,1,7745,3872
9195,5.1363e+07,2,0.0004113,-0.0012186,-0.00098664,-0.29477,-0.099333,-9.824,0,0,36.99,1,1,7745,3872
9226,5.1366e+07,2,0.00054093,-0.0008641,0.00013146,-0.29434,-0.097368,-9.8266,0,0,36.99,1,1,7745,3872
9229,5.1368e+07,2,-0.00010573,0.00041911,0.00073817,-0.2934,-0.096269,-9.829,0,0,36.99,1,1,7745,3872
9233,5.1371e+07,2,0.00026634,0.0024417,0.00083196,-0.29253,-0.097303,-9.8293,0,0,36.99,1,1,7745,3872
9236,5.1373e+07,2,0.00065581,0.0025262,0.00011211,-0.29319,-0.098967,-9.8275,0,0,36.99,1,1,7745,3872
9267,5.1375e+07,2,0.0012748,0.0013325,-0.00026941,-0.29571,-0.10091,-9.8239,0,0,36.991,1,1,7745,3872
9270,5.1379e+07,2,0.00079897,0.000994,-0.00029,-0.29874,-0.10187,-9.821,0,0,36.991,1,1,7745,3872
9274,5.1381e+07,2,-0.00034163,0.0012909,-1.6505e-05,-0.30243,-0.10273,-9.8175,0,0,36.991,1,1,7745,3872
9279,5.1383e+07,2,-0.00053529,0.0015316,-0.00028441,-0.3052,-0.10263,-9.8145,0,0,36.991,1,1,7745,3872
9310,5.1386e+07,2,-0.00046087,0.0016478,-0.0008338,-0.30629,-0.10182,-9.8112,0,0,36.991,1,1,7745,3872
9313,5.1389e+07,2,-0.00063891,0.00062448,-0.00085855,-0.30468,-0.10128,-9.8075,0,0,36.991,1,1,7745,3872
9316,5.1391e+07,2,-0.00070709,-0.00015331,-0.00060029,-0.30239,-0.10115,-9.8064,0,0,36.991,1,1,7745,3872
9319,5.1393e+07,2,-0.0010097,-0.00050325,-0.00020372,-0.2997,-0.10212,-9.8085,0,0,36.991,1,1,7745,3872
9350,5.1396e+07,2,-0.0010534,-0.00051111,0.00054753,-0.29893,-0.10332,-9.8097,0,0,36.991,1,1,7745,3872
9353,5.1399e+07,2,-0.00052617,-8.5457e-05,0.00098834,-0.29753,-0.10625,-9.8121,0,0,36.991,1,1,7745,3872
9357,5.1401e+07,2,-0.00024575,3.0029e-05,0.00078057,-0.29677,-0.10889,-9.8145,0,0,36.991,1,1,7745,3872
9360,5.1404e+07,2,0.00017258,0.00071929,0.00034685,-0.2971,-0.11147,-9.8167,0,0,36.992,1,1,7745,3872
9391,5.1406e+07,2,0.00017512,0.00059193,0.00038595,-0.2977,-0.11095,-9.8173,0,0,36.992,1,1,7745,3872
9394,5.1408e+07,2,0.00052637,-0.00021053,-0.00014415,-0.29582,-0.10812,-9.8171,0,0,36.992,1,1,7745,3872
9397,5.1411e+07,2,0.00082015,-0.0003784,-0.0003528,-0.29502,-0.10714,-9.8173,0,0,36.992,1,1,7745,3872
9404,5.1414e+07,2,0.0011033,5.9854e-05,-0.00023181,-0.29399,-0.10524,-9.8193,0,0,36.992,1,1,7745,3872
9435,5.1417e+07,2,0.0013078,1.6238e-05,-2.9078e-05,-0.29357,-0.10291,-9.8216,0,0,36.992,1,1,7745,3872
9438,5.1419e+07,2,0.0013901,0.00024881,-0.00042617,-0.29373,-0.10117,-9.8238,0,0,36.992,1,1,7745,3872
9442,5.1422e+07,2,0.0012193,0.00058112,-0.00021878,-0.29335,-0.09878,-9.8261,0,0,36.992,1,1,7745,3872
9445,5.1424e+07,2,0.00075579,0.00034257,0.00011246,-0.29248,-0.097939,-9.8249,0,0,36.992,1,1,7745,3872
9476,5.1427e+07,2,7.3131e-05,-0.00056995,-0.00013069,-0.29219,-0.09665,-9.8238,0,0,36.992,1,1,7745,3872
9479,5.143e+07,2,-0.00010458,-0.00071592,-0.00067266,-0.29309,-0.096138,-9.8242,0,0,36.992,1,1,7745,3872
9483,5.1431e+07,2,-0.00015051,-0.00089675,-0.0008901,-0.29441,-0.095761,-9.8227,0,0,36.992,1,1,7745,3872
9486,5.1434e+07,2,-0.00073792,-0.00060133,-0.0013542,-0.29561,-0.096489,-9.8214,0,0,36.992,1,1,7745,3872
9505,5.145e+07,2,-0.0013966,-0.00088793,0.00015322,-0.30918,-0.095422,-9.8158,0,0,36.992,1,1,7745,3872
9509,5.1451e+07,2,-0.00039545,-0.0026138,0.00010616,-0.31055,-0.094699,-9.8179,0,0,36.992,1,1,7745,3872
9512,5.1456e+07,2,-0.00027334,-0.001511,0.00062452,-0.30898,-0.097851,-9.8188,0,0,36.992,1,1,7745,3872
9543,5.1459e+07,2,-0.00087248,-0.00078051,0.00025729,-0.30878,-0.098071,-9.8183,0,0,36.992,1,1,7745,3872
9546,5.1462e+07,2,-0.00087076,-0.0013994,-0.00021366,-0.31035,-0.096275,-9.8226,0,0,36.992,1,1,7745,3872
9549,5.1464e+07,2,-0.00087996,-0.0019854,-2.6729e-05,-0.31138,-0.094693,-9.8278,0,0,36.991,1,1,7745,3872
9552,5.1467e+07,2,-0.00059524,-0.001758,1.2415e-05,-0.3121,-0.094868,-9.8322,0,0,36.991,1,1,7745,3872
9583,5.1469e+07,2,-0.0016823,-0.00020394,0.00022823,-0.31113,-0.097691,-9.8302,0,0,36.991,1,1,7745,3872
9588,5.1472e+07,2,-0.0023046,6.2144e-06,0.00058409,-0.31094,-0.10011,-9.8293,0,0,36.991,1,1,7745,3872
9591,5.1475e+07,2,-0.002135,-2.2072e-05,0.00099354,-0.31036,-0.10194,-9.8292,0,0,36.991,1,1,7745,3872
9594,5.1477e+07,2,-0.0016662,0.00039858,0.00026529,-0.30945,-0.10243,-9.8291,0,0,36.991,1,1,7745,3872
9625,5.148e+07,2,-0.00171,-0.00027194,0.00013609,-0.30849,-0.10044,-9.8292,0,0,36.991,1,1,7745,3872
9628,5.1482e+07,2,-0.0015818,-0.00046406,-5.9732e-05,-0.30699,-0.099346,-9.8291,0,0,36.991,1,1,7745,3872
9631,5.1484e+07,2,-0.0010562,-0.00037689,9.5335e-05,-0.30398,-0.098412,-9.8291,0,0,36.991,1,1,7745,3872
9634,5.1487e+07,2,-0.00098071,-0.0005971,0.00095568,-0.30313,-0.099116,-9.8274,0,0,36.991,1,1,7745,3872
9665,5.149e+07,2,-0.0011138,-0.0013354,0.0012936,-0.30287,-0.10069,-9.8208,0,0,36.991,1,1,7745,3872
9669,5.1492e+07,2,-0.00063412,-0.00058363,0.0011958,-0.30327,-0.10078,-9.8141,0,0,36.991,1,1,7745,3872
9672,5.1494e+07,2,-0.00057823,0.00078599,0.00053876,-0.30387,-0.099951,-9.8064,0,0,36.991,1,1,7745,3872
9675,5.1497e+07,2,-0.0006731,0.0014343,-0.00041605,-0.30408,-0.10007,-9.8047,0,0,36.991,1,1,7745,3872
9706,5.1499e+07,2,-0.0015585,0.0013118,-0.0006705,-0.30359,-0.098863,-9.8042,0,0,36.991,1,1,7745,3872
9709,5.1503e+07,2,-0.0021603,0.00070184,-0.0006225,-0.30414,-0.097592,-9.8038,0,0,36.991,1,1,7745,3872
9712,5.1504e+07,2,-0.0020366,0.0003791,0.00034952,-0.30491,-0.09558,-9.808,0,0,36.991,1,1,7745,3872
9715,5.1507e+07,2,-0.0021335,0.00058078,0.00056679,-0.30508,-0.095245,-9.8103,0,0,36.991,1,1,7745,3872
9746,5.1509e+07,2,-0.0019737,0.00073611,0.00087546,-0.30533,-0.096031,-9.8176,0,0,36.991,1,1,7745,3872
9750,5.1513e+07,2,-0.0014357,0.00028629,0.00064353,-0.30583,-0.097517,-9.8211,0,0,36.991,1,1,7745,3872
9757,5.1515e+07,2,-0.00071531,0.00026625,0.00011472,-0.30683,-0.099623,-9.822,0,0,36.991,1,1,7745,3872
9760,5.1517e+07,2,-0.00052654,0.00062876,0.0003824,-0.30822,-0.10122,-9.8228,0,0,36.991,1,1,7745,3872
9791,5.152e+07,2,-0.00037731,0.0017745,0.00072794,-0.30921,-0.10404,-9.827,0,0,36.991,1,1,7745,3872
9795,5.1522e+07,2,-0.0012042,0.0020751,-6.629e-05,-0.30895,-0.10696,-9.8342,0,0,36.991,1,1,7745,3872
9799,5.1525e+07,2,-0.0020731,0.0011329,-0.0008876,-0.30732,-0.10823,-9.8374,0,0,36.991,1,1,7745,3872
9802,5.1527e+07,2,-0.0013136,0.00058831,-0.00069002,-0.30429,-0.10896,-9.8387,0,0,36.991,1,1,7745,3872
9833,5.153e+07,2,-0.00019051,0.00049753,8.7583e-05,-0.30261,-0.10941,-9.8377,0,0,36.991,1,1,7745,3872
9836,5.1533e+07,2,0.00054925,0.00013854,0.00059186,-0.30188,-0.10838,-9.8327,0,0,36.991,1,1,7745,3872
9839,5.1535e+07,2,0.000421,0.00017613,-0.00059107,-0.3027,-0.10679,-9.8284,0,0,36.991,1,1,7745,3872
9842,5.1538e+07,2,0.00040477,5.81e-05,-0.0010963,-0.30336,-0.10581,-9.8232,0,0,36.991,1,1,7745,3872
9873,5.154e+07,2,-0.00014172,-0.00055434,-0.00014952,-0.30408,-0.10478,-9.82,0,0,36.991,1,1,7745,3872
9878,5.1543e+07,2,-0.00061226,-0.00037711,0.00072484,-0.30402,-0.10491,-9.8188,0,0,36.991,1,1,7745,3872
9881,5.1545e+07,2,-0.00012684,-0.00035444,-7.2922e-05,-0.30157,-0.10628,-9.8216,0,0,36.991,1,1,7745,3872
9884,5.1548e+07,2,-0.00056121,-0.00093682,0.00035414,-0.2999,-0.10782,-9.8235,0,0,36.991,1,1,7745,3872
9915,5.1551e+07,2,-0.0017188,-0.00039842,0.00090626,-0.29907,-0.10766,-9.8208,0,0,36.991,1,1,7745,3872
9918,5.1553e+07,2,-0.00090301,-0.00028128,0.00045757,-0.29899,-0.10621,-9.8184,0,0,36.991,1,1,7745,3872
9921,5.1558e+07,2,0.00039836,0.0006618,-0.00062372,-0.29785,-0.10452,-9.8184,0,0,36.991,1,1,7745,3872
9952,5.1561e+07,2,-0.00025714,0.0003912,-0.00092507,-0.29472,-0.10544,-9.8206,0,0,36.991,1,1,7745,3872
9955,5.1563e+07,2,-8.2786e-05,0.00022324,-0.00056192,-0.29205,-0.10494,-9.8223,0,0,36.991,1,1,7745,3872
9959,5.1565e+07,2,-0.00064869,-0.00011102,0.00063016,-0.2877,-0.10348,-9.8245,0,0,36.991,1,1,7745,3872
9962,5.1568e+07,2,-0.0010052,-0.00012927,0.00088166,-0.2866,-0.10311,-9.825,0,0,36.991,1,1,7745,3872
9993,5.157e+07,2,-0.0012605,-6.4702e-05,0.00066632,-0.28485,-0.10118,-9.8262,0,0,36.991,1,1,7745,3872
9996,5.1573e+07,2,-0.001578,-0.00021218,0.0010106,-0.28427,-0.10049,-9.8253,0,0,36.991,1,1,7745,3872
10001,5.1576e+07,2,-0.00047204,0.00018135,0.0011753,-0.28363,-0.0996,-9.8214,0,0,36.991,1,1,7745,3872
10004,5.1578e+07,2,-4.2265e-05,0.00014768,0.001238,-0.28249,-0.10109,-9.8196,0,0,36.991,1,1,7745,3872
10035,5.1581e+07,2,0.00093755,-0.00032282,-0.00071544,-0.28327,-0.10495,-9.817,0,0,36.991,1,1,7745,3872
10038,5.1583e+07,2,0.00064019,-0.00081759,-0.0012005,-0.28455,-0.10833,-9.8158,0,0,36.991,1,1,7745,3872
10043,5.1586e+07,2,-0.0008126,-0.0012645,-0.00097969,-0.28815,-0.11214,-9.8154,0,0,36.991,1,1,7745,3872
10046,5.1588e+07,2,-0.0016281,-0.0012262,-0.00093557,-0.29073,-0.11345,-9.8134,0,0,36.991,1,1,7745,3872
10077,5.1591e+07,2,-0.0019662,-0.0016243,-0.00075358,-0.29467,-0.11502,-9.8093,0,0,36.991,1,1,7745,3872
10080,5.1593e+07,2,-0.0016762,-0.0022044,-0.0005427,-0.29795,-0.11483,-9.8106,0,0,36.991,1,1,7745,3872
10084,5.1595e+07,2,-0.00063923,-0.0023637,-0.00021817,-0.30178,-0.11362,-9.8131,0,0,36.991,1,1,7745,3872
10087,5.1598e+07,2,7.8241e-05,-0.0016203,0.00054492,-0.30352,-0.11182,-9.8126,0,0,36.991,1,1,7745,3872
10118,5.1601e+07,2,0.00044321,-0.00061862,0.0013304,-0.30458,-0.10891,-9.8118,0,0,36.991,1,1,7745,3872
10121,5.1603e+07,2,0.00010764,-0.00030665,0.0017398,-0.30489,-0.10533,-9.8137,0,0,36.991,1,1,7745,3872
10124,5.1606e+07,2,-0.00054032,0.00032432,0.0010972,-0.30529,-0.1007,-9.8169,0,0,36.991,1,1,7745,3872
10127,5.1608e+07,2,-0.00011006,0.00080668,0.00058355,-0.30602,-0.098721,-9.8171,0,0,36.991,1,1,7745,3872
10158,5.1611e+07,2,0.00033981,0.0014207,-0.00013567,-0.30784,-0.097017,-9.8136,0,0,36.991,1,1,7745,3872
10161,5.1613e+07,2,-0.00030081,0.0018827,-0.0008472,-0.30865,-0.097376,-9.8109,0,0,36.991,1,1,7745,3872
10169,5.1616e+07,2,-0.0013639,0.0019099,-0.001589,-0.30864,-0.098574,-9.8111,0,0,36.99,1,1,7745,3872
10172,5.1618e+07,2,-0.0021053,0.001519,-0.0022641,-0.30811,-0.099064,-9.8132,0,0,36.99,1,1,7745,3872
10203,5.1621e+07,2,-0.0017457,0.00079486,-0.0015955,-0.30909,-0.099455,-9.8175,0,0,36.99,1,1,7745,3872
10206,5.1623e+07,2,-0.00055402,0.0012781,-0.00063066,-0.30979,-0.098783,-9.8197,0,0,36.99,1,1,7745,3872
10209,5.1626e+07,2,0.0001625,0.0012631,5.7932e-05,-0.30891,-0.098671,-9.8193,0,0,36.99,1,1,7745,3872
10212,5.1629e+07,2,-1.2329e-05,0.00083438,0.00049774,-0.30743,-0.099179,-9.8169,0,0,36.99,1,1,7745,3872
10243,5.1631e+07,2,-0.00075514,0.0011296,0.00048022,-0.3055,-0.099466,-9.8132,0,0,36.99,1,1,7745,3872
10246,5.1634e+07,2,-0.00098935,0.00088714,0.00068728,-0.30331,-0.098423,-9.8103,0,0,36.99,1,1,7745,3872
10250,5.1636e+07,2,-0.0011116,0.00033585,0.00082998,-0.30197,-0.097325,-9.8101,0,0,36.99,1,1,7745,3872
10253,5.1639e+07,2,-0.00083212,-0.0014294,0.00089486,-0.30216,-0.097189,-9.8115,0,0,36.99,1,1,7745,3872
10284,5.1641e+07,2,-0.00096537,-0.0015772,0.00047161,-0.30422,-0.096845,-9.8143,0,0,36.99,1,1,7745,3872
10288,5.1644e+07,2,-0.00071158,-0.00059101,0.00047465,-0.30588,-0.096407,-9.817,0,0,36.99,1,1,7745,3872
10293,5.1647e+07,2,-0.00031059,0.00045077,0.0005353,-0.30669,-0.095565,-9.8191,0,0,36.99,1,1,7745,3872
10296,5.1648e+07,2,0.00031216,0.00070526,0.00073772,-0.30564,-0.095362,-9.8204,0,0,36.99,1,1,7745,3872
10327,5.1651e+07,2,0.00048046,0.00063384,0.0010357,-0.30544,-0.095853,-9.822,0,0,36.99,1,1,7745,3872
10330,5.1654e+07,2,-0.00069213,3.9731e-05,0.00035653,-0.30672,-0.095197,-9.8268,0,0,36.99,1,1,7745,3872
10333,5.1659e+07,2,-0.00015207,-0.00013193,0.0002385,-0.31038,-0.095506,-9.8244,0,0,36.99,1,1,7745,3872
10364,5.1661e+07,2,-0.00015514,-0.00034333,0.00034958,-0.3136,-0.098353,-9.8222,0,0,36.99,1,1,7745,3872
10367,5.1664e+07,2,-0.00041314,-0.0007612,0.00018875,-0.31455,-0.10067,-9.8194,0,0,36.99,1,1,7745,3872
10371,5.1666e+07,2,-0.00061303,-0.0013736,0.00017917,-0.31454,-0.10225,-9.8168,0,0,36.99,1,1,7745,3872
10374,5.1669e+07,2,-0.00075206,-0.0017964,0.00057217,-0.31437,-0.10297,-9.8162,0,0,36.99,1,1,7745,3872
10405,5.1672e+07,2,-0.0013184,-0.001251,0.00064689,-0.31369,-0.1028,-9.8163,0,0,36.99,1,1,7745,3872
10408,5.1674e+07,2,-0.0016598,-0.0011912,0.00049871,-0.31347,-0.10328,-9.8151,0,0,36.99,1,1,7745,3872
10411,5.1676e+07,2,-0.00058279,-0.0015418,0.00082875,-0.31142,-0.10394,-9.8111,0,0,36.99,1,1,7745,3872
10414,5.1679e+07,2,5.545e-05,-0.0016687,0.0011114,-0.3091,-0.10481,-9.8101,0,0,36.99,1,1,7745,3872
10445,5.1682e+07,2,0.0011089,-0.00023078,0.0015201,-0.30521,-0.10624,-9.8128,0,0,36.99,1,1,7745,3872
10448,5.1684e+07,2,0.0014448,0.00045475,0.0017717,-0.30294,-0.10653,-9.8176,0,0,36.99,1,1,7745,3872
10452,5.1686e+07,2,0.0024048,0.00034821,0.0008262,-0.29983,-0.10781,-9.8244,0,0,36.99,1,1,7745,3872
10456,5.1689e+07,2,0.0025624,-0.00014763,0.00022831,-0.29789,-0.10785,-9.8279,0,0,36.99,1,1,7745,3872
10487,5.1692e+07,2,0.00048963,-0.0006535,0.0022849,-0.29696,-0.10684,-9.8329,0,0,36.991,1,1,7745,3872
10490,5.1694e+07,2,-0.00034736,-0.00078366,0.003225,-0.29715,-0.10621,-9.8365,0,0,36.991,1,1,7745,3872
10493,5.1697e+07,2,-0.00051999,-0.00060144,0.0025781,-0.2971,-0.10549,-9.8399,0,0,36.991,1,1,7745,3872
10496,5.1699e+07,2,-0.00057079,-0.00025966,0.0023965,-0.29735,-0.10378,-9.8411,0,0,36.991,1,1,7745,3872
10527,5.1701e+07,2,0.00054783,0.00050085,0.00096652,-0.29843,-0.10089,-9.8366,0,0,36.991,1,1,7745,3872
10530,5.1704e+07,2,0.0014586,0.00088486,0.00053247,-0.30096,-0.099699,-9.8331,0,0,36.991,1,1,7745,3872
10534,5.1707e+07,2,0.0017294,0.00041193,0.00053393,-0.30555,-0.098083,-9.829,0,0,36.991,1,1,7745,3872
10537,5.1709e+07,2,0.0012809,0.00018747,0.0010977,-0.30859,-0.09687,-9.8272,0,0,36.991,1,1,7745,3872
10568,5.1712e+07,2,0.0007983,8.7432e-06,0.0014159,-0.31317,-0.096408,-9.8268,0,0,36.991,1,1,7745,3872
10572,5.1714e+07,2,0.00081303,-0.00036663,0.00091425,-0.31471,-0.098216,-9.8289,0,0,36.991,1,1,7745,3872
10580,5.1717e+07,2,0.00081549,-0.00058679,-0.0015726,-0.31744,-0.10146,-9.8302,0,0,36.991,1,1,7745,3872
10583,5.1719e+07,2,0.00085086,-0.00086801,-0.0024209,-0.31907,-0.10282,-9.8285,0,0,36.991,1,1,7745,3872
10614,5.1722e+07,2,0.00085897,-0.0008717,-0.00076171,-0.3216,-0.10409,-9.827,0,0,36.991,1,1,7745,3872
10617,5.1725e+07,2,0.00032481,-0.00087808,0.00033773,-0.32194,-0.10292,-9.8275,0,0,36.991,1,1,7745,3872
10620,5.1727e+07,2,-0.00017386,-0.001191,0.00041299,-0.32072,-0.10158,-9.8267,0,0,36.991,1,1,7745,3872
10623,5.1729e+07,2,-0.00035993,-0.0011129,-1.8796e-05,-0.31526,-0.10214,-9.8258,0,0,36.992,1,1,7745,3872
10654,5.1732e+07,2,-0.0002507,-0.00021481,-0.00072001,-0.31091,-0.10392,-9.8247,0,0,36.992,1,1,7745,3872
10657,5.1734e+07,2,-0.0009775,0.0015389,-0.0012637,-0.30443,-0.10811,-9.8227,0,0,36.992,1,1,7745,3872
10661,5.1737e+07,2,-0.0012787,0.0020313,-0.00092151,-0.30117,-0.11085,-9.8209,0,0,36.992,1,1,7745,3872
10664,5.174e+07,2,-0.00076714,0.0017736,-0.0013068,-0.29903,-0.11441,-9.8189,0,0,36.992,1,1,7745,3872
10695,5.1742e+07,2,-9.9253e-05,0.0011894,-0.0016204,-0.29925,-0.1162,-9.8191,0,0,36.992,1,1,7745,3872
10698,5.1745e+07,2,-0.00055309,0.00076724,-0.001715,-0.2996,-0.11644,-9.818,0,0,36.992,1,1,7745,3872
10701,5.1747e+07,2,-0.001722,0.00041827,-0.00026406,-0.30126,-0.11563,-9.8159,0,0,36.992,1,1,7745,3872
10704,5.175e+07,2,-0.0022371,0.00033825,0.001292,-0.30551,-0.11427,-9.815,0,0,36.992,1,1,7745,3872
10735,5.1752e+07,2,-0.00085705,0.00092574,0.0014304,-0.3088,-0.11238,-9.8189,0,0,36.992,1,1,7745,3872
10739,5.1757e+07,2,-0.0022915,0.0012946,-0.0002423,-0.30835,-0.10865,-9.824,0,0,36.992,1,1,7745,3872
10744,5.176e+07,2,-0.0026161,0.0010466,-0.00066463,-0.30776,-0.10755,-9.8263,0,0,36.992,1,1,7745,3872
10775,5.1765e+07,2,-0.0028361,0.00048973,-0.0015926,-0.30801,-0.10437,-9.8312,0,0,36.992,1,1,7745,3872
10778,5.1768e+07,2,-0.0033089,0.0010993,-0.00063316,-0.30503,-0.10416,-9.8324,0,0,36.992,1,1,7745,3872
10782,5.1771e+07,2,-0.0038994,0.0013713,-0.00013959,-0.30021,-0.10331,-9.834,0,0,36.993,1,1,7745,3872
10813,5.1773e+07,2,-0.0038914,0.00091462,-2.7593e-05,-0.29875,-0.10152,-9.8333,0,0,36.993,1,1,7745,3872
10816,5.1776e+07,2,-0.0041117,0.00058157,0.00011184,-0.29939,-0.10034,-9.8306,0,0,36.993,1,1,7745,3872
10819,5.1778e+07,2,-0.0042323,0.00014665,0.00050374,-0.29949,-0.099953,-9.8278,0,0,36.993,1,1,7745,3872
10822,5.1781e+07,2,-0.0028137,0.00018908,-0.00012112,-0.29801,-0.09972,-9.8257,0,0,36.993,1,1,7745,3872
10855,5.1784e+07,2,-0.0023029,0.00094038,-0.00042496,-0.29545,-0.099967,-9.8301,0,0,36.993,1,1,7745,3872
10858,5.1786e+07,2,-0.0021079,-3.2518e-05,-5.941e-05,-0.29495,-0.10108,-9.8344,0,0,36.993,1,1,7745,3872
10861,5.1789e+07,2,-0.0021815,-0.00074759,8.0724e-05,-0.29582,-0.10105,-9.8351,0,0,36.993,1,1,7745,3872
10867,5.1792e+07,2,-0.0015116,-0.0013364,-0.00022877,-0.29932,-0.1009,-9.8335,0,0,36.993,1,1,7745,3872
10898,5.1795e+07,2,-0.00099802,-0.001882,-0.00019227,-0.29994,-0.10128,-9.8322,0,0,36.993,1,1,7745,3872
10901,5.1797e+07,2,-0.00091733,-0.001534,-0.00066626,-0.29965,-0.10178,-9.8321,0,0,36.993,1,1,7745,3872
10904,5.1799e+07,2,-0.001692,-0.0010774,-0.00083699,-0.29892,-0.10198,-9.8312,0,0,36.993,1,1,7745,3872
10907,5.1803e+07,2,-0.0018942,-0.0011366,-0.0013198,-0.29901,-0.10225,-9.8295,0,0,36.993,1,1,7745,3872
10938,5.1805e+07,2,-0.0014628,-0.00039137,-0.00058696,-0.29796,-0.10368,-9.8278,0,0,36.993,1,1,7745,3872
10941,5.1807e+07,2,-0.001381,-0.00028558,0.0007506,-0.29676,-0.10378,-9.8256,0,0,36.993,1,1,7745,3872
10944,5.181e+07,2,-0.0011258,-0.00057681,0.0010007,-0.29684,-0.10405,-9.8215,0,0,36.993,1,1,7745,3872
10948,5.1813e+07,2,-0.00050496,-0.0007141,0.001259,-0.29896,-0.10502,-9.8166,0,0,36.993,1,1,7745,3872
10979,5.1815e+07,2,0.00029381,-0.0010012,0.0015127,-0.30198,-0.10489,-9.8134,0,0,36.993,1,1,7745,3872
10982,5.1818e+07,2,0.001008,-0.0011911,0.00085327,-0.30698,-0.10382,-9.8105,0,0,36.993,1,1,7745,3872
10989,5.182e+07,2,0.0015245,-0.0011413,0.00055812,-0.30855,-0.10323,-9.8108,0,0,36.993,1,1,7745,3872
10994,5.1822e+07,2,0.0013242,-0.0011558,-0.0001446,-0.31201,-0.10136,-9.8126,0,0,36.993,1,1,7745,3872
11025,5.1825e+07,2,0.0015658,-0.0010035,0.00034145,-0.31233,-0.099399,-9.8123,0,0,36.993,1,1,7745,3872
11028,5.1828e+07,2,0.0020708,-0.00013037,0.0012425,-0.31029,-0.098456,-9.8116,0,0,36.993,1,1,7745,3872
11031,5.183e+07,2,0.0015292,0.00050147,0.0016012,-0.30833,-0.099091,-9.811,0,0,36.993,1,1,7745,3872
11034,5.1832e+07,2,0.000439,0.00077256,0.00077503,-0.30624,-0.10048,-9.8086,0,0,36.993,1,1,7745,3872
11065,5.1835e+07,2,0.00028345,0.0005561,0.00024256,-0.30519,-0.10019,-9.8081,0,0,36.993,1,1,7745,3872
11068,5.1837e+07,2,0.0006556,0.0010593,2.1894e-05,-0.30293,-0.097701,-9.8113,0,0,36.993,1,1,7745,3872
11071,5.184e+07,2,0.0003651,0.00097271,0.00081138,-0.30212,-0.096463,-9.8145,0,0,36.993,1,1,7745,3872
11075,5.1843e+07,2,0.0013545,0.00066046,0.00071723,-0.3019,-0.093873,-9.8207,0,0,36.993,1,1,7745,3872
11106,5.1845e+07,2,0.0024576,0.00066516,0.0014918,-0.30082,-0.092825,-9.8278,0,0,36.993,1,1,7745,3872
11109,5.1848e+07,2,0.0023256,0.00091307,0.0017107,-0.30076,-0.093503,-9.8321,0,0,36.993,1,1,7745,3872
11112,5.185e+07,2,0.0019967,0.0014257,0.001676,-0.30142,-0.095431,-9.8361,0,0,36.993,1,1,7745,3872
11115,5.1853e+07,2,0.0026092,0.0012666,0.0013128,-0.3021,-0.097569,-9.8387,0,0,36.993,1,1,7745,3872
11146,5.1856e+07,2,0.0027142,0.00098635,0.0011095,-0.30301,-0.10036,-9.8416,0,0,36.993,1,1,7745,3872
11149,5.1858e+07,2,0.0025128,0.0006851,0.0012878,-0.30399,-0.10173,-9.8435,0,0,36.993,1,1,7745,3872
11153,5.186e+07,2,0.0015823,0.00057764,0.001194,-0.30458,-0.1016,-9.8462,0,0,36.993,1,1,7745,3872
11157,5.1863e+07,2,0.0016331,0.00091657,0.00095526,-0.30471,-0.10025,-9.849,0,0,36.993,1,1,7745,3872
11188,5.1871e+07,2,0.00064978,0.0020347,0.0018147,-0.31203,-0.10122,-9.8507,0,0,36.993,1,1,7745,3872
11191,5.1873e+07,2,-6.5376e-06,0.0017554,0.0013003,-0.31394,-0.10249,-9.8481,0,0,36.993,1,1,7745,3872
11222,5.1876e+07,2,-0.00028828,0.0016089,0.00086458,-0.31562,-0.10371,-9.843,0,0,36.993,1,1,7745,3872
11226,5.1878e+07,2,-0.00050994,0.0015053,0.00082673,-0.31483,-0.1043,-9.8392,0,0,36.993,1,1,7745,3872
11230,5.1881e+07,2,-0.0021171,0.0017208,6.4986e-05,-0.31278,-0.10477,-9.8306,0,0,36.993,1,1,7745,3872
11234,5.1883e+07,2,-0.0028125,0.0016259,0.00058192,-0.31072,-0.10417,-9.8257,0,0,36.993,1,1,7745,3872
11265,5.1885e+07,2,-0.0015231,0.0012161,0.0018747,-0.30823,-0.10343,-9.8219,0,0,36.993,1,1,7745,3872
11268,5.1888e+07,2,-0.0012062,0.0010803,0.0020413,-0.30646,-0.10302,-9.8179,0,0,36.993,1,1,7745,3872
11271,5.189e+07,2,-0.0012683,0.0005402,0.0013745,-0.30552,-0.10334,-9.8119,0,0,36.993,1,1,7745,3872
11275,5.1893e+07,2,-0.0010742,0.00021419,0.00037663,-0.30452,-0.10345,-9.8114,0,0,36.993,1,1,7745,3872
11306,5.1896e+07,2,-0.00033383,-3.9326e-05,-0.0013959,-0.30326,-0.10356,-9.8123,0,0,36.993,1,1,7745,3872
11309,5.1899e+07,2,-0.0010651,0.00017237,-0.0028797,-0.30319,-0.10346,-9.8135,0,0,36.993,1,1,7745,3872
11313,5.1901e+07,2,-0.0012347,-0.00033583,-0.002425,-0.30436,-0.10402,-9.8144,0,0,36.993,1,1,7745,3872
11317,5.1904e+07,2,-0.0019386,3.0036e-05,-0.00072849,-0.30406,-0.10706,-9.8146,0,0,36.993,1,1,7745,3872
11348,5.1906e+07,2,-0.002446,0.00054228,0.00018349,-0.30263,-0.10964,-9.8148,0,0,36.993,1,1,7745,3872
11351,5.1909e+07,2,-0.0025261,-0.00088562,0.00043783,-0.2983,-0.11415,-9.8159,0,0,36.993,1,1,7745,3872
11355,5.1911e+07,2,-0.0021136,-0.0016241,0.001145,-0.29468,-0.11665,-9.8184,0,0,36.993,1,1,7745,3872
11359,5.1914e+07,2,-0.0027718,-0.0013296,0.0014012,-0.29195,-0.11785,-9.8207,0,0,36.993,1,1,7745,3872
11390,5.1916e+07,2,-0.0035817,-0.0012496,-4.9834e-06,-0.28953,-0.11847,-9.821,0,0,36.993,1,1,7745,3872
11393,5.1919e+07,2,-0.003652,-0.0011194,-0.00029477,-0.28877,-0.11646,-9.8217,0,0,36.993,1,1,7745,3872
11400,5.1922e+07,2,-0.0039751,-0.0012113,-0.00034728,-0.29021,-0.11129,-9.8217,0,0,36.994,1,1,7745,3872
11403,5.1924e+07,2,-0.0037134,-0.0011016,-0.0010837,-0.29183,-0.10706,-9.8202,0,0,36.994,1,1,7745,3872
11434,5.1926e+07,2,-0.0036518,-0.0015008,-0.00052321,-0.29555,-0.10311,-9.8174,0,0,36.994,1,1,7745,3872
11437,5.1929e+07,2,-0.004137,-0.001356,5.2591e-05,-0.29722,-0.10234,-9.8158,0,0,36.994,1,1,7745,3872
11440,5.1932e+07,2,-0.0037474,-0.0013653,0.00032658,-0.29734,-0.10119,-9.8133,0,0,36.994,1,1,7745,3872
11444,5.1934e+07,2,-0.003348,-0.0011958,0.00063967,-0.29728,-0.10031,-9.8112,0,0,36.994,1,1,7745,3872
11475,5.1936e+07,2,-0.0021729,-0.00056734,0.00055245,-0.29756,-0.10024,-9.8076,0,0,36.994,1,1,7745,3872
11478,5.1939e+07,2,-0.0011179,-0.00060868,-0.00031786,-0.29758,-0.10044,-9.8063,0,0,36.994,1,1,7745,3872
11481,5.1942e+07,2,-0.00038557,-0.001377,-0.00066025,-0.29907,-0.10002,-9.805,0,0,36.994,1,1,7745,3872
11484,5.1944e+07,2,-0.00025363,-0.0015234,-0.00069562,-0.29991,-0.099288,-9.8055,0,0,36.994,1,1,7745,3872
11515,5.1947e+07,2,-0.00084162,-0.0016427,-0.0007133,-0.30127,-0.097608,-9.808,0,0,36.994,1,1,7745,3872
11520,5.1949e+07,2,-0.001322,-0.0016278,-0.00082565,-0.3017,-0.098297,-9.8101,0,0,36.994,1,1,7745,3872
11523,5.1951e+07,2,-0.0021651,-0.00078291,-7.016e-05,-0.30217,-0.10087,-9.8128,0,0,36.994,1,1,7745,3872
11527,5.1954e+07,2,-0.0025094,2.2462e-05,0.00088666,-0.30162,-0.10303,-9.8145,0,0,36.994,1,1,7745,3872
11558,5.1957e+07,2,-0.0023559,0.0012388,0.0020568,-0.3,-0.10456,-9.8182,0,0,36.994,1,1,7745,3872
11561,5.1959e+07,2,-0.0020697,0.0019739,0.0020627,-0.29951,-0.10529,-9.8215,0,0,36.994,1,1,7745,3872
11564,5.1962e+07,2,-0.0020591,0.0019767,0.0010329,-0.30026,-0.10584,-9.8253,0,0,36.994,1,1,7745,3872
11568,5.1964e+07,2,-0.0024109,0.0013406,0.00048386,-0.30046,-0.10514,-9.8254,0,0,36.994,1,1,7745,3872
11599,5.1966e+07,2,-0.0023392,0.00092131,0.00025478,-0.30047,-0.10235,-9.8253,0,0,36.994,1,1,7745,3872
11602,5.1969e+07,2,-0.0019473,0.0010242,0.00099833,-0.30043,-0.1003,-9.8251,0,0,36.994,1,1,7745,3872
11605,5.1975e+07,2,-0.0024325,0.00030708,0.0010266,-0.29875,-0.094772,-9.8231,0,0,36.994,1,1,7745,3872
11610,5.1977e+07,2,-0.0013756,-0.00035337,0.001273,-0.29813,-0.091717,-9.8215,0,0,36.994,1,1,7745,3872
11641,5.1979e+07,2,-5.6751e-05,-0.00051097,0.00041543,-0.29978,-0.089198,-9.8188,0,0,36.994,1,1,7745,3872
11644,5.1983e+07,2,0.0018169,-0.0010315,0.00060294,-0.30158,-0.088997,-9.8186,0,0,36.994,1,1,7745,3872
11647,5.1985e+07,2,0.0028166,-0.00034358,0.00066624,-0.30213,-0.091263,-9.8191,0,0,36.994,1,1,7745,3872
11650,5.1987e+07,2,0.0031638,0.00034813,0.00089902,-0.30079,-0.092423,-9.8189,0,0,36.994,1,1,7745,3872
11681,5.199e+07,2,0.0027059,0.0015804,0.00099433,-0.29851,-0.093905,-9.8195,0,0,36.994,1,1,7745,3872
11685,5.1993e+07,2,0.0015372,0.002248,9.0997e-06,-0.29764,-0.094895,-9.8199,0,0,36.994,1,1,7745,3872
11689,5.1995e+07,2,0.00045347,0.0023994,-0.00054741,-0.29714,-0.094203,-9.819,0,0,36.994,1,1,7745,3872
11692,5.1997e+07,2,-0.00062232,0.0023058,0.00016222,-0.29621,-0.091533,-9.8186,0,0,36.994,1,1,7745,3872
11723,5.2e+07,2,0.00017578,0.0022412,-0.00015961,-0.29746,-0.090367,-9.8198,0,0,36.994,1,1,7745,3872
11727,5.2003e+07,2,0.0012801,0.0019318,-3.2367e-07,-0.30004,-0.090826,-9.8231,0,0,36.994,1,1,7745,3872
11730,5.2006e+07,2,0.0011281,0.0015188,3.5725e-05,-0.30177,-0.092255,-9.8277,0,0,36.994,1,1,7745,3872
11733,5.2008e+07,2,0.00095431,0.00071812,0.00018537,-0.30203,-0.093839,-9.8326,0,0,36.994,1,1,7745,3872
11764,5.201e+07,2,0.0011721,-0.00026014,0.001655,-0.3,-0.095278,-9.8352,0,0,36.994,1,1,7745,3872
11767,5.2013e+07,2,0.0009786,-0.00026259,0.0021121,-0.29911,-0.095718,-9.8339,0,0,36.994,1,1,7745,3872
11770,5.2015e+07,2,0.00044692,5.6966e-05,0.002724,-0.2982,-0.095244,-9.8333,0,0,36.995,1,1,7745,3872
11774,5.2018e+07,2,0.00044961,0.00049808,0.0025466,-0.29616,-0.093645,-9.8343,0,0,36.995,1,1,7745,3872
11805,5.202e+07,2,0.00030181,0.00034272,0.0018348,-0.29421,-0.094088,-9.8362,0,0,36.995,1,1,7745,3872
11813,5.2023e+07,2,0.00079997,0.00018504,0.0019202,-0.2944,-0.095451,-9.8349,0,0,36.995,1,1,7745,3872
11816,5.2025e+07,2,0.001243,0.0002048,0.002224,-0.29557,-0.096938,-9.8317,0,0,36.995,1,1,7745,3872
11819,5.2028e+07,2,0.00048012,-4.1328e-05,0.0026238,-0.29839,-0.099216,-9.8236,0,0,36.995,1,1,7745,3872
11851,5.2031e+07,2,-0.00048809,-0.00052582,0.0036806,-0.30091,-0.10085,-9.8177,0,0,36.995,1,1,7745,3872
11854,5.2033e+07,2,-0.00061827,-0.0015326,0.0038445,-0.30364,-0.10211,-9.8136,0,0,36.995,1,1,7745,3872
11857,5.2035e+07,2,-0.00059579,-0.0019405,0.0036641,-0.30557,-0.10377,-9.809,0,0,36.995,1,1,7745,3872
11860,5.2037e+07,2,-0.00039023,-0.0017267,0.0019681,-0.30586,-0.10542,-9.8037,0,0,36.995,1,1,7745,3872
11891,5.2041e+07,2,-0.00013814,-0.0023484,0.00051803,-0.3057,-0.10509,-9.8009,0,0,36.995,1,1,7745,3872
11895,5.2043e+07,2,5.3356e-06,-0.0027018,6.2122e-05,-0.30587,-0.10496,-9.7992,0,0,36.995,1,1,7745,3872
11898,5.2045e+07,2,-0.00072515,-0.0026028,-0.00015849,-0.30593,-0.10532,-9.7982,0,0,36.996,1,1,7745,3872
11901,5.2047e+07,2,-0.0011175,-0.0018711,-0.00057744,-0.30543,-0.10447,-9.7986,0,0,36.996,1,1,7745,3872
11932,5.205e+07,2,-0.0009621,-0.0012905,-0.00063939,-0.30486,-0.10354,-9.8007,0,0,36.996,1,1,7745,3872
11935,5.2053e+07,2,-0.00040493,-0.00081024,-0.0011245,-0.30395,-0.10331,-9.8026,0,0,36.996,1,1,7745,3872
11938,5.2055e+07,2,-0.00097969,-0.00052168,-0.0004182,-0.30339,-0.10346,-9.803,0,0,36.996,1,1,7745,3872
11941,5.2058e+07,2,-0.001709,-0.0015469,0.00055184,-0.30274,-0.10396,-9.8078,0,0,36.996,1,1,7745,3872
11972,5.206e+07,2,-0.0019949,-0.0020592,0.00065978,-0.30335,-0.10381,-9.8172,0,0,36.996,1,1,7745,3872
11976,5.2063e+07,2,-0.0023604,-0.0017993,0.0011132,-0.30498,-0.1036,-9.8227,0,0,36.996,1,1,7745,3872
11979,5.2066e+07,2,-0.0033148,-0.0013835,0.0015244,-0.30851,-0.10507,-9.827,0,0,36.996,1,1,7745,3872
11983,5.2072e+07,2,-0.0022361,-0.0015217,0.00026264,-0.31557,-0.11122,-9.8231,0,0,36.996,1,1,7745,3872
11987,5.2073e+07,2,-0.0017914,-0.0020492,-0.00014574,-0.31727,-0.11121,-9.8192,0,0,36.996,1,1,7745,3872
12018,5.2076e+07,2,-0.0016412,-0.0022341,0.00029288,-0.31868,-0.11025,-9.8151,0,0,36.997,1,1,7745,3872
12021,5.2079e+07,2,-0.0016591,-0.0020771,0.00017825,-0.31934,-0.11059,-9.8117,0,0,36.997,1,1,7745,3872
12024,5.2081e+07,2,-0.0021641,-0.0014865,-0.00030864,-0.31945,-0.11108,-9.8142,0,0,36.997,1,1,7745,3872
12027,5.2084e+07,2,-0.0037204,-0.00017181,-0.00096351,-0.32016,-0.10872,-9.8223,0,0,36.997,1,1,7745,3872
12058,5.2087e+07,2,-0.0041746,-9.92e-05,-0.00069263,-0.31759,-0.10785,-9.8262,0,0,36.997,1,1,7745,3872
12062,5.2089e+07,2,-0.0032978,-0.00021742,0.0010105,-0.313,-0.1099,-9.8259,0,0,36.997,1,1,7745,3872
12065,5.2092e+07,2,-0.0031067,-0.00030957,0.0016688,-0.31037,-0.11113,-9.8232,0,0,36.997,1,1,7745,3872
12069,5.2094e+07,2,-0.0032198,-0.00013457,0.0013181,-0.30781,-0.11042,-9.8194,0,0,36.997,1,1,7745,3872
12100,5.2097e+07,2,-0.0030857,0.00012094,0.00086206,-0.30456,-0.1063,-9.8111,0,0,36.997,1,1,7745,3872
12103,5.21e+07,2,-0.0021458,-0.00031557,-0.00015214,-0.30231,-0.1023,-9.8067,0,0,36.997,1,1,7745,3872
12106,5.2102e+07,2,-0.0020275,-8.6938e-05,-0.0013246,-0.29973,-0.096674,-9.805,0,0,36.997,1,1,7745,3872
12109,5.2105e+07,2,-0.0024214,0.00041775,-0.0015106,-0.29798,-0.094247,-9.8065,0,0,36.997,1,1,7745,3872
12140,5.2108e+07,2,-0.00062745,0.00078608,-0.0010161,-0.29441,-0.093284,-9.8133,0,0,36.997,1,1,7745,3872
12144,5.211e+07,2,9.6358e-05,0.001123,-0.00099654,-0.29319,-0.092642,-9.8175,0,0,36.997,1,1,7745,3872
12147,5.2112e+07,2,-5.3648e-05,0.0018198,-0.00068517,-0.29297,-0.091122,-9.8212,0,0,36.997,1,1,7745,3872
12151,5.2114e+07,2,-0.00019979,0.0027929,0.00073514,-0.29358,-0.088561,-9.8256,0,0,36.998,1,1,7745,3872
12182,5.2117e+07,2,-7.3758e-05,0.0029621,0.00093189,-0.29466,-0.087858,-9.8273,0,0,36.998,1,1,7745,3872
12185,5.212e+07,2,-2.5532e-05,0.0021403,-0.00042777,-0.29752,-0.087889,-9.8271,0,0,36.998,1,1,7745,3872
12188,5.2122e+07,2,-0.00031666,0.0012435,-0.0010484,-0.2993,-0.089693,-9.8282,0,0,36.998,1,1,7745,3872
12196,5.2125e+07,2,-0.001333,0.00068345,-0.0013037,-0.30198,-0.091545,-9.8276,0,0,36.998,1,1,7745,3872
12229,5.2127e+07,2,-0.00072688,0.00026366,-0.00048929,-0.30531,-0.091493,-9.8232,0,0,36.998,1,1,7745,3872
12232,5.213e+07,2,0.00028917,0.00022292,-0.00034093,-0.30573,-0.091929,-9.8201,0,0,36.998,1,1,7745,3872
12235,5.2133e+07,2,0.0014449,0.00016196,-0.0014649,-0.30442,-0.092651,-9.818,0,0,36.998,1,1,7745,3872
12239,5.2135e+07,2,0.001265,0.0002229,-0.002286,-0.3023,-0.093867,-9.817,0,0,36.998,1,1,7745,3872
12270,5.2138e+07,2,0.00012719,0.00039311,-0.0021399,-0.29879,-0.097099,-9.8158,0,0,36.998,1,1,7745,3872
12273,5.214e+07,2,-0.00083072,0.00075588,-0.00071668,-0.29745,-0.10001,-9.8157,0,0,36.998,1,1,7745,3872
12276,5.2143e+07,2,-0.0015111,0.0011281,0.00023365,-0.29643,-0.10494,-9.8161,0,0,36.998,1,1,7745,3872
12280,5.2145e+07,2,-0.0010424,0.0013143,0.0014733,-0.29675,-0.10627,-9.8161,0,0,36.998,1,1,7745,3872
12311,5.2148e+07,2,0.0010423,0.0013022,0.0017036,-0.29907,-0.10547,-9.8191,0,0,36.998,1,1,7745,3872
12314,5.215e+07,2,0.0020585,0.0007332,0.0020682,-0.30115,-0.10305,-9.8199,0,0,36.998,1,1,7745,3872
12317,5.2152e+07,2,0.0019067,6.6486e-05,0.0021329,-0.30392,-0.097998,-9.8161,0,0,36.999,1,1,7745,3872
12320,5.2155e+07,2,0.00096653,0.00011298,0.0016904,-0.3064,-0.094914,-9.8123,0,0,36.999,1,1,7745,3872
12351,5.2157e+07,2,0.00028175,-0.00022693,0.00053786,-0.30815,-0.091317,-9.8047,0,0,36.999,1,1,7745,3872
12354,5.216e+07,2,0.0014217,-0.00042904,-0.00023262,-0.30871,-0.090078,-9.8004,0,0,36.999,1,1,7745,3872
12357,5.2163e+07,2,0.0021917,-0.00011765,0.00017969,-0.31054,-0.089333,-9.7965,0,0,36.999,1,1,7745,3872
12361,5.2166e+07,2,0.0023331,0.00039253,-2.5551e-05,-0.31085,-0.089946,-9.7962,0,0,36.999,1,1,7745,3872
12392,5.2171e+07,2,0.0011799,-0.001037,0.00052233,-0.30733,-0.098598,-9.799,0,0,36.999,1,1,7745,3872
12395,5.2174e+07,2,0.00070112,-0.00016766,0.00085779,-0.30556,-0.10274,-9.8012,0,0,36.999,1,1,7745,3872
12398,5.2179e+07,2,-0.00058075,0.00093291,0.0013197,-0.30424,-0.11017,-9.8046,0,0,36.999,1,1,7745,3872
12431,5.2182e+07,2,-0.00017656,0.0008317,0.00053078,-0.30036,-0.11337,-9.8072,0,0,36.999,1,1,7745,3872
12434,5.2184e+07,2,0.00037771,-0.00028492,9.7605e-05,-0.29843,-0.1155,-9.81,0,0,36.999,1,1,7745,3872
12438,5.2187e+07,2,0.0011081,-0.0011153,0.0003875,-0.29789,-0.11814,-9.8153,0,0,36.999,1,1,7745,3872
12441,5.2189e+07,2,0.0012739,-0.0013912,0.0012593,-0.29744,-0.11833,-9.8194,0,0,36.999,1,1,7745,3872
12472,5.2192e+07,2,0.00063603,-0.00062795,0.0012806,-0.29714,-0.11707,-9.8229,0,0,36.999,1,1,7745,3872
12475,5.2194e+07,2,-9.2053e-06,-0.000445,0.0010142,-0.29637,-0.11557,-9.8263,0,0,36.999,1,1,7745,3872
12479,5.2197e+07,2,-0.0012779,-0.00064322,0.001216,-0.29552,-0.11384,-9.8279,0,0,37,1,1,7745,3872
12483,5.2199e+07,2,-0.0016649,-5.5529e-05,0.0010501,-0.2947,-0.1101,-9.8277,0,0,37,1,1,7745,3872
12514,5.2202e+07,2,-0.0014106,0.00054109,-0.00026458,-0.29386,-0.10847,-9.827,0,0,37,1,1,7745,3872
12517,5.2205e+07,2,-0.0011246,0.00025813,-0.0006598,-0.29307,-0.10849,-9.8242,0,0,37,1,1,7745,3872
12520,5.2206e+07,2,-0.0010408,-0.00027425,-0.00061649,-0.2935,-0.10916,-9.8229,0,0,37,1,1,7745,3872
12524,5.2209e+07,2,-0.00060193,7.3334e-05,-0.0014135,-0.29538,-0.10976,-9.825,0,0,37,1,1,7745,3872
12555,5.2212e+07,2,-0.00060813,0.00072296,-0.0013201,-0.29664,-0.11004,-9.8274,0,0,37,1,1,7745,3872
12558,5.2215e+07,2,0.00092948,0.0013758,-0.00057467,-0.29761,-0.11134,-9.8318,0,0,37,1,1,7745,3872
12562,5.2217e+07,2,0.00055846,0.0014098,-0.00062383,-0.30007,-0.11196,-9.8346,0,0,37,1,1,7745,3872
12565,5.222e+07,2,-0.00094435,0.00074016,0.001023,-0.30603,-0.11128,-9.8312,0,0,37,1,1,7745,3872
12596,5.2222e+07,2,-0.0014695,0.00062722,0.002154,-0.31112,-0.11047,-9.8247,0,0,37,1,1,7745,3872
12599,5.2225e+07,2,-0.0018444,0.0015934,0.0016593,-0.31214,-0.11022,-9.8206,0,0,37,1,1,7745,3872
12606,5.2228e+07,2,-0.0034412,0.0025006,0.00042793,-0.31133,-0.10966,-9.8163,0,0,37,1,1,7745,3872
12609,5.223e+07,2,-0.003973,0.0017825,0.00016115,-0.30915,-0.10953,-9.8138,0,0,37,1,1,7745,3872
12640,5.2233e+07,2,-0.0034553,0.0013361,-0.00036647,-0.30521,-0.10932,-9.8119,0,0,37,1,1,7745,3872
12643,5.2235e+07,2,-0.001728,0.0010146,-0.00074062,-0.30305,-0.10786,-9.8109,0,0,37.001,1,1,7745,3872
12647,5.2238e+07,2,-0.0012799,0.0008536,-6.0184e-05,-0.30222,-0.10595,-9.8118,0,0,37.001,1,1,7745,3872
12650,5.224e+07,2,-0.0016566,0.0003515,0.00014131,-0.30107,-0.10315,-9.8166,0,0,37.001,1,1,7745,3872
12681,5.2243e+07,2,-0.0016009,-1.6053e-05,-0.0010988,-0.30014,-0.10237,-9.818,0,0,37.001,1,1,7745,3872
12684,5.2245e+07,2,-0.0014912,4.5864e-06,-0.0016356,-0.2985,-0.10237,-9.8179,0,0,37.001,1,1,7745,3872
12688,5.2248e+07,2,-0.001475,0.00030768,-0.0011175,-0.29681,-0.10199,-9.8169,0,0,37.001,1,1,7745,3872
12691,5.225e+07,2,-0.0017349,0.00065264,-0.00049471,-0.29503,-0.1023,-9.8153,0,0,37.001,1,1,7745,3872
12722,5.2253e+07,2,-0.0019263,0.00074286,-9.7962e-05,-0.29384,-0.10318,-9.8151,0,0,37.001,1,1,7745,3872
12725,5.2256e+07,2,-0.0019389,0.00048406,0.00088445,-0.29261,-0.10439,-9.8155,0,0,37.001,1,1,7745,3872
12729,5.2258e+07,2,-0.0019899,1.2124e-05,0.0012573,-0.29222,-0.1043,-9.8158,0,0,37.001,1,1,7745,3872
12732,5.226e+07,2,-0.0012292,0.0010331,0.0011958,-0.29209,-0.10326,-9.8156,0,0,37.001,1,1,7745,3872
12763,5.2263e+07,2,-0.0018771,0.0016978,0.0014974,-0.29188,-0.10216,-9.8158,0,0,37.001,1,1,7745,3872
12766,5.2266e+07,2,-0.0029325,0.0015697,0.0025624,-0.29304,-0.098322,-9.8171,0,0,37.002,1,1,7745,3872
12769,5.227e+07,2,-0.0028381,0.00046668,0.0028591,-0.296,-0.093599,-9.8134,0,0,37.002,1,1,7745,3872
12800,5.2276e+07,2,-0.0010277,-0.00168,0.0017674,-0.30098,-0.091784,-9.8127,0,0,37.002,1,1,7745,3872
12804,5.2278e+07,2,-0.00065947,-0.00079426,0.0009198,-0.30468,-0.091032,-9.8116,0,0,37.002,1,1,7745,3872
12807,5.2281e+07,2,-0.0013874,-0.00034988,-0.00059036,-0.30974,-0.090257,-9.8065,0,0,37.002,1,1,7745,3872
12840,5.2283e+07,2,-0.0036788,-0.00034249,-0.00062538,-0.31103,-0.091917,-9.798,0,0,37.002,1,1,7745,3872
12843,5.2287e+07,2,-0.0030836,-0.00045415,-0.00018665,-0.31146,-0.093188,-9.796,0,0,37.002,1,1,7745,3872
12847,5.2289e+07,2,-0.00083296,-0.0015408,0.00080281,-0.31177,-0.09687,-9.8008,0,0,37.002,1,1,7745,3872
12850,5.2291e+07,2,0.00033245,-0.0021096,0.0011874,-0.31158,-0.099017,-9.8057,0,0,37.002,1,1,7745,3872
12881,5.2294e+07,2,0.0008901,-0.0014074,0.0018339,-0.31104,-0.099737,-9.81,0,0,37.002,1,1,7745,3872
12884,5.2296e+07,2,0.00017962,-0.00080045,0.0016689,-0.31051,-0.097847,-9.8164,0,0,37.002,1,1,7745,3872
12887,5.23e+07,2,-0.00010867,-0.00074607,0.0012246,-0.30975,-0.096913,-9.8204,0,0,37.002,1,1,7745,3872
12891,5.2302e+07,2,0.00020102,-0.00064508,0.00033317,-0.30931,-0.095358,-9.8275,0,0,37.002,1,1,7745,3872
12922,5.2305e+07,2,0.00088616,-0.0013616,-0.0010963,-0.30987,-0.094803,-9.8339,0,0,37.002,1,1,7745,3872
12926,5.2307e+07,2,0.0014938,-0.0020454,-0.00070435,-0.30927,-0.095036,-9.8354,0,0,37.002,1,1,7745,3872
12930,5.2309e+07,2,0.0026313,-0.0019022,-0.00018396,-0.30777,-0.095182,-9.8376,0,0,37.002,1,1,7745,3872
12933,5.2312e+07,2,0.003292,-0.0011892,-0.00027358,-0.30797,-0.095832,-9.8386,0,0,37.002,1,1,7745,3872
12964,5.2315e+07,2,0.0027186,-0.00029302,8.5719e-05,-0.30886,-0.097516,-9.8405,0,0,37.002,1,1,7745,3872
12967,5.2317e+07,2,0.001819,-9.1346e-05,0.00059179,-0.30999,-0.098026,-9.8435,0,0,37.002,1,1,7745,3872
12970,5.232e+07,2,0.0015771,-0.0001925,0.00031941,-0.31028,-0.098222,-9.8448,0,0,37.002,1,1,7745,3872
12973,5.2323e+07,2,0.0012929,-2.616e-05,0.00066873,-0.30985,-0.097621,-9.8434,0,0,37.002,1,1,7745,3872
13004,5.2325e+07,2,0.00092518,0.00010712,0.0008848,-0.30832,-0.097738,-9.8406,0,0,37.002,1,1,7745,3872
13007,5.2328e+07,2,0.0002466,0.00027581,0.00098665,-0.30749,-0.098463,-9.8381,0,0,37.002,1,1,7745,3872
13015,5.233e+07,2,0.00097586,0.0011512,0.00094386,-0.30528,-0.098643,-9.8374,0,0,37.001,1,1,7745,3872
13018,5.2333e+07,2,0.0015633,0.0016297,0.00099408,-0.30408,-0.098745,-9.8355,0,0,37.001,1,1,7745,3872
13049,5.2336e+07,2,0.0014719,0.0013578,0.0010741,-0.30388,-0.10044,-9.8311,0,0,37.001,1,1,7745,3872
13052,5.2338e+07,2,0.00099362,0.0014791,0.0013903,-0.30383,-0.10123,-9.8284,0,0,37.001,1,1,7745,3872
13055,5.2341e+07,2,0.00029491,0.00076535,0.0018023,-0.30201,-0.1004,-9.8255,0,0,37.001,1,1,7745,3872
13059,5.2343e+07,2,7.3298e-05,0.0004237,0.0015534,-0.30034,-0.10093,-9.8228,0,0,37.001,1,1,7745,3872
13090,5.2346e+07,2,-0.0001622,0.00032336,0.00068932,-0.29824,-0.10189,-9.8202,0,0,37.001,1,1,7745,3872
13093,5.2349e+07,2,-0.00045304,-0.00013749,-0.00040341,-0.2949,-0.1022,-9.8213,0,0,37.001,1,1,7745,3872
13097,5.2351e+07,2,-0.00051021,0.00024349,-0.00062523,-0.2937,-0.10262,-9.8216,0,0,37,1,1,7745,3872
13100,5.2353e+07,2,-0.00023351,0.00087273,0.0001248,-0.29324,-0.10419,-9.82,0,0,37,1,1,7745,3872
13131,5.2356e+07,2,-0.00025745,0.0011012,0.00048965,-0.29306,-0.10698,-9.8175,0,0,37,1,1,7745,3872
13134,5.2358e+07,2,9.1334e-05,0.0014594,0.00082501,-0.29207,-0.11088,-9.8126,0,0,37,1,1,7745,3872
13138,5.2361e+07,2,0.00080912,0.001849,0.00068369,-0.292,-0.11295,-9.8096,0,0,37,1,1,7745,3872
13141,5.2364e+07,2,0.00095838,0.002963,0.00060955,-0.29232,-0.11401,-9.8038,0,0,37,1,1,7745,3872
13144,5.2366e+07,2,0.0015082,0.0026783,0.00077875,-0.29384,-0.11485,-9.8015,0,0,37,1,1,7745,3872
13175,5.2369e+07,2,0.00043166,0.00074768,8.6786e-05,-0.29706,-0.11803,-9.8029,0,0,37,1,1,7745,3872
13178,5.2371e+07,2,-0.00079751,0.00012354,-0.00014514,-0.29839,-0.11886,-9.8026,0,0,36.999,1,1,7745,3872
13181,5.2373e+07,2,-0.0016709,8.8816e-05,0.0007766,-0.29826,-0.11754,-9.8014,0,0,36.999,1,1,7745,3872
13184,5.2376e+07,2,-0.0016996,0.00045002,0.00098813,-0.29714,-0.11686,-9.8019,0,0,36.999,1,1,7745,3872
13187,5.2381e+07,2,-0.0010323,0.00012021,0.0016462,-0.29381,-0.11559,-9.804,0,0,36.999,1,1,7745,3872
13219,5.2383e+07,2,-0.0013752,-0.00097522,0.0015085,-0.29285,-0.11573,-9.807,0,0,36.999,1,1,7745,3872
13224,5.2386e+07,2,-0.0014243,-0.001137,0.0014947,-0.2914,-0.11624,-9.8101,0,0,36.999,1,1,7745,3872
13227,5.2389e+07,2,-0.0015697,-0.0006193,0.0014424,-0.28927,-0.11794,-9.8127,0,0,36.998,1,1,7745,3872
13230,5.2391e+07,2,-0.0018766,-6.453e-05,0.0010887,-0.28822,-0.11927,-9.8147,0,0,36.998,1,1,7745,3872
13261,5.2394e+07,2,-0.0015066,-0.00016453,-0.00034014,-0.2882,-0.11981,-9.8182,0,0,36.998,1,1,7745,3872
13265,5.2396e+07,2,-0.0012631,-0.00080248,-0.0010545,-0.28784,-0.11931,-9.8233,0,0,36.998,1,1,7745,3872
13268,5.2399e+07,2,-0.0013118,-0.001294,-0.00057215,-0.28784,-0.11831,-9.8269,0,0,36.998,1,1,7745,3872
13271,5.2401e+07,2,-0.00091886,-0.0019208,0.00088004,-0.28768,-0.11472,-9.8288,0,0,36.998,1,1,7745,3872
13302,5.2404e+07,2,-0.0011518,-0.0016402,0.001554,-0.28791,-0.11257,-9.829,0,0,36.998,1,1,7745,3872
13305,5.2406e+07,2,-0.0018755,-0.00067607,0.000744,-0.28791,-0.10959,-9.8278,0,0,36.997,1,1,7745,3872
13309,5.2409e+07,2,-0.0018194,-0.00062862,0.00028739,-0.28766,-0.1079,-9.8259,0,0,36.997,1,1,7745,3872
13313,5.2412e+07,2,-0.0020597,-0.0012059,-0.00010643,-0.28708,-0.1056,-9.8221,0,0,36.997,1,1,7745,3872
13344,5.2414e+07,2,-0.0024177,-0.0014348,-0.0017022,-0.28773,-0.10371,-9.8178,0,0,36.997,1,1,7745,3872
13348,5.2417e+07,2,-0.0023946,-0.0016569,-0.0014761,-0.28798,-0.10294,-9.8167,0,0,36.997,1,1,7745,3872
13351,5.2419e+07,2,-0.0023026,-0.0010845,-0.00098508,-0.28915,-0.10055,-9.8154,0,0,36.997,1,1,7745,3872
13354,5.2422e+07,2,-0.0028805,-0.00067256,-0.00085813,-0.2904,-0.098195,-9.8166,0,0,36.997,1,1,7745,3872
13385,5.2425e+07,2,-0.0035133,-0.00069409,5.9538e-05,-0.29277,-0.093271,-9.82,0,0,36.997,1,1,7745,3872
13388,5.2427e+07,2,-0.0028942,-0.00056289,2.029e-05,-0.29494,-0.089836,-9.8208,0,0,36.997,1,1,7745,3872
13391,5.2429e+07,2,-0.0015529,-0.00075957,-0.00080634,-0.29917,-0.086578,-9.8193,0,0,36.996,1,1,7745,3872
13398,5.2433e+07,2,-0.00062283,-0.00063004,-0.00066752,-0.30282,-0.085707,-9.8169,0,0,36.996,1,1,7745,3872
13401,5.2434e+07,2,3.2602e-05,6.1111e-05,0.00058525,-0.3073,-0.086791,-9.8154,0,0,36.996,1,1,7745,3872
13433,5.2437e+07,2,-0.00029292,0.00011367,0.0011672,-0.30804,-0.089016,-9.8157,0,0,36.996,1,1,7745,3872
13436,5.2439e+07,2,-0.00052304,0.00017705,0.0011576,-0.30805,-0.094376,-9.8153,0,0,36.996,1,1,7745,3872
13439,5.2442e+07,2,-0.00092806,0.00055587,0.0011455,-0.30793,-0.096596,-9.8135,0,0,36.996,1,1,7745,3872
13442,5.2445e+07,2,-0.0011758,0.0014426,0.0010061,-0.30736,-0.099246,-9.8122,0,0,36.996,1,1,7745,3872
13473,5.2447e+07,2,-0.0016679,0.0012544,0.00040339,-0.30624,-0.1013,-9.8131,0,0,36.996,1,1,7745,3872
13477,5.245e+07,2,-0.0016497,0.0010888,0.00046445,-0.30487,-0.10258,-9.8141,0,0,36.996,1,1,7745,3872
13480,5.2452e+07,2,-0.0016071,0.0012261,0.00043882,-0.30391,-0.10271,-9.8149,0,0,36.996,1,1,7745,3872
13483,5.2454e+07,2,-0.0016301,0.0016855,0.00046103,-0.30332,-0.10299,-9.8153,0,0,36.996,1,1,7745,3872
13515,5.2458e+07,2,-0.00094231,0.0020076,0.00078434,-0.3042,-0.10326,-9.8157,0,0,36.996,1,1,7745,3872
13518,5.246e+07,2,-0.00060364,0.0021862,0.00040304,-0.30507,-0.10204,-9.8183,0,0,36.996,1,1,7745,3872
13522,5.2463e+07,2,0.00017007,0.0020397,-0.00032396,-0.30424,-0.10086,-9.8219,0,0,36.996,1,1,7745,3872
13525,5.2464e+07,2,0.0014373,0.0016307,-0.0011322,-0.30308,-0.10037,-9.8253,0,0,36.996,1,1,7745,3872
13556,5.2467e+07,2,0.0017062,0.0016018,-0.0013252,-0.30288,-0.098987,-9.8272,0,0,36.997,1,1,7745,3872
13560,5.247e+07,2,0.00040061,0.0021866,-0.00060848,-0.30251,-0.096781,-9.832,0,0,36.997,1,1,7745,3872
13563,5.2473e+07,2,-0.00037011,0.0027139,-0.00031784,-0.30153,-0.09651,-9.8353,0,0,36.997,1,1,7745,3872
13566,5.2475e+07,2,0.00010269,0.0025635,0.00055157,-0.29919,-0.097348,-9.8374,0,0,36.997,1,1,7745,3872
13597,5.248e+07,2,0.00077802,0.00061106,0.00028614,-0.29629,-0.09658,-9.8401,0,0,36.997,1,1,7745,3872
13601,5.2485e+07,2,0.00045844,0.00062487,-0.00045214,-0.29486,-0.099672,-9.8423,0,0,36.997,1,1,7745,3872
13632,5.2488e+07,2,0.00076099,0.00057657,-0.001056,-0.29609,-0.10126,-9.8387,0,0,36.997,1,1,7745,3872
13635,5.249e+07,2,0.0021786,-2.5111e-05,-0.00045004,-0.29617,-0.10496,-9.8345,0,0,36.997,1,1,7745,3872
13638,5.2493e+07,2,0.0026965,-0.00059365,0.00047981,-0.29514,-0.10627,-9.8321,0,0,36.997,1,1,7745,3872
13641,5.2495e+07,2,0.0019334,-0.00091779,0.00048218,-0.29356,-0.10676,-9.8306,0,0,36.997,1,1,7745,3872
13672,5.2498e+07,2,0.0014607,-0.00076783,6.5922e-05,-0.29234,-0.10682,-9.8308,0,0,36.997,1,1,7745,3872
13675,5.2501e+07,2,0.00063956,-0.00041401,-0.00061126,-0.29069,-0.10622,-9.8294,0,0,36.997,1,1,7745,3872
13679,5.2503e+07,2,-0.00054528,-0.00050601,-0.00066873,-0.28995,-0.10524,-9.8269,0,0,36.997,1,1,7745,3872
13683,5.2506e+07,2,-0.0014118,-0.0013575,0.00090204,-0.29148,-0.10299,-9.8241,0,0,36.997,1,1,7745,3872
