LineNo,TimeUS,I,GyrX,GyrY,GyrZ,AccX,AccY,AccZ,EG,EA,T,GH,AH,GHz,AHz
183,4.9046e+07,0,0.0017804,-0.00023824,0.00016488,-0.38913,-0.04414,-9.779,0,0,44.736,1,1,8008,4004
292,4.908e+07,0,0.001843,-0.0021357,-0.0015582,-0.40059,-0.039737,-9.7851,0,0,44.738,1,1,8008,4004
323,4.9083e+07,0,0.0016756,-0.00088087,-0.00093486,-0.39759,-0.03981,-9.7832,0,0,44.738,1,1,8008,4004
403,4.9103e+07,0,0.0019546,-0.00078698,0.00054948,-0.38054,-0.051639,-9.7625,0,0,44.74,1,1,8008,4004
519,4.9126e+07,0,-0.0011542,7.8113e-06,0.00035645,-0.37586,-0.052337,-9.7634,0,0,44.742,1,1,8008,4004
554,4.9129e+07,0,-0.002252,-0.00016329,6.7814e-05,-0.372,-0.052558,-9.7679,0,0,44.742,1,1,8008,4004
630,4.9146e+07,0,-0.0018559,-0.001507,-0.00034558,-0.38248,-0.056715,-9.7748,0,0,44.745,1,1,8008,4004
745,4.9167e+07,0,-0.003433,-0.0011215,-0.0024852,-0.37216,-0.03626,-9.7887,0,0,44.747,1,1,8008,4004
860,4.9188e+07,0,-0.0017655,-0.001357,-0.00051655,-0.38107,-0.023542,-9.7901,0,0,44.748,1,1,8008,4004
974,4.9212e+07,0,-0.0001786,-0.0017191,-0.0012583,-0.37204,-0.032407,-9.7602,0,0,44.75,1,1,8008,4004
977,4.9215e+07,0,0.001272,-0.001819,-0.0013373,-0.37504,-0.030571,-9.7623,0,0,44.75,1,1,8008,4004
980,4.9216e+07,0,0.0023346,-0.0022342,-0.0013244,-0.3777,-0.028964,-9.7632,0,0,44.751,1,1,8008,4004
1011,4.9219e+07,0,0.0023165,-0.0023916,-0.0010749,-0.38311,-0.027387,-9.7666,0,0,44.751,1,1,8008,4004
1082,4.9246e+07,0,0.0016342,-0.00015915,0.00012659,-0.38473,-0.03678,-9.7874,0,0,44.752,1,1,8008,4004
1197,4.9329e+07,0,-0.0016072,-0.0017128,0.00046124,-0.38349,-0.040072,-9.7566,0,0,44.752,1,1,8008,4004
1228,4.9331e+07,0,-0.0021146,-0.0012632,-9.2848e-05,-0.38366,-0.039636,-9.7581,0,0,44.752,1,1,8008,4004
1308,4.9405e+07,0,0.0025816,-0.00020244,-0.00072874,-0.38474,-0.050125,-9.7867,0,0,44.752,1,1,8008,4004
1390,4.9425e+07,0,0.0013354,-0.00059159,0.00038563,-0.38606,-0.050133,-9.7827,0,0,44.752,1,1,8008,4004
1487,4.9436e+07,0,-0.001126,-0.0012953,-0.00085607,-0.37955,-0.045905,-9.7847,0,0,44.752,1,1,8008,4004
1579,4.9448e+07,0,-0.003806,-0.0028678,0.00043785,-0.37711,-0.05303,-9.7739,0,0,44.752,1,1,8008,4004
1610,4.9451e+07,0,-0.0028939,-0.0015657,0.0012235,-0.3782,-0.050183,-9.7706,0,0,44.752,1,1,8008,4004
1641,4.9455e+07,0,-0.0018279,-0.0012327,0.0011613,-0.38041,-0.047471,-9.7671,0,0,44.752,1,1,8008,4004
1645,4.9456e+07,0,-0.0020969,-0.0019803,0.00063599,-0.38384,-0.046962,-9.7663,0,0,44.752,1,1,8008,4004
1648,4.9459e+07,0,-0.0033986,-0.0032253,-2.5448e-05,-0.38806,-0.04835,-9.766,0,0,44.752,1,1,8008,4004
1651,4.9461e+07,0,-0.0039413,-0.0037265,-0.00045971,-0.38857,-0.048729,-9.7658,0,0,44.752,1,1,8008,4004
1664,4.9474e+07,0,-0.0032439,-0.0046494,-4.1195e-05,-0.3816,-0.047196,-9.7684,0,0,44.752,1,1,8008,4004
1668,4.9477e+07,0,-0.0029298,-0.0042756,9.0372e-05,-0.38269,-0.046834,-9.7709,0,0,44.752,1,1,8008,4004
1671,4.9479e+07,0,-0.003555,-0.0030788,-0.0002538,-0.38453,-0.047972,-9.7764,0,0,44.752,1,1,8008,4004
1674,4.9482e+07,0,-0.0034911,-0.0024014,-0.00078219,-0.38444,-0.047382,-9.779,0,0,44.751,1,1,8008,4004
1709,4.9485e+07,0,-0.003138,-0.0023332,-4.8348e-05,-0.38337,-0.044693,-9.7811,0,0,44.751,1,1,8008,4004
1712,4.9488e+07,0,-0.0031269,-0.0021981,0.00036848,-0.38303,-0.041989,-9.7799,0,0,44.751,1,1,8008,4004
1715,4.9489e+07,0,-0.003097,-0.0010907,0.00078087,-0.38365,-0.038747,-9.7784,0,0,44.752,1,1,8008,4004
1718,4.9493e+07,0,-0.002762,-0.00042583,0.001056,-0.38402,-0.037412,-9.7753,0,0,44.752,1,1,8008,4004
1749,4.9495e+07,0,-0.0021728,-0.00086612,0.00090479,-0.38355,-0.035348,-9.7695,0,0,44.752,1,1,8008,4004
1753,4.9497e+07,0,-0.0021712,-0.0018011,-0.00013291,-0.38242,-0.034388,-9.7669,0,0,44.752,1,1,8008,4004
1756,4.95e+07,0,-0.00296,-0.0026218,-0.0020449,-0.38248,-0.033898,-9.7633,0,0,44.752,1,1,8008,4004
1759,4.9502e+07,0,-0.0030759,-0.0032153,-0.0022889,-0.38423,-0.034288,-9.7608,0,0,44.752,1,1,8008,4004
1790,4.9505e+07,0,-0.0025077,-0.0035196,-0.001487,-0.38814,-0.035557,-9.7569,0,0,44.753,1,1,8008,4004
1793,4.9507e+07,0,-0.0019414,-0.0028018,-0.0016624,-0.39031,-0.035618,-9.7537,0,0,44.753,1,1,8008,4004
1796,4.951e+07,0,-0.0013906,-0.0011044,-0.002307,-0.39226,-0.035038,-9.7497,0,0,44.753,1,1,8008,4004
1800,4.9513e+07,0,-0.0014859,8.8658e-05,-0.0024457,-0.39202,-0.034219,-9.7489,0,0,44.753,1,1,8008,4004
1831,4.9515e+07,0,-0.0016486,0.00046928,-0.0020321,-0.39169,-0.032253,-9.7531,0,0,44.753,1,1,8008,4004
1835,4.9518e+07,0,-0.00114,0.00036252,-0.0013908,-0.39067,-0.030731,-9.7587,0,0,44.753,1,1,8008,4004
1838,4.952e+07,0,-0.00090074,0.0001353,-0.00075574,-0.38837,-0.030064,-9.7665,0,0,44.754,1,1,8008,4004
1841,4.9522e+07,0,-0.001402,-0.00075171,-0.00084405,-0.3887,-0.030946,-9.7683,0,0,44.754,1,1,8008,4004
1872,4.9525e+07,0,-0.0018194,-0.0015174,-0.00079494,-0.39213,-0.03193,-9.7691,0,0,44.754,1,1,8008,4004
1876,4.9527e+07,0,-0.0017235,-0.0012865,-0.00034777,-0.39427,-0.032335,-9.7698,0,0,44.754,1,1,8008,4004
1879,4.9531e+07,0,-0.00073965,-0.0005882,-0.00011758,-0.39565,-0.03292,-9.7723,0,0,44.754,1,1,8008,4004
1882,4.9533e+07,0,0.00058862,-0.00014169,-0.00047445,-0.39354,-0.031761,-9.775,0,0,44.754,1,1,8008,4004
1913,4.9535e+07,0,0.00084307,9.9001e-05,-0.0014029,-0.39217,-0.030304,-9.7743,0,0,44.755,1,1,8008,4004
1917,4.9537e+07,0,0.00069955,0.00010228,-0.0015838,-0.3908,-0.028743,-9.771,0,0,44.755,1,1,8008,4004
1920,4.954e+07,0,0.0015741,-0.00027514,-0.00045675,-0.38804,-0.02598,-9.7659,0,0,44.755,1,1,8008,4004
1923,4.9543e+07,0,0.0022356,-0.00053834,0.00040891,-0.38669,-0.024437,-9.7657,0,0,44.755,1,1,8008,4004
1954,4.9547e+07,0,0.0027132,-0.0004849,0.0013852,-0.38683,-0.023794,-9.7644,0,0,44.755,1,1,8008,4004
1957,4.9548e+07,0,0.0023753,-1.2747e-05,0.0018035,-0.3883,-0.022744,-9.7642,0,0,44.756,1,1,8008,4004
1960,4.955e+07,0,0.0021518,0.00010542,0.0017438,-0.38828,-0.022155,-9.7666,0,0,44.756,1,1,8008,4004
1963,4.9553e+07,0,0.001739,-0.00063302,0.0007173,-0.38851,-0.022838,-9.771,0,0,44.756,1,1,8008,4004
1994,4.9556e+07,0,0.0012621,-0.0003636,-0.00027193,-0.38971,-0.023837,-9.7752,0,0,44.756,1,1,8008,4004
1998,4.9558e+07,0,0.0012268,-0.00027009,-0.00013684,-0.38964,-0.024842,-9.7784,0,0,44.757,1,1,8008,4004
2001,4.956e+07,0,0.0018335,0.00044675,-0.00019476,-0.38838,-0.026855,-9.7805,0,0,44.757,1,1,8008,4004
2004,4.9563e+07,0,0.0032822,0.0010684,-0.00073691,-0.38587,-0.031817,-9.7797,0,0,44.757,1,1,8008,4004
2035,4.9566e+07,0,0.0037053,0.00081658,-0.00087053,-0.3855,-0.035691,-9.777,0,0,44.757,1,1,8008,4004
2040,4.9568e+07,0,0.0031933,-0.00011104,-0.00036402,-0.38632,-0.040462,-9.7751,0,0,44.757,1,1,8008,4004
2043,4.957e+07,0,0.0025234,-0.00032997,-0.00033394,-0.38669,-0.042893,-9.7748,0,0,44.758,1,1,8008,4004
2046,4.9573e+07,0,0.0016757,-0.0010957,-5.8598e-05,-0.3863,-0.043866,-9.7774,0,0,44.758,1,1,8008,4004
2077,4.9575e+07,0,0.0017639,-0.0010769,-0.00076214,-0.38706,-0.042225,-9.7771,0,0,44.758,1,1,8008,4004
2080,4.9578e+07,0,0.0019394,-0.0015439,-0.0012376,-0.38672,-0.040317,-9.7788,0,0,44.758,1,1,8008,4004
2085,4.9581e+07,0,0.0021424,-0.0014177,-0.00066113,-0.38528,-0.03966,-9.7808,0,0,44.759,1,1,8008,4004
2088,4.9583e+07,0,0.002479,-0.0011814,-0.00011538,-0.38186,-0.039442,-9.784,0,0,44.759,1,1,8008,4004
2123,4.9586e+07,0,0.0023201,-0.0012462,0.00049007,-0.3792,-0.039539,-9.784,0,0,44.759,1,1,8008,4004
2127,4.9588e+07,0,0.0025747,-0.00074237,0.0015688,-0.37756,-0.04021,-9.78,0,0,44.76,1,1,8008,4004
2130,4.9591e+07,0,0.0027008,-0.00061348,0.001899,-0.37691,-0.041002,-9.776,0,0,44.76,1,1,8008,4004
2133,4.9594e+07,0,0.0023764,-0.00024675,0.0010067,-0.37526,-0.043243,-9.7699,0,0,44.76,1,1,8008,4004
2164,4.9596e+07,0,0.0012498,0.0003,0.00030136,-0.37537,-0.045508,-9.7679,0,0,44.76,1,1,8008,4004
2167,4.9598e+07,0,0.00061211,0.00025978,0.00038222,-0.37576,-0.046576,-9.7686,0,0,44.76,1,1,8008,4004
2170,4.9601e+07,0,0.00055225,0.00020559,0.0014096,-0.37636,-0.049598,-9.7681,0,0,44.761,1,1,8008,4004
2173,4.9604e+07,0,0.00052709,0.00066235,0.0018223,-0.37549,-0.050693,-9.7661,0,0,44.761,1,1,8008,4004
2204,4.9606e+07,0,0.00099007,0.00053372,0.0021037,-0.37312,-0.053806,-9.767,0,0,44.761,1,1,8008,4004
2208,4.9608e+07,0,0.00043443,3.9212e-05,0.0026095,-0.37261,-0.05584,-9.7692,0,0,44.762,1,1,8008,4004
2211,4.9611e+07,0,-0.00014511,0.00017701,0.002112,-0.37438,-0.056642,-9.771,0,0,44.762,1,1,8008,4004
2215,4.9614e+07,0,-1.3108e-05,0.00016325,0.001367,-0.37522,-0.056191,-9.7715,0,0,44.762,1,1,8008,4004
2246,4.9616e+07,0,-0.0010821,-0.00032068,0.00087211,-0.37639,-0.053537,-9.7728,0,0,44.762,1,1,8008,4004
2249,4.9619e+07,0,-0.0015666,5.3219e-05,-4.0846e-05,-0.37734,-0.048704,-9.7777,0,0,44.762,1,1,8008,4004
2252,4.9622e+07,0,-0.0016945,-0.00049907,-1.83e-05,-0.37661,-0.045141,-9.7825,0,0,44.762,1,1,8008,4004
2255,4.9626e+07,0,-0.0032373,-0.0011215,0.00093465,-0.38117,-0.038533,-9.7862,0,0,44.763,1,1,8008,4004
2287,4.9629e+07,0,-0.0043087,-0.00029798,0.0012187,-0.38197,-0.039678,-9.7838,0,0,44.763,1,1,8008,4004
2290,4.9633e+07,0,-0.0048821,0.00026335,0.0011758,-0.382,-0.040406,-9.7814,0,0,44.763,1,1,8008,4004
2293,4.9634e+07,0,-0.0044895,4.0458e-05,0.0002973,-0.38003,-0.041527,-9.7792,0,0,44.763,1,1,8008,4004
2296,4.9637e+07,0,-0.0040776,-0.00072151,-0.00018846,-0.37753,-0.041822,-9.7783,0,0,44.763,1,1,8008,4004
2327,4.9639e+07,0,-0.0032811,-0.0010569,-2.5921e-05,-0.37545,-0.042687,-9.7764,0,0,44.764,1,1,8008,4004
2332,4.9642e+07,0,-0.0044813,0.0010714,7.4185e-06,-0.37524,-0.045947,-9.7741,0,0,44.764,1,1,8008,4004
2335,4.9645e+07,0,-0.0059274,0.0019631,-0.00042588,-0.37529,-0.046753,-9.7739,0,0,44.764,1,1,8008,4004
2338,4.9647e+07,0,-0.0055682,0.0012391,-0.00083998,-0.37677,-0.046565,-9.774,0,0,44.764,1,1,8008,4004
2369,4.965e+07,0,-0.0049889,0.00035763,-0.0020672,-0.37875,-0.045186,-9.7737,0,0,44.764,1,1,8008,4004
2372,4.9653e+07,0,-0.0044279,-8.253e-05,-0.0022241,-0.38056,-0.042538,-9.7719,0,0,44.764,1,1,8008,4004
2375,4.9655e+07,0,-0.0036954,-0.00018742,-0.0014103,-0.38148,-0.038788,-9.7705,0,0,44.764,1,1,8008,4004
2378,4.9657e+07,0,-0.003509,-0.00028043,-0.001222,-0.38239,-0.037348,-9.7697,0,0,44.764,1,1,8008,4004
2409,4.966e+07,0,-0.0026948,-0.00053976,-0.00050672,-0.38445,-0.036618,-9.7684,0,0,44.765,1,1,8008,4004
2413,4.9663e+07,0,-0.0027143,-0.0012376,-0.00083374,-0.3857,-0.036279,-9.7676,0,0,44.765,1,1,8008,4004
2416,4.9665e+07,0,-0.0021528,-0.0017831,-0.0006645,-0.38558,-0.035271,-9.7684,0,0,44.765,1,1,8008,4004
2419,4.9668e+07,0,-0.0019733,-0.0013161,-0.00023896,-0.38477,-0.03457,-9.7702,0,0,44.765,1,1,8008,4004
2450,4.967e+07,0,-0.0016477,-0.00097611,-0.00062355,-0.38204,-0.032371,-9.7739,0,0,44.765,1,1,8008,4004
2453,4.9673e+07,0,-0.00096154,-0.00043182,-0.001665,-0.37827,-0.030873,-9.7797,0,0,44.765,1,1,8008,4004
2456,4.9675e+07,0,-0.0010181,9.0252e-05,-0.0018294,-0.37656,-0.030134,-9.7813,0,0,44.765,1,1,8008,4004
2459,4.9678e+07,0,-0.00049892,-0.0011662,-0.0016422,-0.37498,-0.03182,-9.7773,0,0,44.766,1,1,8008,4004
2490,4.9681e+07,0,0.0001673,-0.0025136,-0.0015736,-0.37421,-0.031455,-9.7743,0,0,44.766,1,1,8008,4004
2494,4.9683e+07,0,0.00072479,-0.0029853,-0.00074875,-0.37398,-0.02861,-9.7722,0,0,44.766,1,1,8008,4004
2498,4.9686e+07,0,0.0011203,-0.0023909,-0.0011403,-0.37341,-0.027816,-9.7728,0,0,44.766,1,1,8008,4004
2505,4.9688e+07,0,0.001389,-0.0019848,-0.0021757,-0.372,-0.027881,-9.775,0,0,44.766,1,1,8008,4004
2536,4.969e+07,0,0.0013011,-0.001719,-0.003055,-0.37051,-0.027735,-9.776,0,0,44.766,1,1,8008,4004
2540,4.9693e+07,0,0.00066279,-0.0015726,-0.0030593,-0.36879,-0.02799,-9.7757,0,0,44.766,1,1,8008,4004
2543,4.9695e+07,0,0.00078603,-0.0022703,-0.0025429,-0.36835,-0.029614,-9.7766,0,0,44.767,1,1,8008,4004
2546,4.9699e+07,0,0.0016249,-0.0026668,-0.0019791,-0.36922,-0.033532,-9.7782,0,0,44.767,1,1,8008,4004
2577,4.9701e+07,0,0.0019497,-0.0022676,-0.00077758,-0.36989,-0.03599,-9.7771,0,0,44.767,1,1,8008,4004
2580,4.9704e+07,0,0.0021144,-0.0019187,-0.00079138,-0.37044,-0.037386,-9.7772,0,0,44.767,1,1,8008,4004
2583,4.9706e+07,0,0.0020806,-0.0012287,-0.00085281,-0.37204,-0.039865,-9.7773,0,0,44.767,1,1,8008,4004
2586,4.9709e+07,0,0.001538,-0.0010602,0.0001672,-0.3729,-0.041553,-9.7788,0,0,44.767,1,1,8008,4004
2617,4.9711e+07,0,0.0014143,-0.0012496,-3.6492e-05,-0.37491,-0.042403,-9.778,0,0,44.767,1,1,8008,4004
2621,4.9713e+07,0,0.0018372,-0.0012706,-0.00053611,-0.37711,-0.042548,-9.7764,0,0,44.768,1,1,8008,4004
2624,4.9716e+07,0,0.0015327,-0.0015436,-0.00055088,-0.38066,-0.042994,-9.7751,0,0,44.768,1,1,8008,4004
2628,4.9719e+07,0,0.001252,-0.0019996,-0.0006029,-0.38147,-0.043184,-9.7749,0,0,44.768,1,1,8008,4004
2659,4.9721e+07,0,0.0016812,-0.0012044,0.00019463,-0.37888,-0.045293,-9.7758,0,0,44.768,1,1,8008,4004
2662,4.9725e+07,0,0.0020836,-5.4098e-05,-0.00050334,-0.3758,-0.04763,-9.7771,0,0,44.768,1,1,8008,4004
2665,4.9726e+07,0,0.0024812,-0.00029645,-0.00068374,-0.3755,-0.048659,-9.7777,0,0,44.768,1,1,8008,4004
2668,4.9729e+07,0,0.0035201,-0.00014777,-0.00043942,-0.37745,-0.049193,-9.7769,0,0,44.769,1,1,8008,4004
2699,4.9731e+07,0,0.0033928,-0.00037052,-0.00035926,-0.3799,-0.049381,-9.7754,0,0,44.769,1,1,8008,4004
2703,4.9737e+07,0,0.0032576,-0.0034182,0.00012674,-0.38467,-0.051399,-9.7709,0,0,44.769,1,1,8008,4004
2706,4.9739e+07,0,0.0021348,-0.0028211,-0.00035991,-0.3859,-0.053638,-9.7697,0,0,44.769,1,1,8008,4004
2737,4.9741e+07,0,0.0016367,-0.0016915,-0.00058265,-0.3866,-0.056043,-9.7681,0,0,44.769,1,1,8008,4004
2740,4.9744e+07,0,0.0018127,-0.00034359,-0.00053781,-0.38753,-0.058119,-9.7651,0,0,44.77,1,1,8008,4004
2743,4.9747e+07,0,0.0012713,-0.0001386,-0.00090415,-0.38779,-0.059884,-9.7616,0,0,44.77,1,1,8008,4004
2746,4.9749e+07,0,0.00041172,-0.00019938,-0.00093549,-0.38671,-0.060711,-9.758,0,0,44.77,1,1,8008,4004
2777,4.9752e+07,0,0.00030784,-5.4107e-05,-0.00046623,-0.38518,-0.06078,-9.7566,0,0,44.77,1,1,8008,4004
2781,4.9754e+07,0,0.0006322,0.00053691,-0.00028735,-0.38297,-0.06151,-9.7564,0,0,44.77,1,1,8008,4004
2784,4.9756e+07,0,0.00035432,0.00034131,-0.00015555,-0.38233,-0.061369,-9.7574,0,0,44.77,1,1,8008,4004
2787,4.9759e+07,0,-0.00093417,-0.0003672,-0.00019765,-0.38259,-0.06145,-9.7575,0,0,44.771,1,1,8008,4004
2818,4.9762e+07,0,-0.0016799,-0.00013694,0.00037452,-0.38349,-0.060753,-9.7574,0,0,44.771,1,1,8008,4004
2822,4.9764e+07,0,-0.0011084,-0.0002583,0.00014033,-0.38485,-0.059088,-9.7569,0,0,44.771,1,1,8008,4004
2825,4.9766e+07,0,-0.00050518,-0.00090536,0.00021434,-0.38621,-0.058982,-9.7581,0,0,44.771,1,1,8008,4004
2829,4.9769e+07,0,-0.00010887,-0.0019182,0.00064554,-0.38796,-0.060625,-9.7615,0,0,44.771,1,1,8008,4004
2860,4.9772e+07,0,-0.00015987,-0.0019548,0.00084,-0.38926,-0.061436,-9.7617,0,0,44.772,1,1,8008,4004
2863,4.9774e+07,0,-0.0014056,-0.0015532,0.00021132,-0.39321,-0.060084,-9.759,0,0,44.772,1,1,8008,4004
2866,4.9777e+07,0,-0.0024068,-0.00092856,-0.00054637,-0.39638,-0.057594,-9.7569,0,0,44.772,1,1,8008,4004
2869,4.9779e+07,0,-0.0032112,-0.00037351,-0.0019507,-0.39947,-0.054511,-9.7577,0,0,44.772,1,1,8008,4004
2900,4.9781e+07,0,-0.0035392,-0.00056652,-0.0026977,-0.39992,-0.053311,-9.7588,0,0,44.772,1,1,8008,4004
2904,4.9784e+07,0,-0.0033618,-0.00076728,-0.0032408,-0.39789,-0.052698,-9.7598,0,0,44.773,1,1,8008,4004
2909,4.9787e+07,0,-0.00273,-0.00071227,-0.0034989,-0.39522,-0.052317,-9.7611,0,0,44.773,1,1,8008,4004
2916,4.9789e+07,0,-0.0023366,0.00020704,-0.002543,-0.38945,-0.050547,-9.7634,0,0,44.773,1,1,8008,4004
2947,4.9792e+07,0,-0.0026253,0.00055478,-0.0014865,-0.38488,-0.046937,-9.7685,0,0,44.773,1,1,8008,4004
2950,4.9795e+07,0,-0.0033748,-0.00016527,-0.00053614,-0.38277,-0.04359,-9.7742,0,0,44.773,1,1,8008,4004
2953,4.9797e+07,0,-0.0042183,-0.0010211,-7.4132e-05,-0.38164,-0.040016,-9.7822,0,0,44.774,1,1,8008,4004
2957,4.9799e+07,0,-0.0040243,-0.0012728,-0.00033867,-0.38286,-0.037947,-9.7861,0,0,44.774,1,1,8008,4004
2993,4.9803e+07,0,-0.0039374,-0.00052989,-0.00055167,-0.38572,-0.033228,-9.789,0,0,44.774,1,1,8008,4004
2997,4.9804e+07,0,-0.0038415,-0.00022644,0.00013993,-0.38867,-0.031031,-9.7907,0,0,44.774,1,1,8008,4004
3000,4.9807e+07,0,-0.0038822,-0.00034412,0.00020604,-0.3912,-0.027979,-9.7925,0,0,44.774,1,1,8008,4004
3003,4.981e+07,0,-0.0038424,-0.00067221,-0.00068228,-0.3908,-0.026928,-9.7935,0,0,44.775,1,1,8008,4004
3034,4.9812e+07,0,-0.0036609,-0.00040545,-0.0018013,-0.38908,-0.026138,-9.7969,0,0,44.775,1,1,8008,4004
3037,4.9815e+07,0,-0.0036706,-0.00091131,-0.0023085,-0.38722,-0.025213,-9.7991,0,0,44.775,1,1,8008,4004
3040,4.9817e+07,0,-0.0035648,-0.0024397,-0.0026462,-0.384,-0.024708,-9.7998,0,0,44.775,1,1,8008,4004
3044,4.982e+07,0,-0.0035426,-0.0031082,-0.0028193,-0.3819,-0.024128,-9.7987,0,0,44.776,1,1,8008,4004
3075,4.9822e+07,0,-0.004106,-0.003726,-0.0021839,-0.37926,-0.022707,-9.7932,0,0,44.776,1,1,8008,4004
3079,4.9824e+07,0,-0.0037339,-0.0035413,-0.0010592,-0.37812,-0.022178,-9.7894,0,0,44.776,1,1,8008,4004
3082,4.9828e+07,0,-0.0027699,-0.0026791,0.00038841,-0.3774,-0.022957,-9.7833,0,0,44.776,1,1,8008,4004
3085,4.9829e+07,0,-0.0022005,-0.0016316,0.00076045,-0.37829,-0.024109,-9.7796,0,0,44.776,1,1,8008,4004
3116,4.9835e+07,0,-0.0027184,-0.0010345,-0.00050071,-0.38141,-0.030313,-9.7681,0,0,44.777,1,1,8008,4004
3119,4.9837e+07,0,-0.0036181,-0.0012165,-0.00062561,-0.38119,-0.031353,-9.7664,0,0,44.777,1,1,8008,4004
3122,4.9841e+07,0,-0.0027194,-0.0024513,-0.0011376,-0.38162,-0.028912,-9.7668,0,0,44.777,1,1,8008,4004
3153,4.9843e+07,0,-0.0012184,-0.0037944,-0.0010538,-0.38215,-0.026688,-9.7683,0,0,44.777,1,1,8008,4004
3156,4.9846e+07,0,0.00029475,-0.0038091,-0.0013077,-0.38197,-0.02475,-9.7721,0,0,44.777,1,1,8008,4004
3160,4.9848e+07,0,0.0008131,-0.0029547,-0.0014816,-0.38108,-0.023357,-9.775,0,0,44.778,1,1,8008,4004
3163,4.9851e+07,0,0.0015337,-0.0010102,-0.0017511,-0.37895,-0.02221,-9.7783,0,0,44.778,1,1,8008,4004
3194,4.9854e+07,0,0.0021775,-0.00038411,-0.0015838,-0.37754,-0.020557,-9.7757,0,0,44.778,1,1,8008,4004
3197,4.9857e+07,0,0.0022234,-0.0015536,-0.0014461,-0.37592,-0.019621,-9.7727,0,0,44.778,1,1,8008,4004
3201,4.9859e+07,0,0.0012413,-0.0021395,-0.0011367,-0.37415,-0.02027,-9.7723,0,0,44.778,1,1,8008,4004
3205,4.9861e+07,0,0.0003137,-0.0012465,-0.00086813,-0.37305,-0.022312,-9.7749,0,0,44.778,1,1,8008,4004
3236,4.9864e+07,0,0.00010681,-0.00043499,-0.0005123,-0.37236,-0.025077,-9.7769,0,0,44.778,1,1,8008,4004
3239,4.9866e+07,0,0.00010177,0.00022904,-0.00039874,-0.37172,-0.030677,-9.7798,0,0,44.779,1,1,8008,4004
3243,4.9869e+07,0,0.00025812,0.00012874,0.00027293,-0.37137,-0.033182,-9.781,0,0,44.779,1,1,8008,4004
3246,4.9871e+07,0,0.00063083,0.00072833,0.00092609,-0.37374,-0.036683,-9.7813,0,0,44.779,1,1,8008,4004
3277,4.9874e+07,0,0.0017587,0.00083189,0.00053784,-0.37618,-0.039391,-9.7797,0,0,44.779,1,1,8008,4004
3280,4.9876e+07,0,0.0020644,0.00048232,-0.000912,-0.37952,-0.042612,-9.7764,0,0,44.779,1,1,8008,4004
3283,4.9879e+07,0,0.0018372,0.00022698,-0.0022757,-0.38103,-0.043909,-9.7759,0,0,44.779,1,1,8008,4004
3287,4.9881e+07,0,0.0025551,0.00048453,-0.0020142,-0.3823,-0.044358,-9.7749,0,0,44.779,1,1,8008,4004
3318,4.9883e+07,0,0.0034348,0.00031535,-0.001842,-0.38204,-0.04417,-9.7731,0,0,44.779,1,1,8008,4004
3321,4.9886e+07,0,0.0035488,-0.0002753,-0.0021198,-0.38012,-0.043154,-9.7711,0,0,44.779,1,1,8008,4004
3328,4.9889e+07,0,0.0030305,-0.00049862,-0.002043,-0.37826,-0.043206,-9.7714,0,0,44.78,1,1,8008,4004
3335,4.9892e+07,0,0.0027264,-0.0007038,-0.00081692,-0.37737,-0.043173,-9.7733,0,0,44.78,1,1,8008,4004
3366,4.9894e+07,0,0.0031979,3.2251e-05,-0.00022768,-0.37554,-0.045423,-9.7704,0,0,44.78,1,1,8008,4004
3369,4.9897e+07,0,0.0036257,0.00020425,-2.261e-05,-0.37326,-0.050349,-9.769,0,0,44.78,1,1,8008,4004
3372,4.9899e+07,0,0.0032082,-4.6922e-05,-0.00035023,-0.37213,-0.053285,-9.7702,0,0,44.78,1,1,8008,4004
3375,4.9902e+07,0,0.0016464,-0.001186,-0.00068286,-0.37237,-0.055812,-9.7707,0,0,44.78,1,1,8008,4004
3406,4.9905e+07,0,0.00082485,-0.0022903,-0.0004016,-0.37339,-0.057437,-9.7723,0,0,44.78,1,1,8008,4004
3409,4.9907e+07,0,0.00051659,-0.0021407,-5.7241e-05,-0.37354,-0.056775,-9.7762,0,0,44.78,1,1,8008,4004
3413,4.991e+07,0,0.00027867,-0.001795,0.00053189,-0.37263,-0.054563,-9.7805,0,0,44.78,1,1,8008,4004
3416,4.9912e+07,0,0.00030748,-0.0013101,-0.00023415,-0.3715,-0.053456,-9.7813,0,0,44.781,1,1,8008,4004
3447,4.9915e+07,0,-0.00073638,-0.0010538,-0.00095408,-0.37183,-0.052887,-9.7851,0,0,44.781,1,1,8008,4004
3450,4.9918e+07,0,-0.0019359,-0.0010078,-0.001169,-0.37402,-0.051804,-9.789,0,0,44.781,1,1,8008,4004
3453,4.992e+07,0,-0.0025367,-0.00031004,-0.0009933,-0.37675,-0.049219,-9.7914,0,0,44.781,1,1,8008,4004
3456,4.9923e+07,0,-0.0023909,-0.00016804,-0.00039468,-0.37597,-0.046764,-9.7911,0,0,44.781,1,1,8008,4004
3487,4.9925e+07,0,-0.0021282,-0.00034862,0.0007201,-0.37343,-0.042806,-9.7898,0,0,44.781,1,1,8008,4004
3490,4.9928e+07,0,-0.0021472,-0.00083651,0.0011847,-0.37213,-0.040671,-9.7892,0,0,44.781,1,1,8008,4004
3493,4.993e+07,0,-0.0016814,-0.0013261,0.0015367,-0.37297,-0.038688,-9.7863,0,0,44.781,1,1,8008,4004
3497,4.9932e+07,0,-0.0012831,-0.001537,0.0011983,-0.37515,-0.037242,-9.7844,0,0,44.782,1,1,8008,4004
3528,4.9935e+07,0,-0.0011056,-0.0016878,0.00066158,-0.37766,-0.036478,-9.7794,0,0,44.782,1,1,8008,4004
3531,4.9937e+07,0,-0.0020665,-0.0024395,0.00094954,-0.37864,-0.036991,-9.7745,0,0,44.782,1,1,8008,4004
3535,4.994e+07,0,-0.0031144,-0.0028951,0.0011275,-0.38054,-0.036892,-9.7687,0,0,44.782,1,1,8008,4004
3539,4.9942e+07,0,-0.0029742,-0.0029243,0.0012854,-0.38088,-0.035836,-9.7657,0,0,44.782,1,1,8008,4004
3570,4.9946e+07,0,-0.0033159,-0.0027577,1.5093e-05,-0.38016,-0.034149,-9.7605,0,0,44.782,1,1,8008,4004
3573,4.9948e+07,0,-0.0037035,-0.0024769,-0.0017792,-0.37926,-0.033923,-9.7572,0,0,44.782,1,1,8008,4004
3576,4.995e+07,0,-0.0041976,-0.0019141,-0.0030802,-0.37884,-0.033588,-9.7538,0,0,44.782,1,1,8008,4004
3579,4.9953e+07,0,-0.0050351,-0.0014971,-0.0029031,-0.37829,-0.031975,-9.7546,0,0,44.782,1,1,8008,4004
3610,4.9956e+07,0,-0.0053148,-0.0015789,-0.0022631,-0.37761,-0.029265,-9.7547,0,0,44.782,1,1,8008,4004
3613,4.9958e+07,0,-0.0048271,-0.0020352,-0.0018906,-0.37729,-0.028121,-9.753,0,0,44.782,1,1,8008,4004
3616,4.996e+07,0,-0.0039973,-0.001556,-0.0014323,-0.37645,-0.02836,-9.752,0,0,44.783,1,1,8008,4004
3620,4.9963e+07,0,-0.003742,-0.0017334,-0.00063507,-0.37572,-0.02859,-9.7547,0,0,44.783,1,1,8008,4004
3651,4.9965e+07,0,-0.0037253,-0.0020907,-4.6464e-05,-0.37596,-0.029614,-9.7607,0,0,44.783,1,1,8008,4004
3655,4.9968e+07,0,-0.0039006,-0.0020827,-8.2178e-05,-0.37775,-0.030796,-9.7655,0,0,44.783,1,1,8008,4004
3658,4.997e+07,0,-0.0037052,-0.0021955,4.93e-05,-0.38048,-0.033749,-9.7734,0,0,44.783,1,1,8008,4004
3661,4.9973e+07,0,-0.0037704,-0.0018942,0.00010045,-0.38174,-0.035309,-9.7786,0,0,44.783,1,1,8008,4004
3692,4.9975e+07,0,-0.003121,-0.0022219,0.0001895,-0.38366,-0.03797,-9.7806,0,0,44.783,1,1,8008,4004
3695,4.9978e+07,0,-0.0028489,-0.002509,-9.7538e-05,-0.38471,-0.040022,-9.7792,0,0,44.783,1,1,8008,4004
3698,4.998e+07,0,-0.0021846,-0.0015598,-0.00012157,-0.3828,-0.044416,-9.7809,0,0,44.783,1,1,8008,4004
3703,4.9983e+07,0,-0.0019607,-0.00086245,0.00022819,-0.38096,-0.046137,-9.7791,0,0,44.783,1,1,8008,4004
3734,4.9985e+07,0,-0.001569,-0.00098315,0.00071302,-0.37975,-0.045281,-9.7719,0,0,44.783,1,1,8008,4004
3737,4.9987e+07,0,-0.0010114,-0.00055059,0.00081213,-0.37973,-0.042636,-9.7672,0,0,44.783,1,1,8008,4004
3742,4.9991e+07,0,-0.00058542,0.00019433,0.00077183,-0.38127,-0.039388,-9.7618,0,0,44.784,1,1,8008,4004
3750,4.9993e+07,0,-0.0013559,0.00036987,0.00076338,-0.38184,-0.038134,-9.762,0,0,44.784,1,1,8008,4004
3781,4.9996e+07,0,-0.001661,0.00025255,-0.00057423,-0.38232,-0.036908,-9.7656,0,0,44.784,1,1,8008,4004
3784,4.9998e+07,0,-0.0015963,0.00043049,-0.0013122,-0.38287,-0.037288,-9.7693,0,0,44.784,1,1,8008,4004
3787,5.0001e+07,0,-0.0007694,0.00070479,-0.0013792,-0.38374,-0.038136,-9.7719,0,0,44.784,1,1,8008,4004
3790,5.0003e+07,0,-0.00087049,0.00085585,-0.0011142,-0.38347,-0.037137,-9.7728,0,0,44.784,1,1,8008,4004
3821,5.0006e+07,0,-0.00090871,0.0010145,-0.00015465,-0.38409,-0.033604,-9.7724,0,0,44.784,1,1,8008,4004
3824,5.0008e+07,0,-0.00049435,0.00083792,0.0003839,-0.38549,-0.03198,-9.7722,0,0,44.784,1,1,8008,4004
3827,5.0011e+07,0,-0.0001459,-0.0002744,0.00056977,-0.38634,-0.030738,-9.7755,0,0,44.785,1,1,8008,4004
3831,5.0013e+07,0,-0.00095856,-0.00024885,0.00027464,-0.38587,-0.031248,-9.777,0,0,44.785,1,1,8008,4004
3862,5.0016e+07,0,-0.0019404,-0.00072451,-0.0007567,-0.38541,-0.034085,-9.7764,0,0,44.785,1,1,8008,4004
3865,5.0019e+07,0,-0.0015897,-0.0010335,-0.0013705,-0.3854,-0.035707,-9.7747,0,0,44.785,1,1,8008,4004
3868,5.0021e+07,0,-2.0517e-05,-0.0013681,-0.0010639,-0.38602,-0.036499,-9.7713,0,0,44.785,1,1,8008,4004
3871,5.0023e+07,0,0.00054836,-0.001197,-0.00071429,-0.38574,-0.037547,-9.7669,0,0,44.786,1,1,8008,4004
3902,5.0026e+07,0,0.00038351,-0.00086342,-0.00036854,-0.38414,-0.040563,-9.7614,0,0,44.786,1,1,8008,4004
3905,5.0029e+07,0,0.00017109,-0.00045943,0.00023411,-0.38358,-0.042254,-9.76,0,0,44.786,1,1,8008,4004
3908,5.0031e+07,0,-0.00017351,-3.2307e-06,0.0006198,-0.38162,-0.042093,-9.7598,0,0,44.786,1,1,8008,4004
3912,5.0033e+07,0,-0.00021908,-0.00042477,0.0010741,-0.38076,-0.041808,-9.759,0,0,44.786,1,1,8008,4004
3943,5.0036e+07,0,0.00092961,-0.0005678,0.0012889,-0.37916,-0.042176,-9.7559,0,0,44.787,1,1,8008,4004
3946,5.0038e+07,0,0.00079307,-0.00032836,0.00082557,-0.37825,-0.043157,-9.7532,0,0,44.787,1,1,8008,4004
3949,5.0045e+07,0,-2.8039e-05,-0.00056862,0.00017799,-0.37928,-0.046243,-9.7572,0,0,44.787,1,1,8008,4004
3952,5.0046e+07,0,-0.0001416,-0.0015341,0.00010958,-0.38066,-0.046355,-9.7605,0,0,44.787,1,1,8008,4004
3983,5.0049e+07,0,0.00068798,-0.0020336,-0.00025075,-0.38306,-0.043317,-9.7673,0,0,44.787,1,1,8008,4004
3986,5.0051e+07,0,0.0011751,-0.001972,0.00019502,-0.38458,-0.040894,-9.7688,0,0,44.788,1,1,8008,4004
3989,5.0054e+07,0,0.0011173,-0.0019015,0.00077138,-0.38618,-0.03893,-9.7688,0,0,44.788,1,1,8008,4004
3993,5.0057e+07,0,0.00066541,-0.002463,0.0010276,-0.38912,-0.037684,-9.7684,0,0,44.788,1,1,8008,4004
4024,5.0059e+07,0,0.00097997,-0.0028981,0.00013821,-0.38963,-0.037525,-9.767,0,0,44.788,1,1,8008,4004
4027,5.0062e+07,0,0.00072335,-0.0032008,-0.00096888,-0.3896,-0.035458,-9.7645,0,0,44.788,1,1,8008,4004
4030,5.0064e+07,0,-3.6636e-05,-0.0025429,-0.00078028,-0.39055,-0.034576,-9.7618,0,0,44.789,1,1,8008,4004
4034,5.0067e+07,0,-0.00021852,-0.0014278,1.1275e-05,-0.39209,-0.034738,-9.7575,0,0,44.789,1,1,8008,4004
4065,5.007e+07,0,-0.00023747,-0.00099741,-0.00030843,-0.38963,-0.037366,-9.7542,0,0,44.789,1,1,8008,4004
4068,5.0072e+07,0,-0.00039819,-0.00092693,-0.0001304,-0.38762,-0.039147,-9.7531,0,0,44.789,1,1,8008,4004
4072,5.0075e+07,0,-0.0015599,-0.0012029,0.00030181,-0.38424,-0.04014,-9.7513,0,0,44.789,1,1,8008,4004
4075,5.0077e+07,0,-0.00083306,-0.0012069,0.00069741,-0.3825,-0.040062,-9.7504,0,0,44.789,1,1,8008,4004
4106,5.008e+07,0,0.00021506,-0.0014646,0.00011817,-0.38141,-0.039673,-9.7542,0,0,44.789,1,1,8008,4004
4109,5.0082e+07,0,0.00074633,-0.00093796,-0.00046744,-0.38033,-0.039857,-9.76,0,0,44.789,1,1,8008,4004
4113,5.0085e+07,0,0.0010773,-0.00084677,-0.0009526,-0.37755,-0.041711,-9.767,0,0,44.79,1,1,8008,4004
4117,5.0087e+07,0,0.00036986,-0.0007187,-0.00093783,-0.37505,-0.044746,-9.7688,0,0,44.79,1,1,8008,4004
4148,5.009e+07,0,-0.0012727,-0.0004477,-0.00072988,-0.37225,-0.047439,-9.7694,0,0,44.79,1,1,8008,4004
4151,5.0093e+07,0,-0.0014294,-8.051e-05,-0.00079735,-0.37241,-0.04812,-9.7679,0,0,44.79,1,1,8008,4004
4158,5.0095e+07,0,-0.00085013,0.00075197,-0.00094916,-0.37523,-0.049477,-9.7655,0,0,44.79,1,1,8008,4004
4163,5.0097e+07,0,-0.00012962,0.00061758,-0.00054155,-0.37747,-0.04992,-9.7643,0,0,44.79,1,1,8008,4004
4194,5.01e+07,0,4.6664e-05,0.00031085,-0.00060808,-0.38061,-0.050862,-9.7629,0,0,44.79,1,1,8008,4004
4197,5.0102e+07,0,-0.0011651,-8.0627e-05,-0.00077115,-0.38275,-0.051723,-9.7622,0,0,44.79,1,1,8008,4004
4200,5.0105e+07,0,-0.003542,-7.8993e-05,-0.00081114,-0.38572,-0.052221,-9.7638,0,0,44.791,1,1,8008,4004
4204,5.0108e+07,0,-0.0040345,0.00044814,-0.0013915,-0.38876,-0.052869,-9.7669,0,0,44.791,1,1,8008,4004
4235,5.011e+07,0,-0.0036813,0.0016136,-0.0026252,-0.39344,-0.053443,-9.7723,0,0,44.791,1,1,8008,4004
4238,5.0113e+07,0,-0.0027841,0.0017699,-0.0029614,-0.39487,-0.053275,-9.7737,0,0,44.791,1,1,8008,4004
4241,5.0115e+07,0,-0.0017655,0.0014867,-0.0028556,-0.39354,-0.052018,-9.7751,0,0,44.791,1,1,8008,4004
4245,5.0118e+07,0,-0.0014297,0.00096025,-0.0028796,-0.3911,-0.048538,-9.7774,0,0,44.791,1,1,8008,4004
4276,5.0121e+07,0,-0.0015076,0.00025237,-0.002853,-0.38688,-0.041819,-9.7813,0,0,44.791,1,1,8008,4004
4279,5.0123e+07,0,-0.0024245,-0.00062294,-0.0024893,-0.38414,-0.036136,-9.7835,0,0,44.791,1,1,8008,4004
4282,5.0125e+07,0,-0.0023049,-0.0012569,-0.0022704,-0.38174,-0.034144,-9.7826,0,0,44.791,1,1,8008,4004
4285,5.0128e+07,0,-0.0019945,-0.0019934,-0.0019628,-0.3751,-0.033524,-9.7791,0,0,44.792,1,1,8008,4004
4316,5.0131e+07,0,-0.0017044,-0.0018858,-0.0011884,-0.3699,-0.035908,-9.7762,0,0,44.792,1,1,8008,4004
4320,5.0134e+07,0,-0.0022171,-0.00075463,-0.00023431,-0.36793,-0.038282,-9.7756,0,0,44.792,1,1,8008,4004
4323,5.0135e+07,0,-0.00246,-3.5567e-05,0.00058379,-0.36754,-0.041186,-9.7755,0,0,44.792,1,1,8008,4004
4327,5.0138e+07,0,-0.0029026,0.00012817,0.0011934,-0.37034,-0.046714,-9.7733,0,0,44.792,1,1,8008,4004
4358,5.0144e+07,0,-0.002178,-0.00045768,0.0014788,-0.37672,-0.051613,-9.7733,0,0,44.792,1,1,8008,4004
4361,5.0145e+07,0,-0.0013647,-0.00020725,0.0014226,-0.37802,-0.050985,-9.7732,0,0,44.792,1,1,8008,4004
4364,5.0148e+07,0,-0.0012035,-0.00043698,0.00083926,-0.37901,-0.050305,-9.7738,0,0,44.793,1,1,8008,4004
4395,5.015e+07,0,-0.0014505,-0.0011359,0.00046783,-0.37969,-0.048983,-9.7743,0,0,44.793,1,1,8008,4004
4398,5.0154e+07,0,-0.0022389,-0.00073756,-0.00047691,-0.38039,-0.046534,-9.7741,0,0,44.793,1,1,8008,4004
4401,5.0156e+07,0,-0.0019745,-0.00038626,-0.00065571,-0.38084,-0.043581,-9.7738,0,0,44.793,1,1,8008,4004
4405,5.0158e+07,0,-0.0010776,-0.00091708,-0.00049094,-0.37956,-0.039477,-9.7742,0,0,44.793,1,1,8008,4004
4436,5.016e+07,0,-0.0013197,-0.0008981,-0.001677,-0.37681,-0.036834,-9.7752,0,0,44.793,1,1,8008,4004
4439,5.0163e+07,0,-0.001597,-0.0010003,-0.0013886,-0.37267,-0.031958,-9.7757,0,0,44.793,1,1,8008,4004
4442,5.0166e+07,0,-0.0021587,-0.0012435,-0.0011565,-0.37209,-0.028791,-9.7766,0,0,44.793,1,1,8008,4004
4445,5.0168e+07,0,-0.0027388,-0.0018298,-0.0009103,-0.37443,-0.026117,-9.7802,0,0,44.793,1,1,8008,4004
4476,5.017e+07,0,-0.0028947,-0.0019016,-0.00042836,-0.37799,-0.025386,-9.7803,0,0,44.793,1,1,8008,4004
4479,5.0173e+07,0,-0.0029888,-0.0012748,-0.0008136,-0.38033,-0.026073,-9.7792,0,0,44.793,1,1,8008,4004
4482,5.0176e+07,0,-0.0027582,-0.00064643,-0.0013216,-0.3821,-0.027069,-9.7791,0,0,44.793,1,1,8008,4004
4486,5.0178e+07,0,-0.0011472,-0.00087222,-0.0014118,-0.3835,-0.02991,-9.7765,0,0,44.792,1,1,8008,4004
4517,5.0181e+07,0,-0.0011314,-0.0017421,-0.0015087,-0.38396,-0.031345,-9.7731,0,0,44.792,1,1,8008,4004
4520,5.0183e+07,0,-0.00021557,-0.0028361,-0.0010997,-0.38453,-0.034116,-9.7701,0,0,44.792,1,1,8008,4004
4524,5.0185e+07,0,0.00079496,-0.0037381,-0.00057399,-0.3852,-0.036216,-9.7682,0,0,44.792,1,1,8008,4004
4527,5.0188e+07,0,0.0019162,-0.0037356,-0.00048235,-0.38241,-0.039337,-9.7642,0,0,44.792,1,1,8008,4004
4558,5.0191e+07,0,0.0017118,-0.0034158,-0.00057077,-0.38007,-0.041345,-9.7605,0,0,44.792,1,1,8008,4004
4561,5.0193e+07,0,0.00053268,-0.0023357,-0.00047347,-0.37742,-0.042282,-9.756,0,0,44.792,1,1,8008,4004
4570,5.0196e+07,0,-0.00013027,-0.0014818,3.6743e-05,-0.37701,-0.043488,-9.7561,0,0,44.792,1,1,8008,4004
4574,5.0198e+07,0,-0.00044205,-0.00082956,0.00025042,-0.3792,-0.04374,-9.7589,0,0,44.792,1,1,8008,4004
4605,5.0201e+07,0,9.7745e-05,-0.0018402,9.3114e-06,-0.38175,-0.042485,-9.762,0,0,44.792,1,1,8008,4004
4608,5.0203e+07,0,0.00046254,-0.0016434,-0.00039053,-0.3837,-0.040882,-9.7646,0,0,44.792,1,1,8008,4004
4611,5.0206e+07,0,0.00059226,-0.0011736,-8.3853e-05,-0.38631,-0.03931,-9.7681,0,0,44.792,1,1,8008,4004
4615,5.0208e+07,0,0.00058742,-0.00076537,-5.5285e-05,-0.38975,-0.03658,-9.7709,0,0,44.792,1,1,8008,4004
4646,5.021e+07,0,0.00033726,-0.00034304,-8.4939e-05,-0.39158,-0.035317,-9.7736,0,0,44.791,1,1,8008,4004
4649,5.0213e+07,0,-0.00050127,0.00014581,-9.8322e-05,-0.39155,-0.035445,-9.778,0,0,44.791,1,1,8008,4004
4652,5.0215e+07,0,0.00023711,-0.00062456,-0.00024537,-0.39004,-0.035879,-9.7814,0,0,44.791,1,1,8008,4004
4655,5.0218e+07,0,0.0014293,-0.0011975,-0.00071254,-0.38909,-0.038036,-9.7843,0,0,44.791,1,1,8008,4004
4686,5.0221e+07,0,0.0023933,-0.0010859,0.00050501,-0.38776,-0.040089,-9.7798,0,0,44.791,1,1,8008,4004
4689,5.0223e+07,0,0.0020238,-0.00121,0.0008484,-0.3875,-0.042063,-9.775,0,0,44.791,1,1,8008,4004
4692,5.0226e+07,0,0.0019486,-0.00081526,0.00057805,-0.38689,-0.045096,-9.7705,0,0,44.792,1,1,8008,4004
4696,5.0228e+07,0,0.0022583,-0.00039183,-2.9531e-05,-0.38713,-0.046939,-9.7661,0,0,44.792,1,1,8008,4004
4727,5.0231e+07,0,0.0022864,-0.000932,-0.0010518,-0.38809,-0.047369,-9.7663,0,0,44.792,1,1,8008,4004
4730,5.0233e+07,0,0.001567,-0.0018967,-0.0013347,-0.38825,-0.049473,-9.7687,0,0,44.792,1,1,8008,4004
4733,5.0235e+07,0,0.00066536,-0.0015381,-0.00085723,-0.38713,-0.051566,-9.77,0,0,44.792,1,1,8008,4004
4736,5.024e+07,0,0.00068611,-0.0017224,-0.0004711,-0.38367,-0.055342,-9.7696,0,0,44.792,1,1,8008,4004
4767,5.0244e+07,0,0.00063414,-0.0019625,-0.00047183,-0.38412,-0.054864,-9.7688,0,0,44.792,1,1,8008,4004
4770,5.0245e+07,0,-0.00017634,-0.0019346,-3.8396e-05,-0.38541,-0.053843,-9.7668,0,0,44.792,1,1,8008,4004
4774,5.0248e+07,0,-0.001167,-0.002274,0.0011314,-0.38672,-0.05083,-9.7619,0,0,44.792,1,1,8008,4004
4777,5.0251e+07,0,-0.00081278,-0.0019843,0.0010975,-0.38592,-0.048007,-9.758,0,0,44.792,1,1,8008,4004
4808,5.0253e+07,0,0.00038289,-0.00041199,-0.00013588,-0.38405,-0.043944,-9.7542,0,0,44.792,1,1,8008,4004
4811,5.0256e+07,0,0.00073866,0.00011054,-0.00078418,-0.38312,-0.041745,-9.7585,0,0,44.792,1,1,8008,4004
4814,5.0258e+07,0,0.00048098,-0.00035712,-0.00066736,-0.38179,-0.042195,-9.7635,0,0,44.792,1,1,8008,4004
4817,5.0261e+07,0,-0.00022491,-0.0007761,-0.00043231,-0.38004,-0.04283,-9.7685,0,0,44.791,1,1,8008,4004
4848,5.0264e+07,0,-2.4705e-05,-0.00034486,-0.00099962,-0.38088,-0.043199,-9.7692,0,0,44.791,1,1,8008,4004
4852,5.0267e+07,0,-3.0206e-05,-1.4902e-05,-0.0014591,-0.38285,-0.042475,-9.7674,0,0,44.791,1,1,8008,4004
4856,5.0269e+07,0,-0.00070289,0.00058074,-0.0014282,-0.38501,-0.041983,-9.7631,0,0,44.791,1,1,8008,4004
4859,5.0271e+07,0,-0.00072965,0.00077506,-0.0015451,-0.38508,-0.043378,-9.7603,0,0,44.792,1,1,8008,4004
4890,5.0274e+07,0,-0.0010933,-0.00030539,-0.0027729,-0.38394,-0.045327,-9.758,0,0,44.792,1,1,8008,4004
4893,5.0276e+07,0,-0.0014646,-0.0013148,-0.0034708,-0.38309,-0.045178,-9.7588,0,0,44.792,1,1,8008,4004
4897,5.0279e+07,0,-0.0014263,-0.0022265,-0.0038746,-0.38054,-0.044776,-9.7614,0,0,44.792,1,1,8008,4004
4900,5.0282e+07,0,-0.0015047,-0.0024569,-0.0027193,-0.37865,-0.045853,-9.7636,0,0,44.792,1,1,8008,4004
4931,5.0284e+07,0,-0.0012269,-0.0015985,-0.00107,-0.37774,-0.049093,-9.7654,0,0,44.792,1,1,8008,4004
4936,5.0287e+07,0,-0.00087466,-0.0011545,-0.00099294,-0.3764,-0.05065,-9.7667,0,0,44.792,1,1,8008,4004
4939,5.0289e+07,0,-0.0008677,0.00014337,-0.00084713,-0.37542,-0.050648,-9.7681,0,0,44.792,1,1,8008,4004
4942,5.0292e+07,0,-0.00050472,0.00038053,-0.0019533,-0.37232,-0.050812,-9.7692,0,0,44.792,1,1,8008,4004
4975,5.0294e+07,0,0.00022163,-8.4865e-05,-0.0026673,-0.37101,-0.051083,-9.7703,0,0,44.792,1,1,8008,4004
4982,5.0298e+07,0,0.00093846,0.00025106,-0.0020537,-0.37212,-0.049947,-9.7714,0,0,44.791,1,1,8008,4004
4985,5.0299e+07,0,0.00025757,0.00028364,-0.0013057,-0.37436,-0.0496,-9.7725,0,0,44.791,1,1,8008,4004
4988,5.0302e+07,0,-0.00084257,0.00055147,-0.0011362,-0.37663,-0.04959,-9.7741,0,0,44.792,1,1,8008,4004
5019,5.0305e+07,0,-0.0015422,0.00048923,-0.00098742,-0.37861,-0.049189,-9.7728,0,0,44.792,1,1,8008,4004
5022,5.0307e+07,0,-0.001946,-4.0683e-05,-0.00058027,-0.37907,-0.0488,-9.7718,0,0,44.792,1,1,8008,4004
5025,5.031e+07,0,-0.0018476,-0.00047402,-4.4533e-05,-0.3804,-0.048167,-9.7714,0,0,44.792,1,1,8008,4004
5028,5.0313e+07,0,-0.0015297,-0.00040323,4.0318e-05,-0.38255,-0.048021,-9.7708,0,0,44.792,1,1,8008,4004
5059,5.0315e+07,0,-0.0014035,0.00016494,-0.00096709,-0.3854,-0.046089,-9.7704,0,0,44.792,1,1,8008,4004
5064,5.0317e+07,0,-0.001472,0.00090546,-0.0013889,-0.38774,-0.043538,-9.7697,0,0,44.792,1,1,8008,4004
5068,5.032e+07,0,-0.0019092,0.00080854,-0.0012359,-0.39052,-0.040015,-9.769,0,0,44.792,1,1,8008,4004
5071,5.0323e+07,0,-0.001947,0.00015865,-0.0011411,-0.39168,-0.03901,-9.768,0,0,44.792,1,1,8008,4004
5102,5.0325e+07,0,-0.0017792,-0.00053775,-0.00094504,-0.39198,-0.03994,-9.7647,0,0,44.792,1,1,8008,4004
5105,5.0328e+07,0,-0.002892,-0.00065856,-0.00076256,-0.38821,-0.039972,-9.7629,0,0,44.792,1,1,8008,4004
5109,5.033e+07,0,-0.002486,-0.00014265,-0.00087132,-0.38324,-0.03858,-9.7628,0,0,44.792,1,1,8008,4004
5112,5.0335e+07,0,-0.00094766,-0.00042329,0.00033043,-0.36938,-0.033998,-9.7658,0,0,44.792,1,1,8008,4004
5143,5.0338e+07,0,-0.0011413,-1.0125e-05,0.00080708,-0.36416,-0.031859,-9.7737,0,0,44.792,1,1,8008,4004
5147,5.034e+07,0,-0.0009804,0.00051375,0.00051139,-0.36237,-0.031055,-9.7785,0,0,44.792,1,1,8008,4004
5150,5.0343e+07,0,-0.00011427,0.00053326,0.00025617,-0.36192,-0.030064,-9.7814,0,0,44.792,1,1,8008,4004
5153,5.0346e+07,0,0.00051527,5.3136e-05,2.8379e-06,-0.36411,-0.029398,-9.7815,0,0,44.792,1,1,8008,4004
5184,5.0348e+07,0,0.00041448,-9.5589e-05,0.00014525,-0.36885,-0.03077,-9.7799,0,0,44.792,1,1,8008,4004
5188,5.0353e+07,0,-0.00051494,0.0016686,0.0016653,-0.37405,-0.037434,-9.779,0,0,44.792,1,1,8008,4004
5191,5.0356e+07,0,0.00016351,0.0016954,0.00071505,-0.37618,-0.042259,-9.7787,0,0,44.792,1,1,8008,4004
5222,5.0359e+07,0,0.00061433,0.0013188,-0.00019602,-0.37661,-0.046453,-9.7753,0,0,44.792,1,1,8008,4004
5225,5.0361e+07,0,0.0010238,0.0013452,-0.0012699,-0.37486,-0.051461,-9.7668,0,0,44.792,1,1,8008,4004
5228,5.0363e+07,0,0.00054789,0.00078689,-0.0014766,-0.37318,-0.052366,-9.763,0,0,44.792,1,1,8008,4004
5231,5.0366e+07,0,9.6334e-05,-0.00057036,-0.0016395,-0.37013,-0.051503,-9.7603,0,0,44.792,1,1,8008,4004
5262,5.0368e+07,0,-0.00041819,-0.00055449,-0.00097927,-0.36838,-0.048973,-9.7589,0,0,44.792,1,1,8008,4004
5266,5.0371e+07,0,-0.0012717,-0.0014653,-0.00040708,-0.36557,-0.043286,-9.7566,0,0,44.792,1,1,8008,4004
5269,5.0374e+07,0,-0.00058485,-0.0011749,-0.00048437,-0.36279,-0.039511,-9.7555,0,0,44.792,1,1,8008,4004
5272,5.0376e+07,0,0.001183,-0.00029364,0.00022377,-0.35772,-0.035226,-9.7556,0,0,44.792,1,1,8008,4004
5305,5.0379e+07,0,0.0019324,0.00035036,0.00059644,-0.35569,-0.033711,-9.7556,0,0,44.792,1,1,8008,4004
5308,5.0381e+07,0,0.0021351,-1.652e-06,0.00023432,-0.35606,-0.03415,-9.7563,0,0,44.792,1,1,8008,4004
5311,5.0384e+07,0,0.0017611,-0.00019809,-0.00041039,-0.35686,-0.035709,-9.7577,0,0,44.792,1,1,8008,4004
5315,5.0386e+07,0,0.0019852,-0.00063998,-0.00060768,-0.35941,-0.03815,-9.7573,0,0,44.792,1,1,8008,4004
5346,5.0388e+07,0,0.0021374,-0.00054026,-0.0010056,-0.36242,-0.038021,-9.7573,0,0,44.792,1,1,8008,4004
5350,5.0391e+07,0,0.0025541,-0.00047163,-0.0010628,-0.36762,-0.037105,-9.7604,0,0,44.792,1,1,8008,4004
5353,5.0393e+07,0,0.0022478,-0.00081106,-0.00081246,-0.3703,-0.036464,-9.7621,0,0,44.792,1,1,8008,4004
5356,5.0396e+07,0,0.001238,-0.00092596,0.00013366,-0.37152,-0.03527,-9.7611,0,0,44.792,1,1,8008,4004
5391,5.0399e+07,0,0.00024026,-0.00061362,0.0011271,-0.37145,-0.036829,-9.7581,0,0,44.792,1,1,8008,4004
5394,5.0401e+07,0,-9.8302e-05,6.1615e-05,0.00074742,-0.37149,-0.03802,-9.757,0,0,44.792,1,1,8008,4004
5398,5.0404e+07,0,0.00040353,0.00016415,-1.8921e-05,-0.3721,-0.040237,-9.7571,0,0,44.792,1,1,8008,4004
5401,5.0407e+07,0,0.00089808,-3.7218e-05,-3.9072e-05,-0.37198,-0.04248,-9.7552,0,0,44.792,1,1,8008,4004
5432,5.0409e+07,0,0.0019321,-0.00020993,-0.00055764,-0.37149,-0.043875,-9.7514,0,0,44.792,1,1,8008,4004
5436,5.0412e+07,0,0.001783,-0.00062754,-0.0008619,-0.37249,-0.043979,-9.7513,0,0,44.792,1,1,8008,4004
5439,5.0414e+07,0,0.00080981,-0.00077107,-0.00096262,-0.37786,-0.044128,-9.7539,0,0,44.791,1,1,8008,4004
5442,5.0416e+07,0,0.00040254,-0.00098779,-0.0010177,-0.38368,-0.0441,-9.7548,0,0,44.791,1,1,8008,4004
5473,5.0419e+07,0,-0.00013484,-0.00094469,-0.0015447,-0.39199,-0.043543,-9.7563,0,0,44.791,1,1,8008,4004
5477,5.0422e+07,0,-0.00065375,-0.00092287,-0.0012664,-0.3952,-0.042603,-9.7576,0,0,44.791,1,1,8008,4004
5480,5.0424e+07,0,-0.0013079,-0.00078034,-0.0006012,-0.39955,-0.041761,-9.7616,0,0,44.792,1,1,8008,4004
5483,5.0426e+07,0,-0.0018295,-0.00090891,-0.00075816,-0.40051,-0.042312,-9.7653,0,0,44.792,1,1,8008,4004
5514,5.0429e+07,0,-0.0018058,-0.00081092,-0.0006349,-0.39893,-0.043859,-9.7688,0,0,44.792,1,1,8008,4004
5517,5.0432e+07,0,-0.0017447,-0.00064686,-0.00070655,-0.3974,-0.045301,-9.769,0,0,44.792,1,1,8008,4004
5520,5.0434e+07,0,-0.00095805,-0.0013549,-0.00058627,-0.39304,-0.046987,-9.767,0,0,44.792,1,1,8008,4004
5523,5.0437e+07,0,-0.00014418,-0.0019344,-0.0004009,-0.39024,-0.04858,-9.7656,0,0,44.792,1,1,8008,4004
5554,5.0439e+07,0,0.0010947,-0.0019355,-0.00066363,-0.38873,-0.050686,-9.764,0,0,44.792,1,1,8008,4004
5558,5.0442e+07,0,-0.00017876,-0.0016475,-0.00076273,-0.38661,-0.050893,-9.7669,0,0,44.792,1,1,8008,4004
5561,5.0444e+07,0,-0.0014765,-0.0019579,-0.00069763,-0.38453,-0.050778,-9.7678,0,0,44.792,1,1,8008,4004
5564,5.0449e+07,0,-0.0027193,-0.0032379,-0.001236,-0.37918,-0.047463,-9.7646,0,0,44.792,1,1,8008,4004
5595,5.0452e+07,0,-0.0020251,-0.0024539,-0.0014783,-0.3779,-0.047492,-9.766,0,0,44.792,1,1,8008,4004
5598,5.0457e+07,0,-0.0018193,-0.001891,-0.00079636,-0.37148,-0.048036,-9.7698,0,0,44.791,1,1,8008,4004
5602,5.046e+07,0,-0.0027637,-0.002432,-0.0011319,-0.37033,-0.048175,-9.7729,0,0,44.791,1,1,8008,4004
5633,5.0462e+07,0,-0.0031121,-0.0021102,-0.0010125,-0.37171,-0.049995,-9.7793,0,0,44.791,1,1,8008,4004
5637,5.0465e+07,0,-0.0028162,-0.00055675,-0.0010642,-0.37445,-0.05416,-9.7842,0,0,44.791,1,1,8008,4004
5640,5.0468e+07,0,-0.0024318,0.00014173,-0.0016017,-0.37583,-0.056726,-9.7868,0,0,44.792,1,1,8008,4004
5643,5.047e+07,0,-0.0022403,5.3523e-05,-0.0017551,-0.37942,-0.061214,-9.7897,0,0,44.792,1,1,8008,4004
5674,5.0473e+07,0,-0.0026744,-0.00036544,-0.0002754,-0.38356,-0.063975,-9.7881,0,0,44.792,1,1,8008,4004
5678,5.0475e+07,0,-0.0033196,-0.0003223,0.00028471,-0.38576,-0.064235,-9.7851,0,0,44.792,1,1,8008,4004
5681,5.0477e+07,0,-0.0034475,-0.00055691,-0.00028656,-0.3863,-0.062686,-9.7783,0,0,44.792,1,1,8008,4004
5684,5.048e+07,0,-0.0030611,-0.00041512,-0.00082487,-0.38616,-0.060642,-9.7727,0,0,44.792,1,1,8008,4004
5715,5.0483e+07,0,-0.0027201,-0.00021908,-0.00046879,-0.38665,-0.057587,-9.7668,0,0,44.792,1,1,8008,4004
5718,5.0485e+07,0,-0.0024992,0.00038145,-0.00021258,-0.38667,-0.055997,-9.7644,0,0,44.792,1,1,8008,4004
5721,5.0488e+07,0,-0.001866,0.0015276,-0.0004161,-0.38418,-0.053682,-9.7609,0,0,44.792,1,1,8008,4004
5724,5.049e+07,0,-0.0010695,0.001322,-0.0003553,-0.38187,-0.051597,-9.7611,0,0,44.792,1,1,8008,4004
5755,5.0493e+07,0,0.00012124,0.00033777,0.00058861,-0.3778,-0.047848,-9.7648,0,0,44.792,1,1,8008,4004
5759,5.0496e+07,0,0.00063979,0.00013329,0.0016807,-0.37616,-0.044784,-9.7669,0,0,44.792,1,1,8008,4004
5762,5.0497e+07,0,0.0012718,0.00066701,0.002196,-0.3765,-0.041415,-9.769,0,0,44.793,1,1,8008,4004
5769,5.05e+07,0,0.00091076,7.8667e-05,0.0017923,-0.37716,-0.038953,-9.7688,0,0,44.793,1,1,8008,4004
5800,5.0503e+07,0,7.7417e-06,-0.0015069,1.7862e-05,-0.37974,-0.036474,-9.7669,0,0,44.793,1,1,8008,4004
5803,5.0505e+07,0,-0.00076646,-0.0021343,-0.0002577,-0.38212,-0.036245,-9.7658,0,0,44.793,1,1,8008,4004
5806,5.0508e+07,0,-0.00094122,-0.0018641,1.6883e-05,-0.38543,-0.036515,-9.7657,0,0,44.793,1,1,8008,4004
5809,5.051e+07,0,-0.0007818,-0.00196,-4.4409e-05,-0.38722,-0.037356,-9.7663,0,0,44.793,1,1,8008,4004
5840,5.0513e+07,0,-0.0014328,-0.0013971,-0.00061117,-0.38748,-0.037013,-9.7656,0,0,44.793,1,1,8008,4004
5844,5.0515e+07,0,-0.0011907,-0.0012415,-0.0010601,-0.38616,-0.036343,-9.7638,0,0,44.793,1,1,8008,4004
5849,5.0518e+07,0,-0.0018025,-0.0011626,-0.00077431,-0.38454,-0.034466,-9.7631,0,0,44.793,1,1,8008,4004
5852,5.0521e+07,0,-0.0018196,-0.0012901,-0.00069399,-0.38311,-0.0327,-9.7632,0,0,44.794,1,1,8008,4004
5883,5.0523e+07,0,-0.0021066,-0.0012401,-0.001332,-0.38114,-0.029758,-9.7654,0,0,44.794,1,1,8008,4004
5886,5.0525e+07,0,-0.0023546,-0.0012174,-0.0013916,-0.38161,-0.029516,-9.7654,0,0,44.794,1,1,8008,4004
5889,5.0528e+07,0,-0.001569,-0.00096072,-0.0010224,-0.38465,-0.029271,-9.7634,0,0,44.794,1,1,8008,4004
5892,5.0531e+07,0,-0.00046938,-0.00081593,-0.00056424,-0.38654,-0.028857,-9.7623,0,0,44.794,1,1,8008,4004
5923,5.0536e+07,0,0.00015268,7.322e-05,0.00013013,-0.39725,-0.030387,-9.7648,0,0,44.794,1,1,8008,4004
5927,5.0539e+07,0,-0.00064034,-0.00069609,0.00049029,-0.39976,-0.03232,-9.7658,0,0,44.794,1,1,8008,4004
5930,5.0541e+07,0,-0.0013991,-0.0014632,0.0003099,-0.40031,-0.037837,-9.7672,0,0,44.794,1,1,8008,4004
5961,5.0544e+07,0,-0.00108,-0.0015932,-0.00044594,-0.39791,-0.043707,-9.7695,0,0,44.795,1,1,8008,4004
5964,5.0546e+07,0,-0.00058192,-0.0019367,-0.00035865,-0.39664,-0.045874,-9.7719,0,0,44.795,1,1,8008,4004
5967,5.0549e+07,0,0.00015182,-0.001696,-0.00072174,-0.39518,-0.04715,-9.7737,0,0,44.795,1,1,8008,4004
5970,5.0551e+07,0,0.00052885,-0.0016255,-0.001573,-0.39316,-0.048064,-9.7765,0,0,44.795,1,1,8008,4004
6001,5.0556e+07,0,-0.00051967,-0.0009563,-0.001015,-0.3872,-0.05038,-9.7763,0,0,44.795,1,1,8008,4004
6004,5.0559e+07,0,-0.00040605,-0.00063576,-0.0010941,-0.3832,-0.051057,-9.7753,0,0,44.795,1,1,8008,4004
6007,5.0561e+07,0,0.00060305,-0.00020651,-0.00013865,-0.3774,-0.05153,-9.7748,0,0,44.795,1,1,8008,4004
6038,5.0563e+07,0,0.0011988,-0.00069145,-0.00021875,-0.37428,-0.05144,-9.7751,0,0,44.796,1,1,8008,4004
6041,5.0566e+07,0,0.00095499,-2.9674e-05,-0.00093295,-0.3702,-0.04991,-9.7734,0,0,44.796,1,1,8008,4004
6045,5.0569e+07,0,0.00062046,0.0005461,-0.0015004,-0.36914,-0.04754,-9.7689,0,0,44.796,1,1,8008,4004
6048,5.0571e+07,0,-0.00022736,-0.00058237,-0.001136,-0.36812,-0.043091,-9.7609,0,0,44.796,1,1,8008,4004
6079,5.0573e+07,0,-0.00072426,-0.0009491,-0.00066665,-0.36847,-0.039994,-9.7552,0,0,44.796,1,1,8008,4004
6082,5.0576e+07,0,-0.00076047,-0.00065336,-0.00053749,-0.37302,-0.036488,-9.7506,0,0,44.796,1,1,8008,4004
6086,5.0579e+07,0,-0.00012747,-0.0008541,-0.0006191,-0.37579,-0.035768,-9.7492,0,0,44.797,1,1,8008,4004
6091,5.0582e+07,0,-0.00010568,-0.0011495,0.00025617,-0.37786,-0.036062,-9.749,0,0,44.797,1,1,8008,4004
6094,5.0583e+07,0,-0.00015166,-0.0011104,0.0013733,-0.37962,-0.036389,-9.7497,0,0,44.797,1,1,8008,4004
6125,5.0586e+07,0,-2.5011e-05,-0.00048206,0.0012559,-0.38219,-0.037862,-9.7493,0,0,44.797,1,1,8008,4004
6128,5.0589e+07,0,-0.00045611,-9.6034e-05,0.00089587,-0.38314,-0.037596,-9.7492,0,0,44.797,1,1,8008,4004
6131,5.0591e+07,0,-0.0009247,0.00021883,0.00094386,-0.38191,-0.036784,-9.751,0,0,44.797,1,1,8008,4004
6134,5.0594e+07,0,-0.00098784,-0.00035224,0.00096573,-0.38114,-0.03573,-9.752,0,0,44.797,1,1,8008,4004
6165,5.0596e+07,0,-0.00078915,-0.00094049,0.0011197,-0.38053,-0.035897,-9.7537,0,0,44.798,1,1,8008,4004
6169,5.0599e+07,0,-0.0011706,1.8445e-05,0.0011632,-0.38057,-0.036397,-9.7582,0,0,44.798,1,1,8008,4004
6176,5.0602e+07,0,-0.0016692,0.00078751,0.00059239,-0.38133,-0.036278,-9.7602,0,0,44.798,1,1,8008,4004
6179,5.0604e+07,0,-0.0019138,-3.8413e-05,-0.0008837,-0.38131,-0.03397,-9.7627,0,0,44.798,1,1,8008,4004
6182,5.0607e+07,0,-0.001825,-0.00061186,-0.0014684,-0.38182,-0.031318,-9.7638,0,0,44.798,1,1,8008,4004
6213,5.0609e+07,0,-0.0014504,-0.0010091,-0.001742,-0.38407,-0.027566,-9.7641,0,0,44.798,1,1,8008,4004
6216,5.0612e+07,0,-0.00063706,-0.0012552,-0.00096644,-0.38338,-0.026775,-9.7623,0,0,44.799,1,1,8008,4004
6219,5.0614e+07,0,-0.00012291,-0.0014119,-0.00041042,-0.38228,-0.028258,-9.7606,0,0,44.799,1,1,8008,4004
6222,5.0617e+07,0,3.5606e-05,-0.0016177,5.65e-06,-0.38264,-0.029335,-9.7596,0,0,44.799,1,1,8008,4004
6253,5.062e+07,0,-0.00066676,-0.0015239,0.00046848,-0.38279,-0.029079,-9.7603,0,0,44.799,1,1,8008,4004
6257,5.0622e+07,0,-0.00171,-0.0015301,0.00094589,-0.38107,-0.028281,-9.7626,0,0,44.799,1,1,8008,4004
6260,5.0624e+07,0,-0.001054,-0.0016013,0.0011759,-0.38125,-0.028685,-9.7648,0,0,44.799,1,1,8008,4004
6263,5.0627e+07,0,-0.00040718,-0.00084301,0.0019022,-0.38227,-0.03185,-9.7706,0,0,44.799,1,1,8008,4004
6294,5.063e+07,0,-0.0010228,0.00010751,0.0014244,-0.38299,-0.035034,-9.7752,0,0,44.8,1,1,8008,4004
6298,5.0632e+07,0,-0.001701,0.0010326,-0.00029855,-0.38241,-0.039925,-9.7796,0,0,44.8,1,1,8008,4004
6301,5.0634e+07,0,-0.001985,0.00046635,-0.0016976,-0.38141,-0.042497,-9.7809,0,0,44.8,1,1,8008,4004
6304,5.0636e+07,0,-0.0019568,0.00053053,-0.0018552,-0.38083,-0.043207,-9.7817,0,0,44.8,1,1,8008,4004
6335,5.0639e+07,0,-0.0027104,0.00075547,-0.0014894,-0.38141,-0.042653,-9.7827,0,0,44.8,1,1,8008,4004
6340,5.0642e+07,0,-0.0028729,0.00054787,-0.00098906,-0.38278,-0.042876,-9.7829,0,0,44.8,1,1,8008,4004
6343,5.0649e+07,0,0.00035852,-0.0012057,-0.0013975,-0.38397,-0.049085,-9.787,0,0,44.801,1,1,8008,4004
6374,5.0652e+07,0,-0.00023291,-0.0012336,-0.0023764,-0.38273,-0.05019,-9.7865,0,0,44.801,1,1,8008,4004
6377,5.0654e+07,0,-0.00020846,-0.0016341,-0.0027978,-0.38225,-0.050632,-9.7834,0,0,44.801,1,1,8008,4004
6380,5.0657e+07,0,0.00021351,-0.0022458,-0.0021347,-0.38044,-0.051652,-9.7788,0,0,44.801,1,1,8008,4004
6383,5.0659e+07,0,-0.000282,-0.0031169,-0.0020932,-0.37926,-0.052808,-9.7776,0,0,44.801,1,1,8008,4004
6415,5.0662e+07,0,-0.00083837,-0.0035824,-0.002214,-0.37941,-0.053863,-9.7792,0,0,44.801,1,1,8008,4004
6418,5.0664e+07,0,-0.00073745,-0.0030257,-0.0017343,-0.38009,-0.055167,-9.778,0,0,44.801,1,1,8008,4004
6421,5.0666e+07,0,-0.00086313,-0.0025878,-0.0016164,-0.38198,-0.055166,-9.7754,0,0,44.802,1,1,8008,4004
6424,5.067e+07,0,-0.0012576,-0.0027764,-0.0018099,-0.38251,-0.054188,-9.7734,0,0,44.802,1,1,8008,4004
6455,5.0672e+07,0,-0.00079538,-0.0017753,-0.0012618,-0.38036,-0.050752,-9.77,0,0,44.802,1,1,8008,4004
6459,5.0674e+07,0,-0.00031651,-0.0011489,-0.00067133,-0.3785,-0.047291,-9.769,0,0,44.802,1,1,8008,4004
6462,5.0677e+07,0,-7.0509e-05,-0.00093974,-0.00057643,-0.37643,-0.042736,-9.7683,0,0,44.802,1,1,8008,4004
6466,5.068e+07,0,8.2666e-05,-0.00056343,-0.00053952,-0.37608,-0.041191,-9.7673,0,0,44.802,1,1,8008,4004
6497,5.0683e+07,0,-0.00016065,-0.00072726,0.0002986,-0.37503,-0.038167,-9.7669,0,0,44.802,1,1,8008,4004
6500,5.0685e+07,0,7.3316e-05,-0.0009745,0.00084973,-0.37337,-0.036372,-9.768,0,0,44.803,1,1,8008,4004
6503,5.0687e+07,0,-0.00038106,-0.00064007,0.00077947,-0.37228,-0.034583,-9.7684,0,0,44.803,1,1,8008,4004
6506,5.069e+07,0,-0.00096232,-0.00057358,0.00039462,-0.37269,-0.034026,-9.7683,0,0,44.803,1,1,8008,4004
6537,5.0693e+07,0,-0.0011158,-0.0011798,0.00020388,-0.37397,-0.035503,-9.7697,0,0,44.803,1,1,8008,4004
6541,5.0695e+07,0,-0.0018263,-0.0013674,-6.0856e-05,-0.3731,-0.039251,-9.7691,0,0,44.803,1,1,8008,4004
6544,5.0697e+07,0,-0.0021504,-0.0014496,-5.4731e-05,-0.37102,-0.041514,-9.7691,0,0,44.803,1,1,8008,4004
6547,5.07e+07,0,-0.0018455,-0.0013382,-5.5097e-05,-0.36909,-0.044668,-9.7704,0,0,44.803,1,1,8008,4004
6582,5.0703e+07,0,-0.0002658,-0.00053653,-0.00041431,-0.36863,-0.046423,-9.77,0,0,44.804,1,1,8008,4004
6586,5.0705e+07,0,-1.6692e-06,-0.00059605,-0.00031783,-0.36942,-0.045911,-9.768,0,0,44.804,1,1,8008,4004
6589,5.0708e+07,0,0.0004864,-0.00076308,-0.00060068,-0.3715,-0.044042,-9.7664,0,0,44.804,1,1,8008,4004
6592,5.071e+07,0,0.00051447,-0.00086026,-0.00092883,-0.37318,-0.042374,-9.7684,0,0,44.804,1,1,8008,4004
6623,5.0713e+07,0,-0.00029938,-0.0012601,-0.0010689,-0.37616,-0.041437,-9.7711,0,0,44.804,1,1,8008,4004
6626,5.0715e+07,0,-0.00078249,-0.0013012,-0.0010085,-0.37812,-0.04238,-9.7714,0,0,44.804,1,1,8008,4004
6629,5.0718e+07,0,-0.00023527,-0.00082322,-0.00082902,-0.38197,-0.045064,-9.7699,0,0,44.805,1,1,8008,4004
6632,5.0721e+07,0,0.00024103,-0.00028013,-0.00078351,-0.38477,-0.046366,-9.7688,0,0,44.805,1,1,8008,4004
6663,5.0723e+07,0,0.00026443,-0.0004087,-0.00063396,-0.38538,-0.047613,-9.7668,0,0,44.805,1,1,8008,4004
6667,5.0726e+07,0,0.00024856,-0.0008424,-0.00037036,-0.38388,-0.047808,-9.7658,0,0,44.805,1,1,8008,4004
6670,5.0728e+07,0,-0.00024264,-0.00051903,-0.00022354,-0.38265,-0.047576,-9.7654,0,0,44.805,1,1,8008,4004
6674,5.0731e+07,0,-0.00074008,7.8638e-05,-0.00033478,-0.38025,-0.046302,-9.7647,0,0,44.805,1,1,8008,4004
6705,5.0733e+07,0,-0.00096599,0.00018656,-0.00083329,-0.37846,-0.045886,-9.7643,0,0,44.806,1,1,8008,4004
6708,5.0736e+07,0,-0.0010043,-0.00084106,-0.00083879,-0.376,-0.045905,-9.7636,0,0,44.806,1,1,8008,4004
6712,5.0739e+07,0,-0.0016159,-0.00091988,-0.00079587,-0.37387,-0.045716,-9.7652,0,0,44.806,1,1,8008,4004
6715,5.0741e+07,0,-0.0020298,-0.0011623,-0.00071954,-0.37079,-0.045625,-9.7669,0,0,44.806,1,1,8008,4004
6746,5.0747e+07,0,1.6917e-05,-0.0010732,0.00010825,-0.37077,-0.044624,-9.7669,0,0,44.807,1,1,8008,4004
6750,5.0749e+07,0,0.0009302,-0.0006456,0.00088998,-0.36994,-0.0444,-9.7694,0,0,44.807,1,1,8008,4004
6753,5.0751e+07,0,0.00065109,-0.00032481,0.0017726,-0.36954,-0.043596,-9.7721,0,0,44.807,1,1,8008,4004
6784,5.0754e+07,0,-0.00067934,-0.00040707,0.0016129,-0.37057,-0.041814,-9.7753,0,0,44.807,1,1,8008,4004
6787,5.0757e+07,0,-0.0013679,-0.00029199,0.00078196,-0.37304,-0.040097,-9.7766,0,0,44.807,1,1,8008,4004
6791,5.0759e+07,0,-0.00066335,-0.00045282,-0.00040124,-0.37935,-0.037806,-9.7805,0,0,44.807,1,1,8008,4004
6794,5.0764e+07,0,-0.0016227,-0.0014413,0.00045362,-0.38521,-0.037658,-9.7891,0,0,44.808,1,1,8008,4004
6825,5.0767e+07,0,-0.0019521,-0.001101,-0.00042691,-0.38406,-0.038989,-9.7927,0,0,44.808,1,1,8008,4004
6828,5.0769e+07,0,-0.0018497,-0.0013288,-0.00060295,-0.3828,-0.039259,-9.7944,0,0,44.808,1,1,8008,4004
6831,5.0771e+07,0,-0.002093,-0.0014263,-0.00044982,-0.38205,-0.039158,-9.7952,0,0,44.808,1,1,8008,4004
6834,5.0774e+07,0,-0.0018534,-0.0010666,-0.00083957,-0.38019,-0.039219,-9.7938,0,0,44.808,1,1,8008,4004
6865,5.0777e+07,0,-0.0017915,-0.00059793,-0.0016202,-0.37849,-0.039509,-9.7901,0,0,44.808,1,1,8008,4004
6869,5.078e+07,0,-0.0020865,-0.00031472,-0.001469,-0.37762,-0.039872,-9.7869,0,0,44.808,1,1,8008,4004
6872,5.0782e+07,0,-0.0018059,0.00033795,-0.00051102,-0.37673,-0.040184,-9.7858,0,0,44.809,1,1,8008,4004
6876,5.0784e+07,0,-0.0012724,0.00094392,-0.00040746,-0.37621,-0.039747,-9.7865,0,0,44.809,1,1,8008,4004
6911,5.0788e+07,0,-0.0016784,-0.00029758,-0.00077303,-0.37601,-0.037365,-9.7835,0,0,44.809,1,1,8008,4004
6914,5.0789e+07,0,-0.0021902,-0.0018317,-0.0013285,-0.37618,-0.035898,-9.7815,0,0,44.809,1,1,8008,4004
6917,5.0792e+07,0,-0.0020467,-0.0026183,-0.0014383,-0.37534,-0.033285,-9.7774,0,0,44.809,1,1,8008,4004
6920,5.0794e+07,0,-0.0019488,-0.002171,-0.00076783,-0.37473,-0.033284,-9.7742,0,0,44.809,1,1,8008,4004
6951,5.0797e+07,0,-0.0019899,-0.0022804,0.00056192,-0.37502,-0.035048,-9.7698,0,0,44.81,1,1,8008,4004
6955,5.08e+07,0,-0.0012394,-0.0023871,0.00075421,-0.37563,-0.036765,-9.7663,0,0,44.81,1,1,8008,4004
6958,5.0802e+07,0,0.00018067,-0.0012121,0.00076783,-0.37664,-0.039854,-9.7621,0,0,44.81,1,1,8008,4004
6965,5.0805e+07,0,0.00092581,-0.00026204,0.0010551,-0.37537,-0.041555,-9.7614,0,0,44.81,1,1,8008,4004
6996,5.0807e+07,0,0.00076546,0.0012743,0.00065494,-0.37497,-0.042868,-9.7607,0,0,44.81,1,1,8008,4004
6999,5.081e+07,0,0.00015606,0.0015879,0.00066763,-0.37761,-0.043712,-9.7598,0,0,44.81,1,1,8008,4004
7002,5.0813e+07,0,-3.2986e-05,0.0015084,0.00057969,-0.37977,-0.044177,-9.7583,0,0,44.81,1,1,8008,4004
7005,5.0815e+07,0,-0.00053658,0.0010914,0.0001496,-0.38175,-0.042257,-9.7601,0,0,44.811,1,1,8008,4004
7036,5.0818e+07,0,-0.0010509,0.001103,-0.00057689,-0.38163,-0.039125,-9.7631,0,0,44.811,1,1,8008,4004
7040,5.082e+07,0,-0.00046891,0.0013001,-0.00091975,-0.38093,-0.038144,-9.7646,0,0,44.811,1,1,8008,4004
7043,5.0822e+07,0,0.00032044,0.0013736,-0.0011913,-0.38059,-0.036872,-9.7639,0,0,44.811,1,1,8008,4004
7046,5.0825e+07,0,0.00083482,0.00038825,-0.00066711,-0.37972,-0.033686,-9.7585,0,0,44.811,1,1,8008,4004
7077,5.0828e+07,0,-3.4585e-05,6.1389e-05,-0.0003202,-0.37948,-0.031923,-9.7519,0,0,44.811,1,1,8008,4004
7082,5.083e+07,0,-0.00083653,-0.00047449,-0.00044808,-0.37973,-0.030204,-9.7461,0,0,44.811,1,1,8008,4004
7085,5.0833e+07,0,-0.0016238,-0.00090511,-0.0004636,-0.38067,-0.029437,-9.7461,0,0,44.811,1,1,8008,4004
7088,5.0835e+07,0,-0.0023321,-0.00081639,0.00040126,-0.38253,-0.028273,-9.7492,0,0,44.811,1,1,8008,4004
7119,5.0837e+07,0,-0.0019315,-0.00033172,0.0014092,-0.38292,-0.027632,-9.7541,0,0,44.811,1,1,8008,4004
7123,5.0841e+07,0,-0.0013543,0.0015097,0.000449,-0.38302,-0.025987,-9.7619,0,0,44.811,1,1,8008,4004
7126,5.0843e+07,0,-0.0006652,0.001452,-0.001078,-0.38287,-0.024773,-9.7659,0,0,44.811,1,1,8008,4004
7129,5.0845e+07,0,-0.00029164,0.0011947,-0.002005,-0.38292,-0.023445,-9.772,0,0,44.811,1,1,8008,4004
7160,5.0847e+07,0,1.2193e-05,0.00088673,-0.0015065,-0.38392,-0.022913,-9.7748,0,0,44.811,1,1,8008,4004
7165,5.085e+07,0,0.00021439,0.00042798,-0.00087118,-0.3849,-0.022437,-9.7749,0,0,44.811,1,1,8008,4004
7168,5.0853e+07,0,-0.00095439,0.00021889,-0.0010951,-0.38472,-0.023086,-9.773,0,0,44.811,1,1,8008,4004
7171,5.0856e+07,0,-0.0017758,0.00033889,-0.0015465,-0.38404,-0.023285,-9.7705,0,0,44.812,1,1,8008,4004
7174,5.0857e+07,0,-0.00096149,0.00014276,-0.0013052,-0.38361,-0.022596,-9.7702,0,0,44.812,1,1,8008,4004
7205,5.086e+07,0,0.00073772,-0.00028856,-0.00061759,-0.38457,-0.022056,-9.7719,0,0,44.812,1,1,8008,4004
7208,5.0862e+07,0,0.00053533,-0.00010043,-0.0003129,-0.38605,-0.022702,-9.7751,0,0,44.812,1,1,8008,4004
7211,5.0865e+07,0,-0.00046695,0.00051229,-4.4864e-05,-0.38772,-0.024674,-9.778,0,0,44.812,1,1,8008,4004
7214,5.0868e+07,0,-0.00095274,0.00016206,0.00043218,-0.38776,-0.026117,-9.7775,0,0,44.812,1,1,8008,4004
7245,5.087e+07,0,-0.00050667,-0.0015603,0.00049111,-0.38741,-0.027072,-9.7751,0,0,44.812,1,1,8008,4004
7249,5.0873e+07,0,-0.00015643,-0.0015262,-0.00015567,-0.38665,-0.027388,-9.7683,0,0,44.812,1,1,8008,4004
7252,5.0875e+07,0,0.00072819,-0.00089765,-7.1822e-05,-0.38544,-0.028706,-9.7644,0,0,44.812,1,1,8008,4004
7256,5.0878e+07,0,0.0010763,-0.00056125,0.0012477,-0.38222,-0.031699,-9.7593,0,0,44.812,1,1,8008,4004
7287,5.0881e+07,0,0.0012083,-4.1911e-05,0.001339,-0.38197,-0.034335,-9.7592,0,0,44.812,1,1,8008,4004
7291,5.0883e+07,0,0.00094592,0.00034888,0.00032498,-0.3826,-0.035902,-9.7626,0,0,44.812,1,1,8008,4004
7294,5.0886e+07,0,-0.00025597,0.00079867,-0.00040716,-0.38342,-0.038604,-9.7688,0,0,44.812,1,1,8008,4004
7297,5.0889e+07,0,-0.00094579,0.00055889,-0.00043836,-0.38304,-0.041117,-9.7736,0,0,44.811,1,1,8008,4004
7328,5.0891e+07,0,-0.00082351,-0.0015894,-0.00044864,-0.38016,-0.044031,-9.777,0,0,44.811,1,1,8008,4004
7331,5.0894e+07,0,-0.00050381,-0.0023453,-0.0010481,-0.37911,-0.045222,-9.7752,0,0,44.811,1,1,8008,4004
7334,5.0896e+07,0,-0.00061224,-0.002767,-0.00074965,-0.37933,-0.047266,-9.7698,0,0,44.811,1,1,8008,4004
7337,5.0899e+07,0,-0.0014879,-0.0021064,8.4233e-05,-0.37999,-0.048756,-9.7646,0,0,44.811,1,1,8008,4004
7369,5.0901e+07,0,-0.0019175,-0.0015408,0.00043687,-0.38101,-0.05162,-9.7584,0,0,44.811,1,1,8008,4004
7373,5.0904e+07,0,-0.0013216,-0.0018631,0.00029456,-0.38107,-0.052983,-9.7551,0,0,44.811,1,1,8008,4004
7380,5.0907e+07,0,-0.00086552,-0.001391,0.0001808,-0.37917,-0.052977,-9.755,0,0,44.811,1,1,8008,4004
7383,5.0909e+07,0,-0.0013585,-0.001231,0.00030077,-0.3777,-0.051343,-9.7564,0,0,44.811,1,1,8008,4004
7414,5.0911e+07,0,-0.0012991,-0.001552,0.00028966,-0.37647,-0.048833,-9.7583,0,0,44.811,1,1,8008,4004
7418,5.0913e+07,0,-0.00079371,-0.0015517,0.00022492,-0.37694,-0.048033,-9.7595,0,0,44.811,1,1,8008,4004
7421,5.0916e+07,0,-0.00078819,-0.00082135,-0.00087795,-0.37975,-0.047817,-9.7607,0,0,44.811,1,1,8008,4004
7424,5.0919e+07,0,-0.0010622,3.7271e-05,-0.00048077,-0.38208,-0.047228,-9.7624,0,0,44.811,1,1,8008,4004
7455,5.0921e+07,0,-0.0020239,0.00014214,0.00075288,-0.38394,-0.046179,-9.7626,0,0,44.811,1,1,8008,4004
7459,5.0924e+07,0,-0.0011566,-2.7853e-05,0.00032075,-0.38536,-0.044489,-9.7608,0,0,44.811,1,1,8008,4004
7462,5.0926e+07,0,-0.00049222,0.00020813,8.6654e-05,-0.38564,-0.043182,-9.7599,0,0,44.811,1,1,8008,4004
7465,5.0929e+07,0,-0.00090469,0.00057728,-0.00058317,-0.38328,-0.04258,-9.7601,0,0,44.811,1,1,8008,4004
7496,5.0932e+07,0,-0.0014745,0.00052835,-0.00091755,-0.37975,-0.040852,-9.7604,0,0,44.81,1,1,8008,4004
7499,5.0934e+07,0,-0.0020626,0.00085171,9.4977e-05,-0.37827,-0.038315,-9.7597,0,0,44.81,1,1,8008,4004
7502,5.0936e+07,0,-0.0021775,0.0010228,0.00098143,-0.37835,-0.03523,-9.7583,0,0,44.81,1,1,8008,4004
7505,5.0939e+07,0,-0.0019525,0.00084153,0.00077628,-0.38008,-0.030328,-9.758,0,0,44.81,1,1,8008,4004
7536,5.0942e+07,0,-0.0021425,0.00021996,5.7512e-05,-0.38136,-0.027019,-9.7598,0,0,44.81,1,1,8008,4004
7541,5.0945e+07,0,-0.0024042,5.0451e-05,-0.00090424,-0.38401,-0.025419,-9.7641,0,0,44.81,1,1,8008,4004
7544,5.0946e+07,0,-0.0022701,-0.00054119,-0.00086592,-0.38597,-0.026891,-9.7654,0,0,44.81,1,1,8008,4004
7547,5.0949e+07,0,-0.0017803,-0.0011911,-0.0011282,-0.38724,-0.028638,-9.7643,0,0,44.81,1,1,8008,4004
7578,5.0951e+07,0,-0.0017395,-0.0011865,-0.0011932,-0.38684,-0.029246,-9.7631,0,0,44.81,1,1,8008,4004
7583,5.0957e+07,0,-0.00050095,-0.00063245,-0.0018267,-0.38716,-0.035131,-9.7637,0,0,44.81,1,1,8008,4004
7587,5.0959e+07,0,0.0002906,-0.00064677,-0.001598,-0.38763,-0.038654,-9.7656,0,0,44.809,1,1,8008,4004
7618,5.0961e+07,0,-0.00061981,-0.00025476,-0.0012227,-0.38786,-0.042303,-9.7691,0,0,44.809,1,1,8008,4004
7621,5.0964e+07,0,-0.0022691,0.00076218,-0.00058278,-0.38907,-0.046627,-9.7755,0,0,44.809,1,1,8008,4004
7625,5.0967e+07,0,-0.0020382,0.001158,-3.7776e-05,-0.39072,-0.048072,-9.7791,0,0,44.809,1,1,8008,4004
7628,5.0969e+07,0,-0.0017547,0.001242,0.00045551,-0.39133,-0.049758,-9.7822,0,0,44.809,1,1,8008,4004
7659,5.0972e+07,0,-0.0014688,0.00086625,0.00037059,-0.39076,-0.050356,-9.7833,0,0,44.809,1,1,8008,4004
7663,5.0974e+07,0,-0.0017816,0.00075493,-0.00048566,-0.38911,-0.050239,-9.7848,0,0,44.809,1,1,8008,4004
7666,5.0977e+07,0,-0.0021651,0.00054201,-0.00083197,-0.385,-0.049092,-9.7853,0,0,44.809,1,1,8008,4004
7669,5.0979e+07,0,-0.0021952,0.00064194,-0.00016358,-0.38239,-0.049407,-9.7832,0,0,44.809,1,1,8008,4004
7700,5.0982e+07,0,-0.001957,-0.0006208,0.00028831,-0.38199,-0.049637,-9.7827,0,0,44.809,1,1,8008,4004
7703,5.0984e+07,0,-0.0012387,-0.0017648,0.00060036,-0.38312,-0.048289,-9.7816,0,0,44.81,1,1,8008,4004
7706,5.0987e+07,0,-0.0007409,-0.0025001,0.00066038,-0.38503,-0.045735,-9.7763,0,0,44.81,1,1,8008,4004
7711,5.099e+07,0,-0.00056703,-0.0031757,0.00089609,-0.38612,-0.043871,-9.7725,0,0,44.81,1,1,8008,4004
7742,5.0993e+07,0,-0.0011478,-0.0026197,0.0009972,-0.3881,-0.04176,-9.7721,0,0,44.81,1,1,8008,4004
7746,5.0995e+07,0,-0.0020321,-0.0018171,0.00044719,-0.38916,-0.039373,-9.7749,0,0,44.81,1,1,8008,4004
7749,5.0997e+07,0,-0.0015876,-0.0011182,9.4548e-05,-0.38834,-0.039856,-9.7767,0,0,44.81,1,1,8008,4004
7752,5.1e+07,0,-0.00020152,0.00029113,-0.0005662,-0.38609,-0.043144,-9.7773,0,0,44.81,1,1,8008,4004
7783,5.1003e+07,0,-0.00054182,0.00025872,-0.0014387,-0.38642,-0.04392,-9.779,0,0,44.809,1,1,8008,4004
7786,5.1005e+07,0,-0.0012622,0.00034717,-0.0016791,-0.38644,-0.043984,-9.7811,0,0,44.809,1,1,8008,4004
7793,5.1009e+07,0,-0.00075232,-0.00019095,-0.0014131,-0.38644,-0.043789,-9.7819,0,0,44.809,1,1,8008,4004
7796,5.101e+07,0,-0.00024168,-0.00099974,-0.0013421,-0.38807,-0.042909,-9.779,0,0,44.809,1,1,8008,4004
7827,5.1013e+07,0,-0.00032579,-0.0016682,-0.00047947,-0.38817,-0.040877,-9.7714,0,0,44.809,1,1,8008,4004
7832,5.1015e+07,0,-0.00047277,-0.0016069,0.00032572,-0.38617,-0.038576,-9.7677,0,0,44.809,1,1,8008,4004
7835,5.1018e+07,0,0.00030215,-0.0016699,0.001181,-0.38281,-0.033822,-9.7661,0,0,44.809,1,1,8008,4004
7838,5.1021e+07,0,0.00082456,-0.0015605,0.0011862,-0.38168,-0.031456,-9.7685,0,0,44.809,1,1,8008,4004
7869,5.1023e+07,0,0.0016715,-0.0014886,0.00090139,-0.38167,-0.029141,-9.773,0,0,44.809,1,1,8008,4004
7873,5.1026e+07,0,0.0011472,-0.0012205,0.00015202,-0.38207,-0.027919,-9.7773,0,0,44.81,1,1,8008,4004
7876,5.1028e+07,0,0.00090887,-0.00097899,-0.00014842,-0.38149,-0.027973,-9.779,0,0,44.81,1,1,8008,4004
7879,5.1031e+07,0,0.00076345,-0.00096831,-0.00068174,-0.38108,-0.030847,-9.7788,0,0,44.81,1,1,8008,4004
7910,5.1033e+07,0,0.00076981,-0.00064569,-0.0012751,-0.38243,-0.035929,-9.7768,0,0,44.81,1,1,8008,4004
7913,5.1036e+07,0,3.9904e-06,-0.0010518,-0.0015264,-0.38349,-0.040637,-9.7771,0,0,44.81,1,1,8008,4004
7916,5.1039e+07,0,-0.00097995,-0.0017748,-0.0017056,-0.38362,-0.044593,-9.7795,0,0,44.81,1,1,8008,4004
7919,5.1041e+07,0,-0.00086117,-0.0025264,-0.0015017,-0.3816,-0.047253,-9.787,0,0,44.81,1,1,8008,4004
7950,5.1045e+07,0,-0.0001681,-0.002512,-0.0013929,-0.37995,-0.048186,-9.7887,0,0,44.81,1,1,8008,4004
7953,5.1046e+07,0,0.00011923,-0.0020825,-0.0021357,-0.37768,-0.048325,-9.785,0,0,44.809,1,1,8008,4004
7957,5.1048e+07,0,-4.4267e-05,-0.0015955,-0.0026008,-0.37714,-0.048348,-9.7823,0,0,44.809,1,1,8008,4004
7961,5.1054e+07,0,-5.3945e-05,0.00033131,-0.0031119,-0.37519,-0.048091,-9.7772,0,0,44.809,1,1,8008,4004
7992,5.1056e+07,0,0.0016201,0.00045621,-0.0022607,-0.37555,-0.044974,-9.778,0,0,44.809,1,1,8008,4004
7996,5.1059e+07,0,0.0014894,0.00036964,-0.0011487,-0.37644,-0.042537,-9.7791,0,0,44.809,1,1,8008,4004
7999,5.1062e+07,0,0.00067345,0.0001611,-0.00059903,-0.37723,-0.040507,-9.7795,0,0,44.809,1,1,8008,4004
8002,5.1064e+07,0,0.00063818,-0.0010433,-0.0011965,-0.3756,-0.039845,-9.7828,0,0,44.809,1,1,8008,4004
8033,5.1067e+07,0,0.00062848,-0.0023915,-0.001044,-0.37291,-0.039146,-9.7863,0,0,44.809,1,1,8008,4004
8036,5.1069e+07,0,0.00052216,-0.0026917,-0.00034637,-0.37307,-0.038595,-9.788,0,0,44.809,1,1,8008,4004
8039,5.1071e+07,0,0.00038571,-0.0024126,-0.00026781,-0.37474,-0.039192,-9.7883,0,0,44.809,1,1,8008,4004
8043,5.1074e+07,0,-0.00031056,-0.0014826,0.00014315,-0.37978,-0.040351,-9.7884,0,0,44.809,1,1,8008,4004
8074,5.1077e+07,0,-0.00055189,-0.00077451,0.00049754,-0.38387,-0.040684,-9.7892,0,0,44.809,1,1,8008,4004
8078,5.1079e+07,0,-0.00060723,-0.00049841,0.00070466,-0.38879,-0.043813,-9.7887,0,0,44.809,1,1,8008,4004
8081,5.1082e+07,0,-0.00020446,-0.00050185,0.00084405,-0.39078,-0.04593,-9.7851,0,0,44.809,1,1,8008,4004
8084,5.1084e+07,0,0.00085032,-0.000328,-0.00013722,-0.39157,-0.048022,-9.7787,0,0,44.81,1,1,8008,4004
8115,5.1086e+07,0,0.00062118,-0.0010132,-2.9873e-05,-0.39273,-0.051199,-9.7733,0,0,44.81,1,1,8008,4004
8118,5.109e+07,0,-0.00079547,-0.0008822,0.00031887,-0.39542,-0.05394,-9.7717,0,0,44.81,1,1,8008,4004
8121,5.1092e+07,0,-0.001652,-0.00070803,0.00038969,-0.3978,-0.056112,-9.7695,0,0,44.81,1,1,8008,4004
8124,5.1094e+07,0,-0.0016872,-0.00073668,0.00080582,-0.39907,-0.056814,-9.7637,0,0,44.809,1,1,8008,4004
8155,5.1096e+07,0,-0.0010367,-0.00014431,0.0011404,-0.39711,-0.055446,-9.7579,0,0,44.809,1,1,8008,4004
8159,5.1099e+07,0,-0.0010706,0.00037292,0.0015209,-0.39529,-0.054632,-9.7546,0,0,44.809,1,1,8008,4004
8162,5.1102e+07,0,-0.00060935,-8.3075e-05,0.001597,-0.39288,-0.052971,-9.7516,0,0,44.809,1,1,8008,4004
8165,5.1104e+07,0,0.00017009,-0.00058642,0.00020696,-0.38863,-0.049841,-9.7486,0,0,44.809,1,1,8008,4004
8196,5.1107e+07,0,-0.00016547,-0.000289,-0.00045627,-0.38571,-0.047971,-9.7486,0,0,44.809,1,1,8008,4004
8203,5.1109e+07,0,-0.00019139,0.0011195,-0.0007293,-0.38241,-0.044316,-9.7506,0,0,44.809,1,1,8008,4004
8208,5.1112e+07,0,4.5899e-05,0.0015914,-0.0003719,-0.38033,-0.042414,-9.7527,0,0,44.809,1,1,8008,4004
8212,5.1114e+07,0,-0.00089791,0.00088127,0.00042795,-0.37604,-0.040926,-9.7572,0,0,44.809,1,1,8008,4004
8243,5.1117e+07,0,-0.0013851,-0.00026228,0.0011852,-0.37164,-0.039717,-9.7609,0,0,44.809,1,1,8008,4004
8247,5.1119e+07,0,-0.0011866,-0.0014896,0.0010056,-0.36969,-0.038424,-9.7647,0,0,44.809,1,1,8008,4004
8250,5.1122e+07,0,-0.0011287,-0.0026157,0.00017512,-0.36968,-0.036857,-9.77,0,0,44.809,1,1,8008,4004
8253,5.1124e+07,0,-0.0025146,-0.002496,-0.00084216,-0.37177,-0.035355,-9.7788,0,0,44.809,1,1,8008,4004
8284,5.1127e+07,0,-0.002478,-0.0017852,-0.0015946,-0.37331,-0.035254,-9.7827,0,0,44.809,1,1,8008,4004
8288,5.1129e+07,0,-0.0014809,-0.00077757,-0.0020324,-0.37696,-0.037558,-9.787,0,0,44.809,1,1,8008,4004
8291,5.1132e+07,0,-0.0018169,-0.00046998,-0.0015703,-0.37929,-0.04095,-9.7893,0,0,44.809,1,1,8008,4004
8294,5.1134e+07,0,-0.0022812,-0.00011958,-0.00096719,-0.38151,-0.045219,-9.7913,0,0,44.809,1,1,8008,4004
8325,5.1136e+07,0,-0.0025199,0.00017694,-0.00031348,-0.38165,-0.046945,-9.7921,0,0,44.81,1,1,8008,4004
8328,5.1139e+07,0,-0.0020672,-0.00044579,0.00082127,-0.38202,-0.050699,-9.7914,0,0,44.81,1,1,8008,4004
8331,5.1142e+07,0,-0.0020137,-0.0011442,0.00083623,-0.38233,-0.052365,-9.7892,0,0,44.81,1,1,8008,4004
8334,5.1144e+07,0,-0.0021612,-0.0012655,0.00039437,-0.38292,-0.054187,-9.7846,0,0,44.81,1,1,8008,4004
8365,5.1146e+07,0,-0.0010471,-0.0016529,0.00046303,-0.38428,-0.055556,-9.781,0,0,44.81,1,1,8008,4004
8369,5.1149e+07,0,-6.4687e-05,-0.0014034,1.637e-05,-0.38429,-0.054265,-9.7783,0,0,44.81,1,1,8008,4004
8372,5.1152e+07,0,0.0008112,-0.001325,-0.00020171,-0.38341,-0.05213,-9.7749,0,0,44.81,1,1,8008,4004
8376,5.1157e+07,0,-0.0009021,-2.4041e-05,-0.00025094,-0.38023,-0.042272,-9.7704,0,0,44.81,1,1,8008,4004
8407,5.1159e+07,0,-0.0018062,0.00015574,-9.9225e-05,-0.3803,-0.040231,-9.77,0,0,44.81,1,1,8008,4004
8410,5.1162e+07,0,-0.0023911,0.00052541,0.00034073,-0.3822,-0.039256,-9.7681,0,0,44.81,1,1,8008,4004
8413,5.1164e+07,0,-0.0017389,0.00067762,0.00032143,-0.38335,-0.037813,-9.7675,0,0,44.81,1,1,8008,4004
8416,5.1167e+07,0,-0.00084938,0.00076418,0.00032782,-0.38497,-0.037389,-9.7673,0,0,44.81,1,1,8008,4004
8447,5.1172e+07,0,-0.0013159,0.00030761,0.00038315,-0.38623,-0.036857,-9.7675,0,0,44.81,1,1,8008,4004
8451,5.1175e+07,0,-0.0013356,0.00016404,0.00020135,-0.38532,-0.035363,-9.769,0,0,44.81,1,1,8008,4004
8454,5.1177e+07,0,-0.0013614,0.00051451,0.00038861,-0.38448,-0.033833,-9.7696,0,0,44.81,1,1,8008,4004
8485,5.118e+07,0,-0.0014186,0.0001844,-0.00019231,-0.38368,-0.033065,-9.768,0,0,44.81,1,1,8008,4004
8488,5.1182e+07,0,-0.0014815,-0.0011408,-0.00074351,-0.3813,-0.032959,-9.7661,0,0,44.81,1,1,8008,4004
8492,5.1184e+07,0,-0.0010321,-0.0012745,-0.00015988,-0.37989,-0.032897,-9.768,0,0,44.811,1,1,8008,4004
8495,5.1187e+07,0,-0.00074764,-0.001894,-0.00021275,-0.37897,-0.03286,-9.7716,0,0,44.811,1,1,8008,4004
8526,5.1189e+07,0,-0.00037248,-0.001784,-0.00030681,-0.37886,-0.032642,-9.7728,0,0,44.811,1,1,8008,4004
8529,5.1192e+07,0,-0.00067052,-0.0019361,-0.00022049,-0.37898,-0.03072,-9.7733,0,0,44.811,1,1,8008,4004
8532,5.1195e+07,0,-0.0010022,-0.0025012,-0.00056349,-0.37806,-0.030127,-9.7735,0,0,44.811,1,1,8008,4004
8537,5.1197e+07,0,-0.00045283,-0.002334,-0.0012097,-0.37425,-0.032921,-9.7732,0,0,44.811,1,1,8008,4004
8568,5.12e+07,0,0.00048872,-0.0013906,-0.001264,-0.37416,-0.038275,-9.7636,0,0,44.811,1,1,8008,4004
8571,5.1203e+07,0,0.00070052,-0.00091172,-0.0014663,-0.37608,-0.039434,-9.7582,0,0,44.811,1,1,8008,4004
8575,5.1205e+07,0,0.00045239,-0.0016004,-0.0017242,-0.37791,-0.041539,-9.7521,0,0,44.811,1,1,8008,4004
8579,5.1208e+07,0,0.00033045,-0.0024305,-0.0014411,-0.37759,-0.042975,-9.7482,0,0,44.811,1,1,8008,4004
8614,5.121e+07,0,-0.00013614,-0.0017564,-0.00041034,-0.37778,-0.046096,-9.7432,0,0,44.812,1,1,8008,4004
8617,5.1213e+07,0,-0.00044894,-0.00071983,-0.00042527,-0.37661,-0.047407,-9.7432,0,0,44.812,1,1,8008,4004
8620,5.1215e+07,0,4.817e-05,-0.00044755,-0.00094713,-0.37494,-0.046766,-9.7441,0,0,44.812,1,1,8008,4004
8623,5.1219e+07,0,0.00040668,-0.00086066,-0.0012154,-0.37278,-0.044889,-9.7442,0,0,44.812,1,1,8008,4004
8654,5.1221e+07,0,-0.00025752,-0.00077817,-0.00059815,-0.37307,-0.044343,-9.7441,0,0,44.812,1,1,8008,4004
8657,5.1224e+07,0,-0.00062399,-0.00086082,-0.00015345,-0.37342,-0.044532,-9.7424,0,0,44.812,1,1,8008,4004
8661,5.1226e+07,0,-0.00038535,-0.00080335,0.00018656,-0.37413,-0.042966,-9.7427,0,0,44.812,1,1,8008,4004
8664,5.1229e+07,0,0.00021885,-0.0007847,0.00025543,-0.37566,-0.041533,-9.7448,0,0,44.813,1,1,8008,4004
8695,5.1231e+07,0,0.00048219,-0.001028,-0.00026673,-0.37736,-0.041586,-9.7477,0,0,44.813,1,1,8008,4004
8698,5.1234e+07,0,-7.3999e-06,-0.00063802,-0.001006,-0.37864,-0.042261,-9.75,0,0,44.813,1,1,8008,4004
8702,5.1236e+07,0,-0.00017949,1.6713e-05,-0.001384,-0.3803,-0.044328,-9.7534,0,0,44.813,1,1,8008,4004
8705,5.1239e+07,0,-0.00056279,0.00016898,-0.00068059,-0.38032,-0.046055,-9.7576,0,0,44.813,1,1,8008,4004
8736,5.1241e+07,0,-0.00026254,-0.00051884,-0.00018266,-0.37886,-0.046743,-9.7583,0,0,44.813,1,1,8008,4004
8739,5.1244e+07,0,0.00061173,-0.0011789,0.00056424,-0.37772,-0.047123,-9.7574,0,0,44.813,1,1,8008,4004
8742,5.1246e+07,0,0.00069269,-0.0021074,0.00092045,-0.37942,-0.048454,-9.7569,0,0,44.813,1,1,8008,4004
8746,5.1249e+07,0,-0.00064004,-0.001216,0.001094,-0.38184,-0.047571,-9.7586,0,0,44.813,1,1,8008,4004
8777,5.1251e+07,0,-0.0011299,-0.00057087,0.0015335,-0.38301,-0.045946,-9.7608,0,0,44.814,1,1,8008,4004
8780,5.1254e+07,0,-0.0012299,-0.00010221,0.0015638,-0.38395,-0.044631,-9.764,0,0,44.814,1,1,8008,4004
8785,5.1261e+07,0,-0.00049168,5.1752e-06,-0.0017459,-0.37727,-0.04071,-9.7741,0,0,44.814,1,1,8008,4004
8816,5.1264e+07,0,-0.0010817,-0.00038789,-0.00083882,-0.37648,-0.042852,-9.7737,0,0,44.814,1,1,8008,4004
8819,5.1266e+07,0,-0.00031318,-0.00072727,-9.6474e-05,-0.3772,-0.044156,-9.7724,0,0,44.814,1,1,8008,4004
8822,5.1269e+07,0,0.00069067,-0.001397,0.00052611,-0.37929,-0.046008,-9.7663,0,0,44.814,1,1,8008,4004
8825,5.1272e+07,0,0.00046933,-0.0022372,0.00041592,-0.38023,-0.04634,-9.7613,0,0,44.814,1,1,8008,4004
8856,5.1274e+07,0,-0.00027442,-0.002939,-7.0999e-05,-0.37999,-0.046247,-9.754,0,0,44.814,1,1,8008,4004
8860,5.1277e+07,0,-0.0010141,-0.0022094,-0.00065285,-0.37995,-0.044543,-9.7493,0,0,44.814,1,1,8008,4004
8863,5.1279e+07,0,-0.0019484,-0.00153,-0.00024946,-0.38074,-0.044214,-9.7477,0,0,44.814,1,1,8008,4004
8866,5.1282e+07,0,-0.003098,-0.00032921,0.00053487,-0.38225,-0.044447,-9.7509,0,0,44.815,1,1,8008,4004
8899,5.1285e+07,0,-0.0026408,-0.00074815,0.00057988,-0.38101,-0.044637,-9.7596,0,0,44.815,1,1,8008,4004
8902,5.1287e+07,0,-0.0023259,-0.001398,0.00048492,-0.37817,-0.044831,-9.7662,0,0,44.815,1,1,8008,4004
8905,5.129e+07,0,-0.0027358,-0.0012919,0.00067323,-0.37454,-0.043717,-9.7738,0,0,44.815,1,1,8008,4004
8908,5.1292e+07,0,-0.0025929,-0.0010413,0.00039953,-0.37146,-0.042435,-9.7774,0,0,44.815,1,1,8008,4004
8939,5.1295e+07,0,-0.0014402,-0.00039595,-7.7316e-05,-0.36782,-0.038583,-9.7794,0,0,44.815,1,1,8008,4004
8943,5.1298e+07,0,-0.0011905,-0.00030288,-0.00026487,-0.36638,-0.036796,-9.7776,0,0,44.814,1,1,8008,4004
8946,5.13e+07,0,-0.00091741,-0.00046682,-0.00092304,-0.36428,-0.036706,-9.7726,0,0,44.814,1,1,8008,4004
8949,5.1302e+07,0,-0.001016,-0.00083309,-0.0011483,-0.36306,-0.038314,-9.7699,0,0,44.814,1,1,8008,4004
8980,5.1305e+07,0,-0.00059249,-0.00061118,-0.00084883,-0.36197,-0.04137,-9.7686,0,0,44.814,1,1,8008,4004
8984,5.1308e+07,0,-0.00045763,-0.00054018,-0.00049741,-0.36227,-0.043162,-9.7688,0,0,44.814,1,1,8008,4004
8987,5.131e+07,0,-0.00055676,-0.0010241,0.00050794,-0.36415,-0.044703,-9.7678,0,0,44.814,1,1,8008,4004
8994,5.1313e+07,0,-0.00052603,-0.0011588,0.0012419,-0.36689,-0.044135,-9.7646,0,0,44.814,1,1,8008,4004
9025,5.1315e+07,0,-0.00042048,-0.00062217,0.00048595,-0.37101,-0.04284,-9.7603,0,0,44.814,1,1,8008,4004
9028,5.1317e+07,0,-0.00097865,-0.00027042,-0.00075288,-0.37393,-0.042129,-9.7592,0,0,44.814,1,1,8008,4004
9031,5.132e+07,0,-0.0016615,-7.3e-05,-0.0014024,-0.3788,-0.042448,-9.7586,0,0,44.814,1,1,8008,4004
9034,5.1322e+07,0,-0.0021073,-0.00050476,-0.0010716,-0.38127,-0.041999,-9.76,0,0,44.814,1,1,8008,4004
9065,5.1325e+07,0,-0.0016007,-0.0013001,-0.0007548,-0.38291,-0.04006,-9.7675,0,0,44.814,1,1,8008,4004
9069,5.1327e+07,0,-0.0013094,-0.0016321,-0.00093277,-0.38329,-0.039312,-9.7732,0,0,44.814,1,1,8008,4004
9072,5.133e+07,0,-0.0013687,-0.0012315,-0.0014916,-0.38168,-0.038433,-9.7785,0,0,44.814,1,1,8008,4004
9075,5.1333e+07,0,-0.001045,-0.0012488,-0.0015192,-0.38129,-0.037799,-9.78,0,0,44.814,1,1,8008,4004
9106,5.1335e+07,0,-0.00072532,-0.0012825,-0.00057421,-0.38391,-0.038378,-9.7806,0,0,44.814,1,1,8008,4004
9109,5.1338e+07,0,-0.0015388,-0.00074255,0.0002168,-0.38608,-0.040126,-9.7794,0,0,44.813,1,1,8008,4004
9112,5.134e+07,0,-0.0016574,-0.0015423,-0.00039784,-0.38517,-0.041401,-9.7791,0,0,44.813,1,1,8008,4004
9115,5.1343e+07,0,-0.00062065,-0.0029129,-0.00089863,-0.38355,-0.042918,-9.7824,0,0,44.813,1,1,8008,4004
9146,5.1345e+07,0,-5.9818e-05,-0.0028507,-0.00080943,-0.38299,-0.043322,-9.7857,0,0,44.813,1,1,8008,4004
9150,5.1348e+07,0,-0.00017811,-0.001598,-0.00084835,-0.38107,-0.04318,-9.788,0,0,44.813,1,1,8008,4004
9153,5.1351e+07,0,-0.00034923,-0.00085975,-0.00095974,-0.37984,-0.042584,-9.7869,0,0,44.813,1,1,8008,4004
9156,5.1353e+07,0,-0.00020661,-0.0013939,-0.00096704,-0.37887,-0.041196,-9.7861,0,0,44.813,1,1,8008,4004
9187,5.1358e+07,0,0.00025427,-0.0022363,0.00013783,-0.37816,-0.042444,-9.783,0,0,44.813,1,1,8008,4004
9190,5.1361e+07,0,0.00038512,-0.0016008,-7.8345e-05,-0.37749,-0.042852,-9.7822,0,0,44.813,1,1,8008,4004
9193,5.1363e+07,0,-0.00092247,-0.00094047,-0.00040876,-0.37746,-0.042268,-9.7788,0,0,44.813,1,1,8008,4004
9224,5.1366e+07,0,-0.0012797,-0.0011428,-0.00031244,-0.37769,-0.042048,-9.7778,0,0,44.813,1,1,8008,4004
9227,5.1368e+07,0,-0.00090416,-0.0015373,-0.00053649,-0.37873,-0.041756,-9.7808,0,0,44.813,1,1,8008,4004
9231,5.1371e+07,0,-0.00055598,-0.0012913,-0.00044296,-0.38,-0.040624,-9.784,0,0,44.813,1,1,8008,4004
9234,5.1373e+07,0,0.00026867,-0.0017277,2.3485e-05,-0.38034,-0.038159,-9.7894,0,0,44.813,1,1,8008,4004
9265,5.1375e+07,0,0.00047806,-0.002702,-0.00033933,-0.37969,-0.036476,-9.7928,0,0,44.813,1,1,8008,4004
9268,5.1379e+07,0,0.00072675,-0.0033784,-0.0010142,-0.37634,-0.03627,-9.796,0,0,44.812,1,1,8008,4004
9272,5.1381e+07,0,0.0006711,-0.0031702,-0.00090081,-0.37429,-0.037012,-9.7959,0,0,44.812,1,1,8008,4004
9277,5.1383e+07,0,0.00083804,-0.0027607,-0.0011708,-0.37149,-0.036983,-9.7927,0,0,44.812,1,1,8008,4004
9308,5.1386e+07,0,0.00044484,-0.0021334,-0.0014425,-0.37131,-0.037923,-9.7875,0,0,44.812,1,1,8008,4004
9311,5.1389e+07,0,0.00032969,-0.0012881,-0.0013053,-0.37184,-0.038068,-9.7812,0,0,44.812,1,1,8008,4004
9314,5.1391e+07,0,0.00042237,-0.0011948,-0.0020925,-0.37303,-0.038449,-9.7712,0,0,44.812,1,1,8008,4004
9317,5.1393e+07,0,0.00033762,-0.0014017,-0.0022502,-0.3751,-0.038886,-9.7651,0,0,44.812,1,1,8008,4004
9348,5.1396e+07,0,0.0010366,-0.002215,-0.0016721,-0.37767,-0.038882,-9.7598,0,0,44.811,1,1,8008,4004
9351,5.1399e+07,0,0.0011083,-0.0018957,-0.0012792,-0.37841,-0.037021,-9.7574,0,0,44.811,1,1,8008,4004
9355,5.1401e+07,0,0.00015978,-0.00081213,-0.0011447,-0.37725,-0.03502,-9.7532,0,0,44.811,1,1,8008,4004
9358,5.1404e+07,0,-0.00018669,8.7641e-05,-0.0011923,-0.37593,-0.034813,-9.7528,0,0,44.811,1,1,8008,4004
9389,5.1406e+07,0,-0.00025493,0.0010837,-0.00079088,-0.37632,-0.0381,-9.7544,0,0,44.811,1,1,8008,4004
9392,5.1408e+07,0,-0.00017594,0.0010567,-0.00072085,-0.37826,-0.04166,-9.7555,0,0,44.811,1,1,8008,4004
9395,5.1411e+07,0,-0.00039501,0.0010219,-0.0012482,-0.38006,-0.044281,-9.7597,0,0,44.811,1,1,8008,4004
9402,5.1414e+07,0,-0.00032429,0.0009781,-0.0018241,-0.38051,-0.043344,-9.7649,0,0,44.811,1,1,8008,4004
9433,5.1417e+07,0,-0.00032821,0.0014702,-0.0015141,-0.38068,-0.041981,-9.7717,0,0,44.81,1,1,8008,4004
9436,5.1419e+07,0,-0.00012406,0.0009281,-0.00034199,-0.3807,-0.039312,-9.7773,0,0,44.81,1,1,8008,4004
9440,5.1422e+07,0,0.00012501,-0.00017782,-6.4453e-05,-0.38123,-0.037155,-9.7813,0,0,44.81,1,1,8008,4004
9443,5.1424e+07,0,0.00077695,-0.00089669,0.00054282,-0.38222,-0.034746,-9.7885,0,0,44.81,1,1,8008,4004
9474,5.1427e+07,0,0.00072338,-0.0014744,0.00025429,-0.38219,-0.033131,-9.7934,0,0,44.81,1,1,8008,4004
9477,5.143e+07,0,-1.647e-05,-0.0024727,-0.0010102,-0.38277,-0.030718,-9.7945,0,0,44.81,1,1,8008,4004
9481,5.1431e+07,0,-5.5771e-05,-0.0032092,-0.0014631,-0.38327,-0.02888,-9.7921,0,0,44.81,1,1,8008,4004
9484,5.1434e+07,0,-0.00071355,-0.002199,-0.001176,-0.38444,-0.026883,-9.7845,0,0,44.81,1,1,8008,4004
9503,5.145e+07,0,0.00021573,-0.0028925,-0.00074222,-0.38364,-0.038173,-9.774,0,0,44.809,1,1,8008,4004
9507,5.1451e+07,0,0.00033469,-0.0021481,-0.00061977,-0.38451,-0.03968,-9.7715,0,0,44.809,1,1,8008,4004
9510,5.1456e+07,0,-0.00064446,-0.00093068,-0.0014674,-0.38847,-0.041711,-9.7653,0,0,44.809,1,1,8008,4004
9541,5.1459e+07,0,-0.0010255,-0.0021481,-0.0009482,-0.39189,-0.040709,-9.7613,0,0,44.809,1,1,8008,4004
9544,5.1462e+07,0,-0.00046563,-0.0024755,-0.00055115,-0.39398,-0.039222,-9.7592,0,0,44.809,1,1,8008,4004
9547,5.1464e+07,0,0.00053303,-0.0024202,-0.0003359,-0.39702,-0.0375,-9.7596,0,0,44.809,1,1,8008,4004
9550,5.1467e+07,0,4.1128e-05,-0.001537,-0.00052907,-0.39824,-0.03783,-9.7615,0,0,44.809,1,1,8008,4004
9581,5.1469e+07,0,-0.00051487,-0.00074332,-0.00068809,-0.39595,-0.039178,-9.7663,0,0,44.81,1,1,8008,4004
9586,5.1472e+07,0,-0.00073609,-0.00078949,0.00012911,-0.39082,-0.040998,-9.7694,0,0,44.81,1,1,8008,4004
9589,5.1475e+07,0,-0.0015981,-0.00034384,0.00049318,-0.38705,-0.041586,-9.7707,0,0,44.81,1,1,8008,4004
9592,5.1477e+07,0,-0.0026087,-0.00022045,0.00043281,-0.38411,-0.040376,-9.7719,0,0,44.81,1,1,8008,4004
9623,5.148e+07,0,-0.0032126,-0.0011883,-0.00025205,-0.38238,-0.038326,-9.7731,0,0,44.81,1,1,8008,4004
9626,5.1482e+07,0,-0.0027274,-0.0021696,-0.00066249,-0.38235,-0.037927,-9.7759,0,0,44.81,1,1,8008,4004
9629,5.1484e+07,0,-0.0018088,-0.0023453,-0.001082,-0.38257,-0.037788,-9.7796,0,0,44.81,1,1,8008,4004
9632,5.1487e+07,0,-0.00098905,-0.0015521,-0.0014411,-0.38178,-0.036773,-9.7829,0,0,44.81,1,1,8008,4004
9663,5.149e+07,0,-4.1442e-07,-0.00096473,-0.0015014,-0.38049,-0.034866,-9.7851,0,0,44.81,1,1,8008,4004
9667,5.1492e+07,0,7.2831e-05,-0.00060613,-0.0013375,-0.37898,-0.033886,-9.7867,0,0,44.81,1,1,8008,4004
9670,5.1494e+07,0,2.5685e-05,-0.00024678,-0.0010481,-0.37972,-0.034428,-9.7848,0,0,44.81,1,1,8008,4004
9673,5.1497e+07,0,-0.00022009,0.00016226,-0.00072485,-0.38066,-0.033987,-9.7809,0,0,44.81,1,1,8008,4004
9704,5.1499e+07,0,-0.00059819,-0.00048252,-0.00018437,-0.38093,-0.034458,-9.7788,0,0,44.811,1,1,8008,4004
9707,5.1503e+07,0,0.00045983,-0.0010399,-0.00047736,-0.3818,-0.034293,-9.777,0,0,44.811,1,1,8008,4004
9710,5.1504e+07,0,0.00048734,-0.00074892,-0.0010685,-0.38279,-0.032756,-9.7772,0,0,44.811,1,1,8008,4004
9713,5.1507e+07,0,-0.00023709,0.00030671,-0.001379,-0.38547,-0.031834,-9.7746,0,0,44.811,1,1,8008,4004
9744,5.1509e+07,0,4.8666e-05,0.00062125,-0.0011833,-0.38729,-0.033211,-9.7709,0,0,44.811,1,1,8008,4004
9748,5.1513e+07,0,0.00017351,0.00067163,-0.00077633,-0.38761,-0.038044,-9.7658,0,0,44.811,1,1,8008,4004
9755,5.1515e+07,0,-6.2992e-05,0.00059022,-0.0003576,-0.38622,-0.041561,-9.7646,0,0,44.811,1,1,8008,4004
9758,5.1517e+07,0,-0.00017507,0.001246,-0.00038237,-0.38405,-0.044759,-9.7675,0,0,44.811,1,1,8008,4004
9789,5.152e+07,0,0.00015895,0.00096123,-0.00018975,-0.38392,-0.045485,-9.7741,0,0,44.812,1,1,8008,4004
9793,5.1522e+07,0,0.0007865,0.00049311,0.00015145,-0.38412,-0.04526,-9.7772,0,0,44.812,1,1,8008,4004
9797,5.1525e+07,0,0.0013108,-0.0012376,0.00085006,-0.38348,-0.044441,-9.7807,0,0,44.812,1,1,8008,4004
9800,5.1527e+07,0,0.0015757,-0.002012,0.0011852,-0.38375,-0.042732,-9.7817,0,0,44.812,1,1,8008,4004
9831,5.153e+07,0,0.0013028,-0.0010485,0.00064978,-0.38333,-0.040527,-9.7806,0,0,44.812,1,1,8008,4004
9834,5.1533e+07,0,0.00087203,-0.00046879,-6.3614e-05,-0.38243,-0.039425,-9.7792,0,0,44.812,1,1,8008,4004
9837,5.1535e+07,0,-0.00056306,0.00028763,-0.00091272,-0.37981,-0.037866,-9.7796,0,0,44.812,1,1,8008,4004
9840,5.1538e+07,0,-0.00060925,8.8608e-05,-0.00065971,-0.37826,-0.036571,-9.7812,0,0,44.812,1,1,8008,4004
9871,5.154e+07,0,0.00056215,-0.00036867,-0.00041755,-0.37774,-0.034282,-9.7833,0,0,44.812,1,1,8008,4004
9876,5.1543e+07,0,0.00066033,0.00028093,0.00032552,-0.37792,-0.032946,-9.7836,0,0,44.812,1,1,8008,4004
9879,5.1545e+07,0,0.00038869,0.00014106,0.00060076,-0.37782,-0.033027,-9.7843,0,0,44.812,1,1,8008,4004
9882,5.1548e+07,0,-0.00019275,0.00036587,0.00046072,-0.37784,-0.033184,-9.783,0,0,44.811,1,1,8008,4004
9913,5.1551e+07,0,-0.00064374,0.00078594,0.00055331,-0.37797,-0.034551,-9.7821,0,0,44.811,1,1,8008,4004
9916,5.1553e+07,0,-0.0016935,-0.00019639,0.00038871,-0.37926,-0.037389,-9.7843,0,0,44.811,1,1,8008,4004
9919,5.1558e+07,0,-0.0018059,-0.00033864,-0.00042651,-0.38064,-0.042567,-9.7852,0,0,44.812,1,1,8008,4004
9950,5.1561e+07,0,-0.0015667,-0.0006626,-0.00039239,-0.38169,-0.043343,-9.7847,0,0,44.812,1,1,8008,4004
9953,5.1563e+07,0,-0.0012684,-0.00056949,-0.00055326,-0.38333,-0.042272,-9.7843,0,0,44.812,1,1,8008,4004
9957,5.1565e+07,0,-0.00064465,-0.00041638,-0.00032653,-0.38353,-0.041385,-9.7837,0,0,44.812,1,1,8008,4004
9960,5.1568e+07,0,-0.00073302,0.00015336,-0.00043447,-0.38472,-0.041118,-9.7819,0,0,44.812,1,1,8008,4004
9991,5.157e+07,0,-0.00046901,0.00040035,-0.00010579,-0.38522,-0.039926,-9.7804,0,0,44.812,1,1,8008,4004
9994,5.1573e+07,0,0.00047383,-0.00021725,-0.0001514,-0.38456,-0.038172,-9.7793,0,0,44.812,1,1,8008,4004
9999,5.1576e+07,0,0.0012386,-0.00096602,-0.00057907,-0.38414,-0.036254,-9.778,0,0,44.812,1,1,8008,4004
10002,5.1578e+07,0,0.00078601,-0.0016838,-0.0013374,-0.38338,-0.03634,-9.7762,0,0,44.812,1,1,8008,4004
10033,5.1581e+07,0,0.00030626,-0.0018359,-0.0010335,-0.38317,-0.038366,-9.7761,0,0,44.812,1,1,8008,4004
10036,5.1583e+07,0,-0.00020468,-0.0016701,-0.00049208,-0.38325,-0.041064,-9.7778,0,0,44.812,1,1,8008,4004
10041,5.1586e+07,0,-0.00053393,-0.0017462,-0.00045996,-0.3841,-0.042583,-9.7789,0,0,44.812,1,1,8008,4004
10044,5.1588e+07,0,-7.5584e-06,-0.001975,-0.00081819,-0.38327,-0.045438,-9.7784,0,0,44.812,1,1,8008,4004
10075,5.1591e+07,0,-0.00063497,-0.0018404,2.8848e-05,-0.38035,-0.046334,-9.781,0,0,44.812,1,1,8008,4004
10078,5.1593e+07,0,-0.0014595,-0.0017553,0.00047807,-0.37841,-0.045437,-9.7836,0,0,44.812,1,1,8008,4004
10082,5.1595e+07,0,-0.0014224,-0.0019964,2.7449e-05,-0.37783,-0.044344,-9.7856,0,0,44.811,1,1,8008,4004
10085,5.1598e+07,0,-0.0014347,-0.0015787,-0.00014683,-0.3792,-0.042201,-9.7831,0,0,44.811,1,1,8008,4004
10116,5.1601e+07,0,-0.0014189,-0.00059751,-0.00076029,-0.38145,-0.040922,-9.7779,0,0,44.811,1,1,8008,4004
10119,5.1603e+07,0,-0.00079693,-0.0003974,-0.0009784,-0.38399,-0.041035,-9.7738,0,0,44.811,1,1,8008,4004
10122,5.1606e+07,0,-0.00050294,9.489e-05,-0.00062332,-0.38639,-0.040802,-9.7681,0,0,44.811,1,1,8008,4004
10125,5.1608e+07,0,-0.00019525,-0.00030197,-0.00072518,-0.38679,-0.040151,-9.7663,0,0,44.811,1,1,8008,4004
10156,5.1611e+07,0,-0.00090584,0.00018785,-0.00096919,-0.38718,-0.03975,-9.7668,0,0,44.811,1,1,8008,4004
10159,5.1613e+07,0,-0.0015549,0.00069355,-0.00077621,-0.38689,-0.044243,-9.7707,0,0,44.811,1,1,8008,4004
10167,5.1616e+07,0,-0.0013281,0.00040852,8.5464e-05,-0.38298,-0.048096,-9.7766,0,0,44.811,1,1,8008,4004
10170,5.1618e+07,0,-0.0013426,-0.00043195,-3.4872e-05,-0.37931,-0.048491,-9.7799,0,0,44.811,1,1,8008,4004
10201,5.1621e+07,0,-0.0019482,-0.00064006,-0.00010528,-0.37513,-0.049081,-9.7852,0,0,44.811,1,1,8008,4004
10204,5.1623e+07,0,-0.0021329,0.00065372,-0.00015637,-0.37341,-0.050062,-9.7869,0,0,44.811,1,1,8008,4004
10207,5.1626e+07,0,-0.0017882,0.00044705,0.00020685,-0.37257,-0.050252,-9.7841,0,0,44.81,1,1,8008,4004
10210,5.1629e+07,0,-0.0017651,0.00026685,-0.00019425,-0.37212,-0.049014,-9.7805,0,0,44.81,1,1,8008,4004
10241,5.1631e+07,0,-0.0014538,0.00039269,-0.0012015,-0.37212,-0.046903,-9.7749,0,0,44.81,1,1,8008,4004
10244,5.1634e+07,0,-0.0012029,0.00071583,-0.0014966,-0.37286,-0.046337,-9.7711,0,0,44.81,1,1,8008,4004
10248,5.1636e+07,0,-0.00082947,0.0007299,-0.0018892,-0.3751,-0.046266,-9.7668,0,0,44.81,1,1,8008,4004
10251,5.1639e+07,0,-0.00011381,-0.00025385,-0.001442,-0.37575,-0.045833,-9.767,0,0,44.81,1,1,8008,4004
10282,5.1641e+07,0,-0.00011559,-0.0010231,-0.00036085,-0.37618,-0.045335,-9.7685,0,0,44.81,1,1,8008,4004
10286,5.1644e+07,0,-8.4384e-05,-0.001508,0.00025191,-0.37608,-0.046101,-9.7697,0,0,44.81,1,1,8008,4004
10291,5.1647e+07,0,-0.00011007,-0.0013677,0.00057053,-0.37535,-0.047431,-9.7738,0,0,44.811,1,1,8008,4004
10294,5.1648e+07,0,7.6714e-05,-0.0011353,0.0002268,-0.37521,-0.048327,-9.7763,0,0,44.811,1,1,8008,4004
10325,5.1651e+07,0,-5.3797e-05,-0.00053143,-0.00020381,-0.37566,-0.046642,-9.7794,0,0,44.811,1,1,8008,4004
10328,5.1654e+07,0,-3.1057e-05,-0.001022,-0.00017236,-0.37631,-0.045073,-9.7802,0,0,44.811,1,1,8008,4004
10331,5.1659e+07,0,0.00014243,-0.00035321,8.1276e-05,-0.3737,-0.046063,-9.7784,0,0,44.811,1,1,8008,4004
10362,5.1661e+07,0,-0.00035736,-0.00090193,-0.00025292,-0.37287,-0.04553,-9.7772,0,0,44.811,1,1,8008,4004
10365,5.1664e+07,0,-0.0011338,-0.00083834,-0.00077842,-0.37222,-0.042889,-9.7776,0,0,44.811,1,1,8008,4004
10369,5.1666e+07,0,-0.0013668,-0.0012986,-0.00069922,-0.37213,-0.040984,-9.7764,0,0,44.811,1,1,8008,4004
10372,5.1669e+07,0,-0.00090184,-0.0013737,-0.0004012,-0.37259,-0.039154,-9.7764,0,0,44.811,1,1,8008,4004
10403,5.1672e+07,0,0.00068121,-0.0016303,-0.0003822,-0.37338,-0.03867,-9.7787,0,0,44.811,1,1,8008,4004
10406,5.1674e+07,0,0.0011083,-0.001135,-0.00054133,-0.37504,-0.038492,-9.7801,0,0,44.811,1,1,8008,4004
10409,5.1676e+07,0,0.0013122,-0.00016374,-0.00084,-0.37754,-0.03736,-9.7824,0,0,44.811,1,1,8008,4004
10412,5.1679e+07,0,0.0010754,-6.3976e-06,-0.0013973,-0.38156,-0.036245,-9.7867,0,0,44.812,1,1,8008,4004
10443,5.1682e+07,0,0.0013553,-0.0005771,-0.0015577,-0.3834,-0.037532,-9.7883,0,0,44.812,1,1,8008,4004
10446,5.1684e+07,0,0.001795,-0.0010433,-0.00080026,-0.38549,-0.04051,-9.7885,0,0,44.812,1,1,8008,4004
10450,5.1686e+07,0,0.0025265,-0.00060268,-4.8229e-05,-0.38729,-0.041616,-9.7893,0,0,44.812,1,1,8008,4004
10454,5.1689e+07,0,0.0027691,-0.0004566,-0.00018732,-0.38879,-0.041752,-9.7867,0,0,44.812,1,1,8008,4004
10485,5.1692e+07,0,0.0022426,-0.0010708,-0.00029803,-0.38784,-0.043178,-9.7825,0,0,44.812,1,1,8008,4004
10488,5.1694e+07,0,0.0023871,-0.0026761,-0.00016282,-0.38494,-0.044633,-9.779,0,0,44.812,1,1,8008,4004
10491,5.1697e+07,0,0.0015913,-0.0034758,2.8913e-05,-0.38271,-0.044903,-9.7763,0,0,44.812,1,1,8008,4004
10494,5.1699e+07,0,0.001254,-0.0040299,0.00016003,-0.38073,-0.044962,-9.7708,0,0,44.812,1,1,8008,4004
10525,5.1701e+07,0,0.0012291,-0.0032964,-0.00018925,-0.38053,-0.043472,-9.7674,0,0,44.812,1,1,8008,4004
10528,5.1704e+07,0,0.00090256,-0.0021009,-1.2584e-05,-0.3819,-0.041957,-9.7621,0,0,44.812,1,1,8008,4004
10532,5.1707e+07,0,0.00077315,-0.0015421,-0.00042855,-0.38119,-0.042649,-9.7592,0,0,44.813,1,1,8008,4004
10535,5.1709e+07,0,0.00033819,-0.0012001,-0.00083123,-0.37748,-0.043357,-9.7543,0,0,44.813,1,1,8008,4004
10566,5.1712e+07,0,0.00055869,-0.00063073,-0.00091176,-0.3743,-0.044296,-9.7523,0,0,44.813,1,1,8008,4004
10570,5.1714e+07,0,0.00077531,-0.0010106,-0.00092209,-0.36895,-0.0466,-9.7516,0,0,44.813,1,1,8008,4004
10578,5.1717e+07,0,0.00051179,-0.0017724,-0.0012114,-0.36683,-0.048871,-9.7503,0,0,44.813,1,1,8008,4004
10581,5.1719e+07,0,0.00024697,-0.0018787,-0.0015709,-0.36569,-0.052485,-9.7474,0,0,44.813,1,1,8008,4004
10612,5.1722e+07,0,0.0004182,-0.0014641,-0.00081126,-0.3678,-0.05581,-9.7493,0,0,44.813,1,1,8008,4004
10615,5.1725e+07,0,-0.00049293,-0.0011292,-0.00080159,-0.36981,-0.056046,-9.752,0,0,44.813,1,1,8008,4004
10618,5.1727e+07,0,-0.0013156,-0.0004028,-0.00081086,-0.37372,-0.054324,-9.7582,0,0,44.814,1,1,8008,4004
10621,5.1729e+07,0,-0.0014952,-0.00020555,-0.00012541,-0.37731,-0.053412,-9.7632,0,0,44.814,1,1,8008,4004
10652,5.1732e+07,0,-0.00050385,-0.00065503,0.00058323,-0.38259,-0.054373,-9.7662,0,0,44.814,1,1,8008,4004
10655,5.1734e+07,0,-0.00027637,-0.00025955,0.00053468,-0.38413,-0.055399,-9.7666,0,0,44.814,1,1,8008,4004
10659,5.1737e+07,0,-0.00058306,0.0011616,5.0581e-05,-0.38469,-0.055822,-9.7657,0,0,44.814,1,1,8008,4004
10662,5.174e+07,0,-0.0010644,0.0019376,-0.00037284,-0.38437,-0.055518,-9.7648,0,0,44.814,1,1,8008,4004
10693,5.1742e+07,0,-0.001617,0.0018665,-0.00057251,-0.38168,-0.054696,-9.7649,0,0,44.814,1,1,8008,4004
10696,5.1745e+07,0,-0.001669,0.0021256,-0.00028408,-0.37923,-0.053335,-9.7669,0,0,44.814,1,1,8008,4004
10699,5.1747e+07,0,-0.0013795,0.0033182,-0.00051516,-0.3769,-0.049257,-9.7714,0,0,44.814,1,1,8008,4004
10702,5.175e+07,0,-0.0011265,0.0028586,-0.00066609,-0.37555,-0.044837,-9.7732,0,0,44.814,1,1,8008,4004
10733,5.1752e+07,0,-0.0011498,0.0015663,-0.00061155,-0.3759,-0.039157,-9.7765,0,0,44.815,1,1,8008,4004
10737,5.1757e+07,0,-0.0015173,0.00064895,-1.9863e-05,-0.37172,-0.036705,-9.7785,0,0,44.815,1,1,8008,4004
10742,5.176e+07,0,-0.0014732,0.0016538,-0.00033035,-0.36905,-0.038245,-9.7789,0,0,44.815,1,1,8008,4004
10773,5.1765e+07,0,-0.0017592,0.00068333,-0.00098437,-0.3668,-0.041315,-9.7841,0,0,44.815,1,1,8008,4004
10776,5.1768e+07,0,-0.0034127,0.00099266,-0.0010204,-0.3662,-0.041712,-9.7866,0,0,44.815,1,1,8008,4004
10780,5.1771e+07,0,-0.0042723,0.00080042,-0.00044074,-0.36564,-0.041839,-9.7872,0,0,44.815,1,1,8008,4004
10811,5.1773e+07,0,-0.0039226,-0.00086153,-3.0935e-05,-0.36503,-0.042811,-9.7875,0,0,44.815,1,1,8008,4004
10814,5.1776e+07,0,-0.0032163,-0.00099025,-3.3857e-05,-0.36444,-0.042675,-9.7859,0,0,44.815,1,1,8008,4004
10817,5.1778e+07,0,-0.0029603,-0.00027244,-0.00063214,-0.36492,-0.041996,-9.782,0,0,44.815,1,1,8008,4004
10820,5.1781e+07,0,-0.0027712,0.00021875,-0.0012912,-0.36741,-0.041277,-9.7793,0,0,44.815,1,1,8008,4004
10853,5.1784e+07,0,-0.003121,-0.00044742,-0.0018305,-0.37185,-0.038446,-9.7755,0,0,44.815,1,1,8008,4004
10856,5.1786e+07,0,-0.0035901,-0.00099241,-0.0021148,-0.37415,-0.037371,-9.7726,0,0,44.815,1,1,8008,4004
10859,5.1789e+07,0,-0.0038193,-0.0015825,-0.0020598,-0.37656,-0.036141,-9.7687,0,0,44.815,1,1,8008,4004
10865,5.1792e+07,0,-0.0033861,-0.0017796,-0.0012416,-0.37609,-0.036106,-9.7689,0,0,44.815,1,1,8008,4004
10896,5.1795e+07,0,-0.0020551,-0.0020683,0.00042684,-0.37395,-0.037528,-9.7714,0,0,44.815,1,1,8008,4004
10899,5.1797e+07,0,-0.0021466,-0.0024694,0.000292,-0.37466,-0.036427,-9.7687,0,0,44.815,1,1,8008,4004
10902,5.1799e+07,0,-0.0021101,-0.0024068,-0.0002901,-0.37525,-0.034259,-9.7668,0,0,44.815,1,1,8008,4004
10905,5.1803e+07,0,-0.0015062,-0.0024365,-0.0006421,-0.3742,-0.032537,-9.7645,0,0,44.815,1,1,8008,4004
10936,5.1805e+07,0,-0.0010141,-0.0023496,-0.0009801,-0.3742,-0.030978,-9.7645,0,0,44.815,1,1,8008,4004
10939,5.1807e+07,0,-0.0010717,-0.0023349,-0.0013495,-0.37493,-0.030682,-9.7656,0,0,44.815,1,1,8008,4004
10942,5.181e+07,0,-0.00075656,-0.0027678,-0.0019989,-0.37488,-0.030204,-9.7689,0,0,44.815,1,1,8008,4004
10946,5.1813e+07,0,-0.00047603,-0.0027192,-0.0018855,-0.37289,-0.030354,-9.772,0,0,44.815,1,1,8008,4004
10977,5.1815e+07,0,-0.00086294,-0.0019804,-0.00094305,-0.37107,-0.033186,-9.7765,0,0,44.815,1,1,8008,4004
10980,5.1818e+07,0,-0.00067459,-0.0016312,-0.0010741,-0.37025,-0.03541,-9.7798,0,0,44.815,1,1,8008,4004
10987,5.182e+07,0,0.000636,-0.0017496,-0.00070816,-0.36964,-0.037909,-9.7831,0,0,44.815,1,1,8008,4004
10992,5.1822e+07,0,0.0003178,-0.0018435,-8.3415e-05,-0.37013,-0.039175,-9.784,0,0,44.815,1,1,8008,4004
11023,5.1825e+07,0,-4.8222e-05,-0.0024748,-0.00031221,-0.37089,-0.041015,-9.7871,0,0,44.815,1,1,8008,4004
11026,5.1828e+07,0,0.00048308,-0.0023266,-0.00062918,-0.36996,-0.041554,-9.7887,0,0,44.815,1,1,8008,4004
11029,5.183e+07,0,0.0017936,-0.0018008,-0.0011273,-0.36953,-0.04106,-9.7874,0,0,44.816,1,1,8008,4004
11032,5.1832e+07,0,0.0026953,-0.0014472,-0.0012872,-0.37021,-0.040501,-9.785,0,0,44.816,1,1,8008,4004
11063,5.1835e+07,0,0.0025171,-0.00090535,-0.00091634,-0.37028,-0.041412,-9.7792,0,0,44.816,1,1,8008,4004
11066,5.1837e+07,0,0.0010449,-0.00045515,-0.00051574,-0.37023,-0.04259,-9.7728,0,0,44.816,1,1,8008,4004
11069,5.184e+07,0,0.00059204,-0.00031674,0.00020048,-0.37064,-0.045164,-9.7623,0,0,44.816,1,1,8008,4004
11073,5.1843e+07,0,0.00074342,0.00029788,0.00074957,-0.37159,-0.046048,-9.7589,0,0,44.816,1,1,8008,4004
11104,5.1845e+07,0,0.00044874,0.0013178,0.0010019,-0.37391,-0.046225,-9.7577,0,0,44.816,1,1,8008,4004
11107,5.1848e+07,0,0.00057686,0.0011573,0.00088262,-0.37498,-0.045031,-9.7565,0,0,44.816,1,1,8008,4004
11110,5.185e+07,0,0.0010207,0.00048114,0.00047947,-0.37601,-0.042252,-9.7568,0,0,44.816,1,1,8008,4004
11113,5.1853e+07,0,0.00056975,0.00013151,0.00035762,-0.37528,-0.040152,-9.7574,0,0,44.816,1,1,8008,4004
11144,5.1856e+07,0,0.00038483,0.00037297,0.00063454,-0.37336,-0.03912,-9.7597,0,0,44.817,1,1,8008,4004
11147,5.1858e+07,0,0.0010245,0.0016275,0.00048122,-0.37201,-0.039233,-9.7639,0,0,44.817,1,1,8008,4004
11151,5.186e+07,0,0.00065898,0.0022477,0.00011714,-0.37147,-0.03836,-9.768,0,0,44.817,1,1,8008,4004
11155,5.1863e+07,0,0.00046469,0.0019866,-0.00010656,-0.37312,-0.036363,-9.7732,0,0,44.817,1,1,8008,4004
11186,5.1871e+07,0,0.00058719,0.00059555,0.00010295,-0.38138,-0.041414,-9.7885,0,0,44.817,1,1,8008,4004
11189,5.1873e+07,0,0.00069645,5.0555e-05,-0.00024038,-0.3831,-0.040726,-9.7905,0,0,44.817,1,1,8008,4004
11220,5.1876e+07,0,0.00071637,-0.00015214,-0.00075471,-0.38454,-0.039158,-9.7906,0,0,44.817,1,1,8008,4004
11224,5.1878e+07,0,0.00069898,0.00026446,-0.0013069,-0.3856,-0.038165,-9.7884,0,0,44.817,1,1,8008,4004
11228,5.1881e+07,0,0.00077349,0.00027601,-0.0007543,-0.38624,-0.038019,-9.7848,0,0,44.817,1,1,8008,4004
11232,5.1883e+07,0,0.00063943,-8.1567e-05,-0.00061398,-0.38729,-0.038264,-9.7799,0,0,44.817,1,1,8008,4004
11263,5.1885e+07,0,0.00064315,0.00013601,-0.00093548,-0.38651,-0.038919,-9.7774,0,0,44.817,1,1,8008,4004
11266,5.1888e+07,0,0.00083156,-0.00022484,-0.0020016,-0.38394,-0.040719,-9.7737,0,0,44.817,1,1,8008,4004
11269,5.189e+07,0,0.0004753,-0.00020167,-0.0017673,-0.38336,-0.043235,-9.7721,0,0,44.817,1,1,8008,4004
11273,5.1893e+07,0,0.00055964,-0.0006907,-0.00074836,-0.38387,-0.04671,-9.7678,0,0,44.817,1,1,8008,4004
11304,5.1896e+07,0,0.00026427,-0.00041223,0.00025689,-0.38381,-0.047983,-9.7629,0,0,44.817,1,1,8008,4004
11307,5.1899e+07,0,0.00046684,-0.0004492,0.00074985,-0.38357,-0.048942,-9.7603,0,0,44.817,1,1,8008,4004
11311,5.1901e+07,0,-0.00033156,-0.00049956,0.0010185,-0.3827,-0.050347,-9.7578,0,0,44.817,1,1,8008,4004
11315,5.1904e+07,0,-0.00043884,-0.0004728,0.0008204,-0.38188,-0.051598,-9.7571,0,0,44.817,1,1,8008,4004
11346,5.1906e+07,0,-0.0010845,-0.00035073,0.00018727,-0.38084,-0.051763,-9.7576,0,0,44.817,1,1,8008,4004
11349,5.1909e+07,0,-0.0017805,-0.00038579,-1.4899e-05,-0.38048,-0.051557,-9.7584,0,0,44.817,1,1,8008,4004
11353,5.1911e+07,0,-0.0023283,-0.0006632,0.00042906,-0.3793,-0.052321,-9.7602,0,0,44.817,1,1,8008,4004
11357,5.1914e+07,0,-0.002333,-0.0003269,0.00097486,-0.379,-0.053445,-9.7635,0,0,44.817,1,1,8008,4004
11388,5.1916e+07,0,-0.0024763,-0.00040574,-8.1925e-06,-0.37851,-0.054163,-9.7693,0,0,44.816,1,1,8008,4004
11391,5.1919e+07,0,-0.0033956,-0.0010531,-0.00074477,-0.37757,-0.053519,-9.7735,0,0,44.816,1,1,8008,4004
11398,5.1922e+07,0,-0.0035155,-0.0013246,-0.001241,-0.37729,-0.053238,-9.7757,0,0,44.816,1,1,8008,4004
11401,5.1924e+07,0,-0.0035577,-0.001535,-0.0017219,-0.37661,-0.052169,-9.7772,0,0,44.816,1,1,8008,4004
11432,5.1926e+07,0,-0.0037227,-0.0013024,-0.0014645,-0.37522,-0.051182,-9.7779,0,0,44.816,1,1,8008,4004
11435,5.1929e+07,0,-0.0042836,-0.0016563,-0.0016655,-0.37497,-0.049198,-9.778,0,0,44.816,1,1,8008,4004
11438,5.1932e+07,0,-0.0039895,-0.0018396,-0.0019824,-0.37516,-0.047333,-9.7758,0,0,44.816,1,1,8008,4004
11442,5.1934e+07,0,-0.003201,-0.0021835,-0.0014345,-0.3758,-0.042428,-9.7727,0,0,44.816,1,1,8008,4004
11473,5.1936e+07,0,-0.0029117,-0.0023991,-0.0012141,-0.376,-0.039638,-9.7715,0,0,44.816,1,1,8008,4004
11476,5.1939e+07,0,-0.0032142,-0.0012767,-0.0005308,-0.37862,-0.040098,-9.7709,0,0,44.816,1,1,8008,4004
11479,5.1942e+07,0,-0.003608,-0.00027993,-0.00056354,-0.38155,-0.04184,-9.7699,0,0,44.816,1,1,8008,4004
11482,5.1944e+07,0,-0.003771,0.00044702,-0.00026429,-0.38353,-0.044289,-9.7682,0,0,44.816,1,1,8008,4004
11513,5.1947e+07,0,-0.0028063,0.00060127,0.00013887,-0.38542,-0.046067,-9.769,0,0,44.816,1,1,8008,4004
11518,5.1949e+07,0,-0.0025111,-0.00019292,0.0011075,-0.38703,-0.048516,-9.7713,0,0,44.816,1,1,8008,4004
11521,5.1951e+07,0,-0.0025404,-0.00032416,0.0015631,-0.38711,-0.049189,-9.7736,0,0,44.816,1,1,8008,4004
11525,5.1954e+07,0,-0.0024321,-0.00061518,0.0013514,-0.38639,-0.048315,-9.7764,0,0,44.816,1,1,8008,4004
11556,5.1957e+07,0,-0.0020809,-0.00096914,0.00098602,-0.38636,-0.047357,-9.7768,0,0,44.816,1,1,8008,4004
11559,5.1959e+07,0,-0.0020499,-0.0004961,0.00061785,-0.38701,-0.044413,-9.7756,0,0,44.817,1,1,8008,4004
11562,5.1962e+07,0,-0.0024463,0.00046994,0.00017435,-0.38812,-0.041406,-9.7743,0,0,44.817,1,1,8008,4004
11566,5.1964e+07,0,-0.0030946,0.0013237,-0.0002425,-0.38957,-0.036932,-9.7733,0,0,44.817,1,1,8008,4004
11597,5.1966e+07,0,-0.0029871,0.00093689,6.4507e-05,-0.39028,-0.033893,-9.773,0,0,44.817,1,1,8008,4004
11600,5.1969e+07,0,-0.0018986,-0.0001413,-0.00021665,-0.38991,-0.030267,-9.772,0,0,44.817,1,1,8008,4004
11603,5.1975e+07,0,-0.0010958,-0.0018625,0.00028717,-0.38808,-0.024774,-9.7752,0,0,44.817,1,1,8008,4004
11608,5.1977e+07,0,-0.00083058,-0.0004822,7.8049e-05,-0.38702,-0.023094,-9.7786,0,0,44.818,1,1,8008,4004
11639,5.1979e+07,0,-0.00034258,0.00029017,-8.2474e-05,-0.38616,-0.022334,-9.7815,0,0,44.818,1,1,8008,4004
11642,5.1983e+07,0,2.2269e-05,0.00044509,-6.2637e-05,-0.38453,-0.024884,-9.7844,0,0,44.818,1,1,8008,4004
11645,5.1985e+07,0,0.00016887,0.00074791,-0.00049009,-0.38334,-0.02875,-9.7853,0,0,44.818,1,1,8008,4004
11648,5.1987e+07,0,7.3895e-05,0.0013178,0.0002855,-0.38217,-0.034908,-9.784,0,0,44.818,1,1,8008,4004
11679,5.199e+07,0,0.0016854,0.0014813,0.00018795,-0.3813,-0.038947,-9.7803,0,0,44.818,1,1,8008,4004
11683,5.1993e+07,0,0.0020144,0.0013973,0.00026838,-0.38022,-0.039607,-9.7777,0,0,44.818,1,1,8008,4004
11687,5.1995e+07,0,0.00285,0.0011814,0.0012073,-0.37839,-0.038526,-9.774,0,0,44.819,1,1,8008,4004
11690,5.1997e+07,0,0.0020588,0.0010897,0.0017851,-0.3782,-0.037693,-9.7735,0,0,44.819,1,1,8008,4004
11721,5.2e+07,0,0.0013112,0.0016552,0.002481,-0.37713,-0.038194,-9.7741,0,0,44.819,1,1,8008,4004
11725,5.2003e+07,0,0.0018755,0.0014586,0.0021663,-0.37678,-0.038258,-9.7746,0,0,44.819,1,1,8008,4004
11728,5.2006e+07,0,0.0020527,0.00086718,0.0014057,-0.37498,-0.038489,-9.7752,0,0,44.819,1,1,8008,4004
11731,5.2008e+07,0,0.002107,0.000668,0.00039954,-0.37323,-0.039276,-9.7768,0,0,44.819,1,1,8008,4004
11762,5.201e+07,0,0.0018695,0.00010964,-0.00033172,-0.37123,-0.041527,-9.7791,0,0,44.819,1,1,8008,4004
11765,5.2013e+07,0,0.0023727,7.7158e-05,0.00041445,-0.37053,-0.04255,-9.7811,0,0,44.819,1,1,8008,4004
11768,5.2015e+07,0,0.0020327,0.00032591,0.00082806,-0.36975,-0.043848,-9.7831,0,0,44.819,1,1,8008,4004
11772,5.2018e+07,0,0.0014677,0.00027945,0.0005401,-0.36963,-0.044909,-9.7851,0,0,44.819,1,1,8008,4004
11803,5.202e+07,0,0.0016178,0.00033452,0.00014861,-0.36918,-0.045208,-9.7845,0,0,44.819,1,1,8008,4004
11811,5.2023e+07,0,0.0014039,0.00013183,-4.5175e-05,-0.36842,-0.046271,-9.7835,0,0,44.819,1,1,8008,4004
11814,5.2025e+07,0,0.00058011,-0.00094422,-0.00021101,-0.3672,-0.048867,-9.7803,0,0,44.82,1,1,8008,4004
11817,5.2028e+07,0,-0.00013682,-0.0012955,-8.6282e-05,-0.36626,-0.050248,-9.7766,0,0,44.82,1,1,8008,4004
11849,5.2031e+07,0,-0.00090925,-0.0013016,-0.00038012,-0.36312,-0.052096,-9.7698,0,0,44.82,1,1,8008,4004
11852,5.2033e+07,0,-0.00073277,-0.0011748,-0.00057714,-0.36219,-0.054797,-9.7665,0,0,44.82,1,1,8008,4004
11855,5.2035e+07,0,-0.00039551,-0.00079216,0.00037239,-0.3651,-0.059102,-9.766,0,0,44.82,1,1,8008,4004
11858,5.2037e+07,0,-5.8397e-05,-0.0013261,0.0012229,-0.36847,-0.061337,-9.7662,0,0,44.82,1,1,8008,4004
11889,5.2041e+07,0,-0.00059982,-0.0012672,0.0013774,-0.37399,-0.063263,-9.767,0,0,44.82,1,1,8008,4004
11893,5.2043e+07,0,-0.00076828,-0.00088058,0.00052368,-0.37845,-0.063639,-9.7678,0,0,44.82,1,1,8008,4004
11896,5.2045e+07,0,0.00024134,-0.0007808,-0.00054722,-0.38428,-0.061247,-9.7701,0,0,44.819,1,1,8008,4004
11899,5.2047e+07,0,0.00037324,-0.0010057,-0.00089136,-0.38596,-0.05822,-9.7716,0,0,44.819,1,1,8008,4004
11930,5.205e+07,0,-0.00058257,-0.0014004,-0.00045971,-0.38587,-0.052088,-9.7707,0,0,44.819,1,1,8008,4004
11933,5.2053e+07,0,-0.0011382,-0.0015706,-3.4915e-05,-0.38287,-0.047954,-9.7699,0,0,44.819,1,1,8008,4004
11936,5.2055e+07,0,-0.0017401,-0.0012657,0.00041411,-0.37762,-0.042495,-9.7695,0,0,44.819,1,1,8008,4004
11939,5.2058e+07,0,-0.0019874,-0.0015825,0.00077162,-0.37504,-0.039566,-9.7697,0,0,44.819,1,1,8008,4004
11970,5.206e+07,0,-0.0029413,-0.0023147,0.00069786,-0.37242,-0.036656,-9.7709,0,0,44.819,1,1,8008,4004
11974,5.2063e+07,0,-0.0027519,-0.003036,0.00017857,-0.37218,-0.036449,-9.7723,0,0,44.819,1,1,8008,4004
11977,5.2066e+07,0,-0.0022012,-0.002553,0.00011715,-0.37266,-0.038135,-9.7731,0,0,44.819,1,1,8008,4004
11981,5.2072e+07,0,-0.0033115,-0.00093246,0.00031421,-0.37273,-0.043213,-9.7717,0,0,44.82,1,1,8008,4004
11985,5.2073e+07,0,-0.0027386,-0.00052451,0.00050316,-0.37375,-0.047183,-9.7713,0,0,44.82,1,1,8008,4004
12016,5.2076e+07,0,-0.0021326,-0.0008688,0.0014716,-0.37802,-0.051459,-9.7715,0,0,44.82,1,1,8008,4004
12019,5.2079e+07,0,-0.0021996,-0.0010501,0.0016382,-0.37989,-0.052048,-9.7712,0,0,44.82,1,1,8008,4004
12022,5.2081e+07,0,-0.0021378,-0.0010744,0.0017222,-0.38156,-0.051031,-9.7718,0,0,44.819,1,1,8008,4004
12025,5.2084e+07,0,-0.0020053,-0.001255,0.0011127,-0.38342,-0.050576,-9.7731,0,0,44.819,1,1,8008,4004
12056,5.2087e+07,0,-0.0028249,-0.00039575,0.00036481,-0.38493,-0.048771,-9.7761,0,0,44.819,1,1,8008,4004
12060,5.2089e+07,0,-0.0035027,0.00041827,0.00026512,-0.38479,-0.047419,-9.7772,0,0,44.819,1,1,8008,4004
12063,5.2092e+07,0,-0.0034787,0.0011877,-0.00043858,-0.3831,-0.04477,-9.7801,0,0,44.819,1,1,8008,4004
12067,5.2094e+07,0,-0.0039162,0.00086899,-0.00090587,-0.38092,-0.042432,-9.78,0,0,44.819,1,1,8008,4004
12098,5.2097e+07,0,-0.0036663,0.00019144,-0.0016062,-0.37787,-0.039202,-9.7779,0,0,44.819,1,1,8008,4004
12101,5.21e+07,0,-0.0035085,-0.00059836,-0.0018279,-0.3771,-0.038488,-9.7767,0,0,44.819,1,1,8008,4004
12104,5.2102e+07,0,-0.0035355,-0.0017863,-0.0024641,-0.37772,-0.037642,-9.7736,0,0,44.819,1,1,8008,4004
12107,5.2105e+07,0,-0.0031757,-0.0018842,-0.0024448,-0.3782,-0.036675,-9.7721,0,0,44.819,1,1,8008,4004
12138,5.2108e+07,0,-0.0031018,-0.0010043,-0.0017407,-0.37808,-0.035321,-9.7727,0,0,44.819,1,1,8008,4004
12142,5.211e+07,0,-0.0033143,2.6356e-05,-0.00099231,-0.37864,-0.03476,-9.7727,0,0,44.819,1,1,8008,4004
12145,5.2112e+07,0,-0.0029959,0.0010746,-0.00038867,-0.37849,-0.03519,-9.7731,0,0,44.819,1,1,8008,4004
12149,5.2114e+07,0,-0.0020137,0.0019112,-0.00039638,-0.37611,-0.035909,-9.777,0,0,44.819,1,1,8008,4004
12180,5.2117e+07,0,-0.00094071,0.0030057,-0.00056096,-0.37494,-0.036158,-9.7799,0,0,44.819,1,1,8008,4004
12183,5.212e+07,0,-0.00088711,0.0018692,-0.00059643,-0.37624,-0.035722,-9.7792,0,0,44.819,1,1,8008,4004
12186,5.2122e+07,0,-0.00029721,0.0010363,-0.00073706,-0.37956,-0.036461,-9.7765,0,0,44.819,1,1,8008,4004
12194,5.2125e+07,0,0.0001713,0.0010119,-0.00091194,-0.38094,-0.035823,-9.7734,0,0,44.819,1,1,8008,4004
12227,5.2127e+07,0,0.00037753,0.00075459,-0.0010293,-0.38326,-0.034734,-9.7699,0,0,44.819,1,1,8008,4004
12230,5.213e+07,0,0.00011789,-5.7751e-05,-0.00023064,-0.38551,-0.032208,-9.7672,0,0,44.819,1,1,8008,4004
12233,5.2133e+07,0,0.00055784,-0.00023113,0.00022355,-0.38723,-0.030062,-9.7667,0,0,44.819,1,1,8008,4004
12237,5.2135e+07,0,0.0014959,0.00035484,0.00026645,-0.39031,-0.028823,-9.7665,0,0,44.819,1,1,8008,4004
12268,5.2138e+07,0,0.0016759,0.00038384,0.00054767,-0.39294,-0.029337,-9.7646,0,0,44.819,1,1,8008,4004
12271,5.214e+07,0,0.0019724,-0.00041263,0.00070286,-0.39558,-0.031926,-9.7602,0,0,44.819,1,1,8008,4004
12274,5.2143e+07,0,0.0016273,-0.0011327,0.00022467,-0.39581,-0.033032,-9.7582,0,0,44.819,1,1,8008,4004
12278,5.2145e+07,0,0.0015583,-0.0013096,-0.0002807,-0.39464,-0.03402,-9.7551,0,0,44.819,1,1,8008,4004
12309,5.2148e+07,0,0.0021716,-0.0010275,-0.00035978,-0.39386,-0.033575,-9.7532,0,0,44.819,1,1,8008,4004
12312,5.215e+07,0,0.001758,-0.0012724,-0.00049521,-0.39085,-0.033043,-9.7514,0,0,44.82,1,1,8008,4004
12315,5.2152e+07,0,0.00075769,-0.0013751,-0.00033749,-0.38842,-0.034614,-9.7508,0,0,44.82,1,1,8008,4004
12318,5.2155e+07,0,0.00070871,-0.0015677,0.00015165,-0.38611,-0.037888,-9.7503,0,0,44.82,1,1,8008,4004
12349,5.2157e+07,0,1.1829e-05,-0.0010373,0.0013018,-0.38431,-0.039267,-9.7545,0,0,44.82,1,1,8008,4004
12352,5.216e+07,0,-0.00045147,-0.00078529,0.0012391,-0.38364,-0.039499,-9.758,0,0,44.82,1,1,8008,4004
12355,5.2163e+07,0,0.00013283,-0.0010006,0.00068722,-0.38268,-0.040111,-9.7625,0,0,44.82,1,1,8008,4004
12359,5.2166e+07,0,0.00040516,-0.00098481,0.00050529,-0.38306,-0.040964,-9.7647,0,0,44.819,1,1,8008,4004
12390,5.2171e+07,0,0.0011955,-0.0017172,0.00059187,-0.38517,-0.042425,-9.766,0,0,44.819,1,1,8008,4004
12393,5.2174e+07,0,0.0017256,-0.0022592,0.00044429,-0.38531,-0.042714,-9.7644,0,0,44.819,1,1,8008,4004
12396,5.2179e+07,0,0.0015429,-0.0030266,0.00054651,-0.38223,-0.046674,-9.7586,0,0,44.819,1,1,8008,4004
12429,5.2182e+07,0,0.00086424,-0.0035241,0.00050353,-0.38224,-0.052218,-9.759,0,0,44.819,1,1,8008,4004
12432,5.2184e+07,0,0.00071329,-0.0031983,-8.4503e-05,-0.3814,-0.054679,-9.7607,0,0,44.819,1,1,8008,4004
12436,5.2187e+07,0,0.00032567,-0.0025779,-0.0007365,-0.37992,-0.057145,-9.7662,0,0,44.819,1,1,8008,4004
12439,5.2189e+07,0,0.0001101,-0.0025031,-0.00078305,-0.37877,-0.057428,-9.7695,0,0,44.819,1,1,8008,4004
12470,5.2192e+07,0,-0.0010619,-0.0013307,-0.00089091,-0.37882,-0.05766,-9.7741,0,0,44.818,1,1,8008,4004
12473,5.2194e+07,0,-0.0010578,-0.00057104,-0.0010304,-0.37968,-0.057965,-9.7756,0,0,44.818,1,1,8008,4004
12477,5.2197e+07,0,-0.00024547,-0.00098555,-0.001438,-0.3816,-0.059081,-9.7759,0,0,44.818,1,1,8008,4004
12481,5.2199e+07,0,-0.0001143,-0.0014919,-0.0018041,-0.38374,-0.060254,-9.7758,0,0,44.818,1,1,8008,4004
12512,5.2202e+07,0,-0.00037922,-0.0012898,-0.001591,-0.38767,-0.062299,-9.7772,0,0,44.818,1,1,8008,4004
12515,5.2205e+07,0,0.00012718,-0.00044154,-0.00065209,-0.3889,-0.064337,-9.7806,0,0,44.818,1,1,8008,4004
12518,5.2206e+07,0,-0.00073635,-0.00085061,0.00074138,-0.38726,-0.067098,-9.7851,0,0,44.817,1,1,8008,4004
12522,5.2209e+07,0,-0.0012751,-0.0012866,0.00091538,-0.38615,-0.068502,-9.7862,0,0,44.817,1,1,8008,4004
12553,5.2212e+07,0,-7.3311e-05,-0.0016031,0.00026029,-0.38425,-0.069371,-9.7856,0,0,44.817,1,1,8008,4004
12556,5.2215e+07,0,0.00017101,-0.0010359,0.00036709,-0.38172,-0.067907,-9.7852,0,0,44.817,1,1,8008,4004
12560,5.2217e+07,0,0.00035708,-9.3503e-06,0.00075753,-0.38037,-0.063977,-9.7849,0,0,44.817,1,1,8008,4004
12563,5.222e+07,0,0.0013411,0.0006033,0.00091634,-0.38021,-0.06074,-9.7839,0,0,44.817,1,1,8008,4004
12594,5.2222e+07,0,0.0023722,0.0011552,0.00046516,-0.38087,-0.057107,-9.7824,0,0,44.816,1,1,8008,4004
12597,5.2225e+07,0,-0.00022974,0.00041128,0.00074536,-0.38148,-0.054329,-9.7806,0,0,44.816,1,1,8008,4004
12604,5.2228e+07,0,-0.0014365,-0.00025706,0.0010115,-0.38047,-0.053722,-9.7802,0,0,44.816,1,1,8008,4004
12607,5.223e+07,0,-0.0019064,-0.00042159,0.00057473,-0.37844,-0.05267,-9.7793,0,0,44.816,1,1,8008,4004
12638,5.2233e+07,0,-0.001437,-7.0236e-05,-9.9563e-05,-0.3759,-0.051246,-9.7777,0,0,44.816,1,1,8008,4004
12641,5.2235e+07,0,-0.0011664,0.00042025,-0.00049111,-0.37391,-0.050433,-9.7758,0,0,44.815,1,1,8008,4004
12645,5.2238e+07,0,-0.00099656,0.0010909,-0.00050968,-0.37151,-0.048879,-9.773,0,0,44.815,1,1,8008,4004
12648,5.224e+07,0,-0.0011268,0.00078952,-0.00081518,-0.37025,-0.046929,-9.7732,0,0,44.815,1,1,8008,4004
12679,5.2243e+07,0,-0.0018597,0.00057037,-0.00049727,-0.36945,-0.044777,-9.7728,0,0,44.815,1,1,8008,4004
12682,5.2245e+07,0,-0.0024044,0.00062011,0.00020349,-0.36934,-0.044558,-9.7716,0,0,44.815,1,1,8008,4004
12686,5.2248e+07,0,-0.0039076,0.00038348,0.0002897,-0.3681,-0.045175,-9.7682,0,0,44.815,1,1,8008,4004
12689,5.225e+07,0,-0.0038547,-0.00013925,0.00027992,-0.36705,-0.045384,-9.7678,0,0,44.815,1,1,8008,4004
12720,5.2253e+07,0,-0.003304,-0.0013342,-0.00019632,-0.36633,-0.043749,-9.7699,0,0,44.814,1,1,8008,4004
12723,5.2256e+07,0,-0.0030665,-0.0014642,1.3005e-05,-0.3662,-0.042162,-9.772,0,0,44.814,1,1,8008,4004
12727,5.2258e+07,0,-0.0026627,-0.0009852,-0.00031733,-0.36655,-0.038867,-9.7748,0,0,44.814,1,1,8008,4004
12730,5.226e+07,0,-0.0024534,-0.00066932,-0.00072109,-0.36688,-0.037319,-9.7747,0,0,44.814,1,1,8008,4004
12761,5.2263e+07,0,-0.002034,-0.0012274,-0.00091388,-0.36749,-0.036211,-9.7715,0,0,44.814,1,1,8008,4004
12764,5.2266e+07,0,-0.0020878,-0.0013691,-0.00049582,-0.3684,-0.035414,-9.7681,0,0,44.814,1,1,8008,4004
12767,5.227e+07,0,-0.00066745,-0.0018211,0.00073486,-0.36845,-0.034768,-9.762,0,0,44.814,1,1,8008,4004
12798,5.2276e+07,0,0.00017317,-0.0015779,0.0017807,-0.36821,-0.036983,-9.7704,0,0,44.814,1,1,8008,4004
12802,5.2278e+07,0,0.00027038,-0.0010415,0.0013439,-0.36711,-0.038814,-9.7742,0,0,44.814,1,1,8008,4004
12805,5.2281e+07,0,0.00065887,-0.00087642,0.00059155,-0.36567,-0.041742,-9.7764,0,0,44.814,1,1,8008,4004
12838,5.2283e+07,0,0.00027925,-0.00092954,-0.00013405,-0.36387,-0.045774,-9.7808,0,0,44.813,1,1,8008,4004
12841,5.2287e+07,0,-0.00062748,-0.0018878,6.4001e-05,-0.3639,-0.047916,-9.7839,0,0,44.813,1,1,8008,4004
12845,5.2289e+07,0,-0.00066947,-0.0025791,-0.00031965,-0.36497,-0.048115,-9.7868,0,0,44.813,1,1,8008,4004
12848,5.2291e+07,0,0.00026311,-0.0031007,-0.0009772,-0.36799,-0.046454,-9.7908,0,0,44.813,1,1,8008,4004
12879,5.2294e+07,0,-0.00061707,-0.0022462,-0.0011763,-0.37374,-0.041401,-9.7941,0,0,44.813,1,1,8008,4004
12882,5.2296e+07,0,-0.00070862,-0.001653,-0.0012607,-0.37717,-0.035287,-9.7931,0,0,44.813,1,1,8008,4004
12885,5.23e+07,0,0.00036501,-0.0027319,-0.0013236,-0.38224,-0.027344,-9.7882,0,0,44.813,1,1,8008,4004
12889,5.2302e+07,0,0.00078629,-0.0034486,-0.0004612,-0.38407,-0.024857,-9.7847,0,0,44.813,1,1,8008,4004
12920,5.2305e+07,0,0.00053353,-0.0039998,0.00023735,-0.38573,-0.022923,-9.7838,0,0,44.813,1,1,8008,4004
12924,5.2307e+07,0,-0.00096514,-0.0031392,0.00074058,-0.38846,-0.022337,-9.7813,0,0,44.813,1,1,8008,4004
12928,5.2309e+07,0,-0.00083928,-0.0028389,0.00036584,-0.38981,-0.023318,-9.7781,0,0,44.813,1,1,8008,4004
12931,5.2312e+07,0,-0.00041139,-0.0021738,0.0003154,-0.39006,-0.027804,-9.7745,0,0,44.813,1,1,8008,4004
12962,5.2315e+07,0,0.0011633,-0.0010055,0.00077322,-0.3866,-0.032015,-9.7717,0,0,44.813,1,1,8008,4004
12965,5.2317e+07,0,0.0015633,-0.00055108,0.001315,-0.38402,-0.034719,-9.7698,0,0,44.813,1,1,8008,4004
12968,5.232e+07,0,0.0015412,-0.00025117,0.000798,-0.38117,-0.035931,-9.7672,0,0,44.813,1,1,8008,4004
12971,5.2323e+07,0,0.0016148,-0.00012527,0.00087851,-0.37991,-0.036684,-9.7674,0,0,44.813,1,1,8008,4004
13002,5.2325e+07,0,0.0011313,-0.00027947,0.00032104,-0.37985,-0.038064,-9.7681,0,0,44.813,1,1,8008,4004
13005,5.2328e+07,0,-3.0209e-05,-1.1273e-05,0.00060423,-0.38146,-0.042312,-9.7713,0,0,44.813,1,1,8008,4004
13013,5.233e+07,0,9.9557e-05,-0.00052974,0.00093899,-0.38313,-0.045247,-9.7711,0,0,44.813,1,1,8008,4004
13016,5.2333e+07,0,0.0013115,-0.00073436,0.00076999,-0.38647,-0.047647,-9.7737,0,0,44.813,1,1,8008,4004
13047,5.2336e+07,0,0.0013841,-0.00091037,0.0011727,-0.38886,-0.047566,-9.7774,0,0,44.813,1,1,8008,4004
13050,5.2338e+07,0,0.0010208,-0.0016207,0.0002622,-0.39236,-0.046037,-9.783,0,0,44.813,1,1,8008,4004
13053,5.2341e+07,0,0.0015862,-0.0012911,-0.00017192,-0.39506,-0.045287,-9.7829,0,0,44.813,1,1,8008,4004
13057,5.2343e+07,0,0.0021977,-0.0003382,-0.0011611,-0.39844,-0.045561,-9.7774,0,0,44.813,1,1,8008,4004
13088,5.2346e+07,0,0.0014852,0.00080061,-0.0010513,-0.39999,-0.045843,-9.7721,0,0,44.813,1,1,8008,4004
13091,5.2349e+07,0,0.00097284,0.0010027,-0.00073724,-0.39976,-0.04545,-9.7716,0,0,44.813,1,1,8008,4004
13095,5.2351e+07,0,0.0010757,0.0010614,4.2368e-05,-0.39846,-0.045802,-9.7713,0,0,44.813,1,1,8008,4004
13098,5.2353e+07,0,0.0013971,0.00086702,0.00067531,-0.39653,-0.046395,-9.7712,0,0,44.813,1,1,8008,4004
13129,5.2356e+07,0,0.002262,0.00063176,0.00085459,-0.39207,-0.047325,-9.7735,0,0,44.813,1,1,8008,4004
13132,5.2358e+07,0,0.0021198,0.00075608,0.00056838,-0.3891,-0.047284,-9.7751,0,0,44.814,1,1,8008,4004
13136,5.2361e+07,0,0.0011719,0.00080442,1.3966e-05,-0.38525,-0.044797,-9.7736,0,0,44.814,1,1,8008,4004
13139,5.2364e+07,0,0.000844,0.0011916,-0.00052989,-0.38298,-0.043658,-9.7719,0,0,44.814,1,1,8008,4004
13142,5.2366e+07,0,0.00031698,0.00081504,-0.00091537,-0.37987,-0.045896,-9.7704,0,0,44.814,1,1,8008,4004
13173,5.2369e+07,0,-0.00017448,-0.00050675,-0.00092393,-0.37866,-0.047898,-9.7697,0,0,44.814,1,1,8008,4004
13176,5.2371e+07,0,-0.00085108,-0.0012022,-0.0005183,-0.37792,-0.048036,-9.7695,0,0,44.814,1,1,8008,4004
13179,5.2373e+07,0,-0.0008808,-0.0010406,-0.00054506,-0.37766,-0.048498,-9.7689,0,0,44.814,1,1,8008,4004
13182,5.2376e+07,0,-0.00086456,-0.00095106,-0.00049908,-0.37699,-0.049601,-9.7684,0,0,44.814,1,1,8008,4004
13185,5.2381e+07,0,-0.0020902,-0.00059471,-0.00051819,-0.37577,-0.051447,-9.7676,0,0,44.814,1,1,8008,4004
13217,5.2383e+07,0,-0.002366,-0.00093422,-0.00063909,-0.37434,-0.052456,-9.7691,0,0,44.814,1,1,8008,4004
13222,5.2386e+07,0,-0.0015566,-0.0021144,-0.00063099,-0.3721,-0.050325,-9.7727,0,0,44.814,1,1,8008,4004
13225,5.2389e+07,0,-0.0013735,-0.0016088,-0.00079163,-0.37151,-0.04791,-9.7754,0,0,44.814,1,1,8008,4004
13228,5.2391e+07,0,-0.0016056,-0.0015751,-0.0010046,-0.37349,-0.045652,-9.7792,0,0,44.815,1,1,8008,4004
13259,5.2394e+07,0,-0.0022766,-0.0014877,3.6998e-05,-0.37573,-0.043887,-9.7804,0,0,44.815,1,1,8008,4004
13263,5.2396e+07,0,-0.0024403,-0.0015224,0.00043619,-0.37712,-0.04262,-9.7809,0,0,44.815,1,1,8008,4004
13266,5.2399e+07,0,-0.0021522,-0.0010704,0.00010005,-0.37737,-0.042248,-9.7856,0,0,44.815,1,1,8008,4004
13269,5.2401e+07,0,-0.0021712,-0.00016301,0.00011124,-0.37601,-0.041974,-9.7866,0,0,44.815,1,1,8008,4004
13300,5.2404e+07,0,-0.0018533,0.00084417,2.5986e-05,-0.37453,-0.041624,-9.7838,0,0,44.815,1,1,8008,4004
13303,5.2406e+07,0,-0.0013069,0.0012997,-0.00074573,-0.37412,-0.042647,-9.7823,0,0,44.815,1,1,8008,4004
13307,5.2409e+07,0,-0.0018978,0.0011864,-0.0020234,-0.37547,-0.045377,-9.781,0,0,44.815,1,1,8008,4004
13311,5.2412e+07,0,-0.0024539,0.00026246,-0.0025299,-0.37685,-0.045999,-9.7796,0,0,44.815,1,1,8008,4004
13342,5.2414e+07,0,-0.0027225,-0.00082277,-0.0026665,-0.37803,-0.046231,-9.7752,0,0,44.816,1,1,8008,4004
13346,5.2417e+07,0,-0.0030699,-0.00091019,-0.0013237,-0.37953,-0.047032,-9.7717,0,0,44.816,1,1,8008,4004
13349,5.2419e+07,0,-0.0026974,-0.00051342,-0.00065166,-0.38038,-0.047016,-9.7689,0,0,44.816,1,1,8008,4004
13352,5.2422e+07,0,-0.0024334,-0.00014572,4.1961e-05,-0.38253,-0.04473,-9.7626,0,0,44.816,1,1,8008,4004
13383,5.2425e+07,0,-0.0026373,-0.00079463,9.0391e-06,-0.38357,-0.042473,-9.7584,0,0,44.816,1,1,8008,4004
13386,5.2427e+07,0,-0.0034722,-0.0006788,0.00018104,-0.38525,-0.039711,-9.7551,0,0,44.816,1,1,8008,4004
13389,5.2429e+07,0,-0.0033162,-0.00015721,0.00032327,-0.38643,-0.038597,-9.7544,0,0,44.816,1,1,8008,4004
13396,5.2433e+07,0,-0.0021404,-0.00022915,-0.00029603,-0.3878,-0.037947,-9.7558,0,0,44.816,1,1,8008,4004
13399,5.2434e+07,0,-0.0015264,-0.00089483,-0.0014699,-0.38898,-0.037091,-9.7577,0,0,44.816,1,1,8008,4004
13431,5.2437e+07,0,-0.0015649,-0.0012936,-0.0018397,-0.38883,-0.036389,-9.758,0,0,44.816,1,1,8008,4004
13434,5.2439e+07,0,-0.0017541,-0.0010443,-0.0019852,-0.38676,-0.036921,-9.7566,0,0,44.816,1,1,8008,4004
13437,5.2442e+07,0,-0.0017491,-0.00062407,-0.0019504,-0.38184,-0.036699,-9.7547,0,0,44.816,1,1,8008,4004
13440,5.2445e+07,0,-0.0015811,0.00063253,-0.0017697,-0.37851,-0.03629,-9.7533,0,0,44.817,1,1,8008,4004
13471,5.2447e+07,0,-0.00052527,0.0013144,-0.00062737,-0.37411,-0.03801,-9.7555,0,0,44.817,1,1,8008,4004
13475,5.245e+07,0,-0.0001088,0.00096152,-0.00031428,-0.37071,-0.039703,-9.7594,0,0,44.817,1,1,8008,4004
13478,5.2452e+07,0,-0.00064111,0.0013267,-0.0017311,-0.36685,-0.041325,-9.7657,0,0,44.817,1,1,8008,4004
13481,5.2454e+07,0,-0.000752,0.0017927,-0.0017079,-0.36584,-0.042758,-9.7699,0,0,44.817,1,1,8008,4004
13513,5.2458e+07,0,-0.0006275,0.0025295,-0.0013874,-0.36557,-0.047164,-9.7781,0,0,44.817,1,1,8008,4004
13516,5.246e+07,0,-0.00061297,0.002655,-0.0012951,-0.36526,-0.049549,-9.7822,0,0,44.817,1,1,8008,4004
13520,5.2463e+07,0,-1.7603e-05,0.0025545,-0.00078448,-0.36656,-0.051854,-9.7841,0,0,44.817,1,1,8008,4004
13523,5.2464e+07,0,0.00026588,0.002672,-7.8388e-06,-0.36788,-0.051515,-9.7842,0,0,44.817,1,1,8008,4004
13554,5.2467e+07,0,-0.0002178,0.0023138,0.00081655,-0.36893,-0.049993,-9.7819,0,0,44.817,1,1,8008,4004
13558,5.247e+07,0,-0.00040825,0.001858,0.00058966,-0.36996,-0.048971,-9.7779,0,0,44.817,1,1,8008,4004
