LineNo,TimeUS,I,GyrX,GyrY,GyrZ,AccX,AccY,AccZ,EG,EA,T,GH,AH,GHz,AHz
182,12924263,0,-0.002897464,-0.003958018,-0.003023824,-0.2783267,-0.01511082,-9.758346,0,0,44.73008,1,1,8006,4003
213,12927131,0,-0.002271315,-0.004572405,-0.003618106,-0.284325,-0.01762199,-9.750677,0,0,44.72999,1,1,8008,4003
289,12956538,0,0.0004524655,-0.0005475609,-0.002658791,-0.3057618,-0.0114002,-9.767144,0,0,44.72879,1,1,8008,4003
405,12985344,0,0.001031246,0.001282141,-0.0005819406,-0.2788582,-0.02899029,-9.745950000000001,0,0,44.72801,1,1,8008,4003
520,13013946,0,0.0008087254,0.0004896072,0.001906625,-0.2863891,-0.02203377,-9.739570000000001,0,0,44.72787,1,1,8008,4003
523,13015333,0,-6.135966e-05,0.0004354151,0.002206656,-0.2859215,-0.0206938,-9.739330000000001,0,0,44.72786,1,1,8008,4003
634,13035237,0,-0.001431268,-0.0002212709,0.002148853,-0.2630754,-0.03057237,-9.738441,0,0,44.72775,1,1,8008,4003
751,13057329,0,-0.001200587,-0.001776801,0.0004910977,-0.273516,-0.04166621,-9.754902,0,0,44.72775,1,1,8008,4003
863,13089340,0,-0.0007745373,0.001521987,-0.002381213,-0.2665769,-0.0224517,-9.750104,0,0,44.72855,1,1,8008,4003
978,13119334,0,0.0007603163999999999,0.0005930588,-0.002449458,-0.2455633,-0.01357822,-9.730836999999999,0,0,44.72973,1,1,8008,4003
1009,13121997,0,0.000665085,-5.152726e-05,-0.003313418,-0.2490433,-0.01074397,-9.731194,0,0,44.72992,1,1,8008,4003
1090,13167693,0,0.0002377056,-0.00211995,0.00176053,-0.2577178,-0.009953978,-9.747349,0,0,44.73245,1,1,8008,4003
1121,13170370,0,-0.0006492459,-0.00360533,0.001605963,-0.262933,-0.008955421,-9.743045,0,0,44.73255,1,1,8008,4003
1201,13249127,0,-0.002084777,0.0005620807,-0.002506306,-0.2816846,-0.0174346,-9.769173,0,0,44.74016,1,1,8008,4003
1297,13304111,0,0.001195384,-0.00151632,-0.001940261,-0.2672799,-0.01750434,-9.742573999999999,0,0,44.74734,1,1,8008,4003
1384,13318454,0,0.001810881,0.001718722,0.001477523,-0.2743388,-0.02370568,-9.75292,0,0,44.74901,1,1,8008,4003
1476,13334425,0,-0.0002634396,0.0006737557,0.0003234778,-0.2672926,-0.02851942,-9.771915,0,0,44.75085,1,1,8008,4003
1507,13336947,0,-0.0003044545,-0.0002709813,-0.0001232559,-0.2637157,-0.02581584,-9.772264,0,0,44.75113,1,1,8008,4003
1546,13340446,0,-0.0007016145,-0.0006707239,0.0005393373,-0.2622941,-0.02556579,-9.769269,0,0,44.75141,1,1,8008,4003
1549,13342544,0,-0.0007848628000000001,-7.842477999999999e-05,0.001379112,-0.2614593,-0.02749144,-9.767942,0,0,44.75161,1,1,8008,4003
1552,13345557,0,-0.0004236599,-0.001113357,0.001854983,-0.2580653,-0.03284445,-9.767357000000001,0,0,44.7519,1,1,8008,4003
1583,13347945,0,-0.0002788848,-0.001960527,0.001630506,-0.2563535,-0.03663019,-9.770580000000001,0,0,44.75219,1,1,8008,4003
1586,13350581,0,4.302729e-05,-0.001717425,0.0008096528,-0.2569585,-0.03718748,-9.774857000000001,0,0,44.75237,1,1,8008,4003
1590,13353455,0,-0.0006576214,-0.002082646,0.0007341699,-0.2592959,-0.03385683,-9.777041000000001,0,0,44.75266,1,1,8008,4003
1593,13355753,0,-0.001869249,-0.001563674,0.0009205203,-0.2608052,-0.03059272,-9.775046,0,0,44.75285,1,1,8008,4003
1624,13358477,0,-0.003135701,-0.0007487449,0.001579116,-0.2624131,-0.02656563,-9.768136999999999,0,0,44.75317,1,1,8008,4003
1627,13360750,0,-0.00366539,-0.0004886703,0.001539552,-0.2621545,-0.02559952,-9.764566,0,0,44.75339,1,1,8008,4003
1630,13363124,0,-0.003837428,-0.0002838249,0.00090158,-0.2625092,-0.02178567,-9.759988,0,0,44.75371,1,1,8008,4003
1633,13366015,0,-0.003561541,-0.000434727,0.0007100888000000001,-0.2636269,-0.01933858,-9.758037,0,0,44.75394,1,1,8008,4003
1664,13368247,0,-0.001656745,-0.0002362108,0.0004929386,-0.2656682,-0.01630166,-9.757781,0,0,44.7543,1,1,8008,4003
1667,13372298,0,0.0004489034,-4.305191e-05,0.0002516124,-0.2658532,-0.0120277,-9.758464,0,0,44.75463,1,1,8008,4003
1671,13373507,0,0.0007403054,-0.001310185,-4.662889e-05,-0.2653106,-0.009036611,-9.758368000000001,0,0,44.75498,1,1,8008,4003
1677,13377053,0,-8.947923e-05,-0.002285179,-4.371505e-05,-0.2643122,-0.007969412,-9.757147,0,0,44.75522,1,1,8008,4003
1708,13380716,0,-0.001038986,-0.0005438187,-4.68923e-05,-0.2610041,-0.008447397000000001,-9.751815000000001,0,0,44.75568,1,1,8008,4003
1711,13382891,0,-0.001139552,0.001374242,3.562514e-05,-0.258379,-0.009109045,-9.746218000000001,0,0,44.75603,1,1,8008,4003
1715,13384475,0,-0.00176188,0.001959763,-0.0003212497,-0.2588531,-0.009912993,-9.745620000000001,0,0,44.75626,1,1,8008,4003
1718,13386987,0,-0.003074551,0.001037819,-1.968825e-05,-0.2624678,-0.01452171,-9.748548,0,0,44.75659,1,1,8008,4003
1749,13389488,0,-0.004040136,0.0004838912,0.0003738781,-0.2646106,-0.01827367,-9.752217,0,0,44.75681,1,1,8008,4003
1752,13392250,0,-0.003316646,0.0006499253,1.814358e-05,-0.2662704,-0.02129216,-9.760028,0,0,44.75713,1,1,8008,4003
1755,13394982,0,-0.002498906,0.0001295886,-0.0002498558,-0.2677,-0.02203813,-9.764571,0,0,44.75743,1,1,8008,4003
1758,13397892,0,-0.002138268,5.552053e-05,-0.0003613638,-0.2682491,-0.02072557,-9.767842999999999,0,0,44.75776,1,1,8008,4003
1789,13400313,0,-0.0008020644,-0.0006410838,-0.000394157,-0.2671424,-0.01748015,-9.767595999999999,0,0,44.75801,1,1,8008,4003
1792,13402568,0,0.0001373484,-0.002352091,-0.0007447279999999999,-0.2635712,-0.0144343,-9.765686000000001,0,0,44.75826,1,1,8008,4003
1798,13405774,0,0.0004763461,-0.003017104,-0.0007328702,-0.2617263,-0.01197101,-9.763481000000001,0,0,44.75842,1,1,8008,4003
1801,13407907,0,-8.089736999999999e-05,-0.002418948,-0.0007441535,-0.2591112,-0.008508692,-9.761639000000001,0,0,44.75871,1,1,8008,4003
1832,13410366,0,-0.0009631845,-0.002142081,-0.0010171,-0.2583104,-0.007619708,-9.760327999999999,0,0,44.75885,1,1,8008,4003
1839,13413478,0,-0.001824535,-0.001920439,-0.0006839936999999999,-0.2581786,-0.009052269,-9.755243,0,0,44.75905,1,1,8008,4003
1842,13415585,0,-0.001813495,-0.001166112,-0.0006030019,-0.2581535,-0.009914439000000001,-9.752369,0,0,44.75925,1,1,8008,4003
1845,13418341,0,-0.002005318,-0.002048718,-0.0005606681,-0.2598145,-0.01205275,-9.749649,0,0,44.75959,1,1,8008,4003
1876,13420969,0,-0.001840914,-0.001617992,-0.001225922,-0.2631292,-0.01512647,-9.748847,0,0,44.7599,1,1,8008,4003
1879,13423453,0,-0.0007949722,-0.001245995,-0.001441286,-0.264125,-0.01641431,-9.750401,0,0,44.76004,1,1,8008,4003
1883,13426090,0,0.0008753894,-0.002521227,-0.001430064,-0.2658385,-0.018526,-9.752039,0,0,44.76024,1,1,8008,4003
1886,13429079,0,0.001191046,-0.003591738,-0.001482645,-0.2677942,-0.02095621,-9.752286,0,0,44.76038,1,1,8008,4003
1917,13432032,0,0.0001960156,-0.004349472,-0.0009856185999999999,-0.2720025,-0.02502991,-9.755086,0,0,44.7606,1,1,8008,4003
1920,13434103,0,-0.0004529547,-0.003654805,-0.00146727,-0.2736883,-0.02449801,-9.759491000000001,0,0,44.76081,1,1,8008,4003
1923,13436974,0,-0.0002086253,-0.003665985,-0.001644343,-0.2731293,-0.02315284,-9.762029,0,0,44.76095,1,1,8008,4003
1926,13439626,0,-0.0008313205,-0.00329581,-0.0009191418,-0.2731495,-0.02180067,-9.765412,0,0,44.76116,1,1,8008,4003
1957,13442344,0,-0.000769902,-0.002630225,0.0006033659,-0.2752601,-0.01994515,-9.768093,0,0,44.76136,1,1,8008,4003
1960,13444376,0,-0.0001116863,-0.002345052,0.00109084,-0.2769638,-0.01636121,-9.768996,0,0,44.7615,1,1,8008,4003
1964,13446955,0,0.00207717,-0.001603058,0.000419215,-0.2775582,-0.01136098,-9.768865999999999,0,0,44.76173,1,1,8008,4003
1967,13449564,0,0.003257135,-0.001656893,0.0004679955,-0.2776518,-0.01010955,-9.767343,0,0,44.76189,1,1,8008,4003
1998,13452441,0,0.00295351,-0.002046858,0.0004053468,-0.2797072,-0.008518635,-9.761976000000001,0,0,44.76214,1,1,8008,4003
2003,13457932,0,0.001774387,-0.0006435472999999999,0.0002146938,-0.2860711,-0.004653122,-9.759857,0,0,44.76256,1,1,8008,4003
2006,13460252,0,0.00292007,-0.0007967763,-0.001180396,-0.2877646,-0.006481968,-9.754376000000001,0,0,44.76281,1,1,8008,4003
2037,13463734,0,0.001792948,-0.0006384081,-0.0007274639,-0.2877758,-0.00793164,-9.750406,0,0,44.76298,1,1,8008,4003
2040,13465879,0,0.000246415,-0.001172447,0.0003260551,-0.2867443,-0.01127417,-9.744923,0,0,44.76323,1,1,8008,4003
2043,13467778,0,0.0007092112999999999,-0.0009956073,0.002128606,-0.2860176,-0.01499509,-9.742838000000001,0,0,44.76348,1,1,8008,4003
2047,13470471,0,0.00046236,-0.000435843,0.002953659,-0.2858927,-0.01638847,-9.744119,0,0,44.76365,1,1,8008,4003
2078,13472743,0,0.0002853937,-0.0009840916999999999,0.002255801,-0.2841853,-0.01721279,-9.747877000000001,0,0,44.76402,1,1,8008,4003
2081,13475428,0,0.0002591678,-0.001707018,0.001663412,-0.282264,-0.01727905,-9.751015000000001,0,0,44.76421,1,1,8008,4003
2084,13478315,0,0.0003611628,-0.001641057,0.0006897839,-0.2816172,-0.01606299,-9.753731,0,0,44.76459,1,1,8008,4003
2088,13480874,0,0.0003802974,-0.0005847081,0.0001855268,-0.2817469,-0.01364691,-9.754711,0,0,44.76477,1,1,8008,4003
2119,13483942,0,0.0001826236,0.00108026,-0.0001155809,-0.2813784,-0.009330478999999999,-9.756608999999999,0,0,44.76513,1,1,8008,4003
2122,13486011,0,-0.000352061,0.002472595,0.0005590319,-0.2794963,-0.007692578,-9.75719,0,0,44.76527,1,1,8008,4003
2125,13488286,0,-0.0001529789,0.003030071,0.001347484,-0.2757371,-0.009311298000000001,-9.756019,0,0,44.76553,1,1,8008,4003
2128,13491315,0,0.0004244341,0.002526241,0.001743867,-0.2748433,-0.01145968,-9.755058999999999,0,0,44.76572,1,1,8008,4003
2159,13493462,0,0.0004097934,0.001819015,0.001557693,-0.2746505,-0.01368918,-9.752307,0,0,44.7659,1,1,8008,4003
2162,13496734,0,0.0005625211,0.001970265,0.001159382,-0.2761568,-0.0152219,-9.748206,0,0,44.76609,1,1,8008,4003
2165,13498854,0,0.0008687277,0.002588025,0.0008510074,-0.2781928,-0.01600993,-9.743793,0,0,44.76632,1,1,8008,4003
2170,13501551,0,0.0007508324,0.002049788,0.001048752,-0.2827483,-0.01844767,-9.735455999999999,0,0,44.76651,1,1,8008,4003
2201,13503973,0,0.0002107901,0.0003002304,0.001003865,-0.2874396,-0.02035222,-9.733931999999999,0,0,44.76671,1,1,8008,4003
2204,13506559,0,0.0002274856,-0.0004341837,0.0007103083,-0.2899378,-0.02108232,-9.73573,0,0,44.76683,1,1,8008,4003
2207,13509729,0,0.001082517,-0.0007655191999999999,-0.0005424318,-0.2925837,-0.02147481,-9.739144,0,0,44.76703,1,1,8008,4003
2211,13511331,0,0.002124412,-0.000536273,-0.0006355547,-0.291958,-0.02214774,-9.740187000000001,0,0,44.76715,1,1,8008,4003
2242,13514350,0,0.002796282,0.0009469378,0.000865826,-0.2880688,-0.02424454,-9.741557,0,0,44.76735,1,1,8008,4003
2250,13516923,0,0.002134084,0.001970443,0.001196462,-0.2852187,-0.02592154,-9.74273,0,0,44.76749,1,1,8008,4003
2253,13519903,0,0.001209575,0.001955739,0.001294117,-0.2813252,-0.02788491,-9.746274,0,0,44.76768,1,1,8008,4003
2256,13521309,0,0.000453531,0.001662028,0.001431226,-0.2808876,-0.02830954,-9.748158999999999,0,0,44.76788,1,1,8008,4003
2287,13524127,0,-0.001012911,0.00217589,0.001235064,-0.2815336,-0.02974214,-9.75061,0,0,44.76807,1,1,8008,4003
2290,13527202,0,-0.001489748,0.002559639,0.001188023,-0.2809595,-0.02942774,-9.753284000000001,0,0,44.76817,1,1,8008,4003
2293,13529256,0,-0.001497833,0.002382688,2.094892e-05,-0.279258,-0.02913914,-9.756182000000001,0,0,44.76838,1,1,8008,4003
2297,13532127,0,-0.001364794,0.001667736,-0.00128429,-0.2779097,-0.02937281,-9.757785,0,0,44.76851,1,1,8008,4003
2328,13534599,0,-0.001120698,0.0002211216,-0.001731573,-0.2740828,-0.03061792,-9.758851999999999,0,0,44.76863,1,1,8008,4003
2331,13537559,0,-0.0003026797,-0.0002468637,-0.0008003524,-0.2681387,-0.03224785,-9.756708,0,0,44.76874,1,1,8008,4003
2334,13539927,0,-0.0004483825,0.0004907008,-0.0004238119,-0.2648393,-0.03351171,-9.75609,0,0,44.76881,1,1,8008,4003
2337,13542224,0,-0.001423417,0.0001119668,-0.001014662,-0.2621386,-0.0362447,-9.75506,0,0,44.76891,1,1,8008,4003
2368,13544996,0,-0.001802095,-0.001553854,-0.001402969,-0.2615308,-0.03640372,-9.755445,0,0,44.76898,1,1,8008,4003
2371,13547228,0,-0.002106795,-0.002438475,-0.001681015,-0.2625526,-0.03400064,-9.757614999999999,0,0,44.76908,1,1,8008,4003
2374,13550951,0,-0.002398607,-0.001394526,-0.001496242,-0.2643638,-0.03235241,-9.760206,0,0,44.76915,1,1,8008,4003
2377,13552163,0,-0.002104911,-0.001300779,-2.37092e-05,-0.2659007,-0.02963319,-9.764495,0,0,44.76927,1,1,8008,4003
2409,13555013,0,-0.0008479053,-0.001548228,5.367179e-06,-0.2672547,-0.02713622,-9.766783999999999,0,0,44.76944,1,1,8008,4003
2412,13557455,0,-0.0003672336,-0.00152212,-0.0003374315,-0.268416,-0.02601591,-9.767222,0,0,44.76956,1,1,8008,4003
2415,13560934,0,-0.0004638534,-0.002100163,-0.0001818393,-0.2695053,-0.02431275,-9.766295,0,0,44.76974,1,1,8008,4003
2418,13563603,0,-0.001084431,-0.001957485,-1.40142e-05,-0.2696575,-0.02300698,-9.766973999999999,0,0,44.76982,1,1,8008,4003
2421,13565210,0,-0.0009976850999999999,-0.001999566,-0.0003650303,-0.2684869,-0.02042022,-9.770391999999999,0,0,44.76994,1,1,8008,4003
2452,13567506,0,-0.0001833859,-0.002875224,-3.939578e-05,-0.2688296,-0.01920625,-9.772197999999999,0,0,44.77006,1,1,8008,4003
2455,13570437,0,-0.0001945351,-0.002489321,-0.0002489589,-0.2687533,-0.01951834,-9.771305999999999,0,0,44.77014,1,1,8008,4003
2458,13573239,0,0.0007445842,-0.001778054,9.485139e-05,-0.2688748,-0.02058933,-9.767673,0,0,44.77029,1,1,8008,4003
2462,13576287,0,0.0009320801,-0.001399493,2.671106e-05,-0.2691719,-0.02120079,-9.76482,0,0,44.77039,1,1,8008,4003
2465,13577846,0,0.0007990719,-0.001298495,-2.293351e-05,-0.2704974,-0.02103421,-9.758879,0,0,44.77055,1,1,8008,4003
2496,13580363,0,0.0002064783,-0.001406462,-8.813283999999999e-05,-0.2708476,-0.0214893,-9.755139,0,0,44.77068,1,1,8008,4003
2499,13582727,0,-0.0006325907,-0.001634178,-0.0004359167,-0.2695376,-0.02136837,-9.752413000000001,0,0,44.77077,1,1,8008,4003
2503,13585967,0,-0.0008176962,-0.001399983,-0.000348381,-0.2679638,-0.02110914,-9.750522999999999,0,0,44.77081,1,1,8008,4003
2506,13588336,0,-0.00040439,-0.0007083199,-0.0004101985,-0.2659272,-0.02011543,-9.746071000000001,0,0,44.77085,1,1,8008,4003
2537,13590860,0,-0.0006053602,-0.0004519712,-0.001339901,-0.2629555,-0.01894855,-9.744092,0,0,44.7709,1,1,8008,4003
2540,13593312,0,-0.0006759983,-0.0001503987,-0.001766436,-0.2629039,-0.0180603,-9.744675000000001,0,0,44.77094,1,1,8008,4003
2543,13597008,0,-0.000294305,-0.0005611262,-0.00143689,-0.2623871,-0.01673301,-9.747472,0,0,44.771,1,1,8008,4003
2546,13598760,0,0.0004683303,-0.0005898539,-0.001390728,-0.2613282,-0.01523229,-9.750852999999999,0,0,44.77103,1,1,8008,4003
2577,13601340,0,0.001589822,8.50331e-05,-0.001138567,-0.2605187,-0.01194688,-9.754106,0,0,44.7711,1,1,8008,4003
2582,13603982,0,0.000958801,0.0004925672,-0.0003268784,-0.2610013,-0.01117401,-9.752755000000001,0,0,44.77115,1,1,8008,4003
2586,13606328,0,0.0002681123,0.0004337689,-0.0006483254,-0.2615894,-0.01207847,-9.749371999999999,0,0,44.77119,1,1,8008,4003
2589,13609717,0,-0.0004829299,0.0005033129,-0.001003886,-0.2624836,-0.01644842,-9.742319,0,0,44.77127,1,1,8008,4003
2620,13612362,0,-0.0005289994,-0.0002323614,-0.001468564,-0.2644424,-0.02062502,-9.738208999999999,0,0,44.77133,1,1,8008,4003
2623,13614444,0,-0.0004199888,-0.0004844138,-0.001414706,-0.2657844,-0.02203926,-9.736371,0,0,44.77135,1,1,8008,4003
2626,13617277,0,-0.001079848,-0.000345742,-0.001235432,-0.2660119,-0.02407195,-9.738076,0,0,44.77138,1,1,8008,4003
2634,13620128,0,-0.001870648,-5.081277e-05,-0.001036762,-0.2653297,-0.02388241,-9.739461,0,0,44.77141,1,1,8008,4003
2665,13622923,0,-0.001991147,0.0002960079,-5.02086e-05,-0.26589,-0.01918653,-9.739141,0,0,44.7715,1,1,8008,4003
2668,13625498,0,-0.002178609,0.001032033,-8.673943e-05,-0.266969,-0.01230536,-9.738296,0,0,44.77161,1,1,8008,4003
2672,13627513,0,-0.001154865,0.0008227684,-0.000136938,-0.2680213,-0.009338318999999999,-9.738984,0,0,44.7717,1,1,8008,4003
2675,13630333,0,0.0009488579,-0.0006123692,-0.0008318786,-0.2693143,-0.007679665,-9.741319000000001,0,0,44.77184,1,1,8008,4003
2706,13632490,0,0.0009664234,-0.001107921,-0.001917392,-0.2692745,-0.006929277,-9.744458,0,0,44.77195,1,1,8008,4003
2709,13635441,0,0.001090132,-3.781056e-05,-0.002012003,-0.2670161,-0.006786086,-9.749907,0,0,44.77205,1,1,8008,4003
2712,13638260,0,0.001805344,0.0006819873,-0.002367281,-0.2652428,-0.00789112,-9.751149,0,0,44.77212,1,1,8008,4003
2715,13640521,0,0.001557468,0.001017281,-0.001737653,-0.2643052,-0.0122459,-9.749129999999999,0,0,44.77227,1,1,8008,4003
2746,13642994,0,0.001427944,0.001125409,-0.0008963246,-0.2631727,-0.01796421,-9.747643,0,0,44.77245,1,1,8008,4003
2749,13645766,0,0.001184495,0.001136353,-0.0004996677,-0.2616004,-0.02232961,-9.748747,0,0,44.77253,1,1,8008,4003
2753,13648471,0,0.001220961,-4.931771e-05,5.291135e-06,-0.2586173,-0.02681302,-9.752006,0,0,44.7727,1,1,8008,4003
2756,13651047,0,0.00129572,-0.0005676941,-0.0001369638,-0.2560129,-0.02881714,-9.753987,0,0,44.77289,1,1,8008,4003
2787,13653295,0,0.0009492707,-0.0007040849,-0.0008360554,-0.2522162,-0.03282173,-9.758084999999999,0,0,44.77306,1,1,8008,4003
2790,13656248,0,-0.000576214,-0.0007956136,0.0003074837,-0.2473822,-0.03701369,-9.764222999999999,0,0,44.77319,1,1,8008,4003
2794,13658333,0,-0.002088159,-0.001032937,0.0009079881,-0.2453184,-0.0380112,-9.768146,0,0,44.77332,1,1,8008,4003
2799,13667119,0,-0.003245494,-0.001613958,0.001685002,-0.2486552,-0.03483379,-9.769617,0,0,44.77374,1,1,8008,4003
2830,13669739,0,-0.003224871,-0.001663131,0.001365638,-0.2507634,-0.03314682,-9.77134,0,0,44.77385,1,1,8008,4003
2833,13672453,0,-0.003081141,-0.001453308,0.002044117,-0.2539999,-0.03080103,-9.773286000000001,0,0,44.77404,1,1,8008,4003
2836,13675121,0,-0.002165341,-0.001541389,0.001955467,-0.2557108,-0.02922996,-9.772760999999999,0,0,44.77415,1,1,8008,4003
2839,13677263,0,-0.0006297588,-0.001615109,0.001652225,-0.2573475,-0.02658534,-9.77097,0,0,44.77428,1,1,8008,4003
2870,13679728,0,-0.0006003408,-0.002104616,0.001243473,-0.2597986,-0.02425646,-9.768087,0,0,44.77437,1,1,8008,4003
2875,13682243,0,-0.001181316,-0.002046559,0.0005466633,-0.2646714,-0.02077836,-9.760109,0,0,44.7745,1,1,8008,4003
2878,13685014,0,-0.001047708,-0.001699425,0.0003683275,-0.2669342,-0.01892466,-9.752737,0,0,44.77459,1,1,8008,4003
2881,13687537,0,6.667001e-05,-0.0007767867,0.0006109554,-0.2694131,-0.01564885,-9.742079,0,0,44.77472,1,1,8008,4003
2912,13690341,0,-0.0004466983,-0.0004418089,0.001811515,-0.2716768,-0.01302733,-9.735442000000001,0,0,44.77487,1,1,8008,4003
2915,13692582,0,-0.001039286,-0.0007162194,0.002331527,-0.2735716,-0.01208448,-9.731133,0,0,44.77499,1,1,8008,4003
2918,13695442,0,-0.0019756,-0.001615455,0.001072505,-0.277953,-0.01047308,-9.727785000000001,0,0,44.77515,1,1,8008,4003
2921,13697499,0,-0.001687347,-0.001411559,0.0004130844,-0.2808762,-0.009473601999999999,-9.727871,0,0,44.77523,1,1,8008,4003
2952,13700484,0,-0.0009501128,-0.0006993438,-0.000299068,-0.2846958,-0.01039133,-9.732276000000001,0,0,44.77533,1,1,8008,4003
2956,13702308,0,-0.0008096545,-0.0003390477,-0.0006980012,-0.2858079,-0.01401867,-9.736108,0,0,44.77538,1,1,8008,4003
2959,13705250,0,-0.001195851,-9.176262e-05,-0.0008656449,-0.2869915,-0.018734,-9.743747000000001,0,0,44.77547,1,1,8008,4003
2962,13708253,0,-0.001657717,-0.0001057479,-0.0005929864,-0.2869238,-0.01934818,-9.749064000000001,0,0,44.77553,1,1,8008,4003
2993,13710506,0,-0.001481444,-0.0008882168,0.0002543706,-0.2851775,-0.01798338,-9.756524000000001,0,0,44.77562,1,1,8008,4003
2998,13713348,0,-0.0003193751,-0.001471682,-0.0003893289,-0.283003,-0.01834098,-9.757814,0,0,44.77571,1,1,8008,4003
3001,13715532,0,-0.0003050252,-0.001770106,-9.838416e-05,-0.2818305,-0.01906198,-9.756755,0,0,44.77577,1,1,8008,4003
3004,13718493,0,-0.001073442,-0.001882038,0.000477747,-0.2783381,-0.02097546,-9.75224,0,0,44.77586,1,1,8008,4003
3035,13720874,0,-0.0004380071,-0.001472662,1.85553e-05,-0.2742285,-0.02156834,-9.745692999999999,0,0,44.77597,1,1,8008,4003
3042,13723879,0,-0.000447864,-0.0006530384,-0.001618065,-0.2722008,-0.02098421,-9.74227,0,0,44.77607,1,1,8008,4003
3045,13726352,0,-0.0007161115999999999,-0.0004767806,-0.002582127,-0.2711084,-0.01986312,-9.736694999999999,0,0,44.77624,1,1,8008,4003
3049,13729281,0,-0.001063263,-0.0009964815,-0.002215001,-0.2714501,-0.01875098,-9.734431000000001,0,0,44.77634,1,1,8008,4003
3080,13732220,0,-0.001504491,-0.001695379,-0.001636445,-0.2742517,-0.01739339,-9.733415000000001,0,0,44.77649,1,1,8008,4003
3084,13734244,0,-0.0009848902000000001,-0.002019288,-0.00221153,-0.279245,-0.0131887,-9.734016,0,0,44.77664,1,1,8008,4003
3087,13736894,0,-9.795165e-05,-0.001977083,-0.002355977,-0.281965,-0.009384919,-9.736758,0,0,44.77679,1,1,8008,4003
3090,13739112,0,-3.677639e-05,-0.002575601,-0.003199219,-0.2856808,-0.00631887,-9.742374999999999,0,0,44.77693,1,1,8008,4003
3121,13742286,0,-0.001891555,-0.002382628,-0.002364674,-0.2877842,-0.005090203,-9.747705,0,0,44.7771,1,1,8008,4003
3124,13744331,0,-0.002077691,-0.001965827,-0.002240097,-0.2881211,-0.00431575,-9.750107,0,0,44.77721,1,1,8008,4003
3127,13747099,0,-0.00223581,-0.001346452,-0.00232313,-0.2874124,-0.003575539,-9.751403,0,0,44.77733,1,1,8008,4003
3130,13749536,0,-0.001563819,-0.0012656,-0.002061251,-0.2853981,-0.002675966,-9.752549,0,0,44.77751,1,1,8008,4003
3161,13751872,0,-0.0007382124000000001,-0.001437661,-0.001504261,-0.2846715,-0.003093514,-9.752034999999999,0,0,44.77773,1,1,8008,4003
3165,13755486,0,0.0001651303,-0.001405313,-0.002106588,-0.2832703,-0.003200616,-9.752018,0,0,44.77789,1,1,8008,4003
3168,13756938,0,0.0004072078,-0.001553574,-0.001950433,-0.2791258,-0.003115961,-9.752062,0,0,44.77805,1,1,8008,4003
3171,13759861,0,0.0005207351,-0.001405902,-0.002116024,-0.2770588,-0.002515285,-9.752635,0,0,44.77823,1,1,8008,4003
3202,13762206,0,0.001172586,-0.0005479372,-0.003275004,-0.2775357,-0.002902301,-9.755716,0,0,44.77843,1,1,8008,4003
3205,13765837,0,0.001270321,0.0004573183,-0.002994187,-0.2800829,-0.005912808,-9.758361000000001,0,0,44.77854,1,1,8008,4003
3208,13767116,0,0.00131224,0.0003523181,-0.002157535,-0.2810769,-0.008176146,-9.761243,0,0,44.77856,1,1,8008,4003
3211,13772907,0,0.001513701,0.001527455,-0.001171643,-0.2863117,-0.01754061,-9.766832000000001,0,0,44.77857,1,1,8008,4003
3243,13775291,0,0.00152855,0.002022587,-0.001818224,-0.2883796,-0.0216104,-9.766885,0,0,44.77851,1,1,8008,4003
3246,13778356,0,0.0012589,0.001768899,-0.001816071,-0.28749,-0.02282667,-9.766394,0,0,44.77844,1,1,8008,4003
3249,13780273,0,-2.736543e-05,0.001444149,-0.001312257,-0.2844938,-0.02432653,-9.762568,0,0,44.77832,1,1,8008,4003
3252,13782990,0,-0.0005124625,0.00113944,-0.001174701,-0.2826734,-0.02571818,-9.760001000000001,0,0,44.77826,1,1,8008,4003
3285,13785432,0,0.0004349243,0.001233546,0.0001453403,-0.2812867,-0.02448833,-9.757626,0,0,44.7782,1,1,8008,4003
3289,13788512,0,0.001649642,0.001267405,-0.0006914181,-0.2804192,-0.02179366,-9.752437,0,0,44.77818,1,1,8008,4003
3292,13790761,0,0.00189703,0.0005294011,-0.001495404,-0.2793824,-0.02036862,-9.749701,0,0,44.77818,1,1,8008,4003
3295,13793320,0,0.000365167,-0.0001078945,-0.002000416,-0.2776132,-0.01829927,-9.746865,0,0,44.77821,1,1,8008,4003
3326,13796484,0,-0.0002759843,-0.0006435271,-0.002172348,-0.2764075,-0.01685879,-9.745115999999999,0,0,44.77824,1,1,8008,4003
3329,13798366,0,0.0008082148,-2.505728e-05,-0.001519791,-0.2730407,-0.01490432,-9.742068,0,0,44.7783,1,1,8008,4003
3332,13801114,0,0.00198039,0.0003450176,-0.0004441219,-0.2723918,-0.01450382,-9.739461,0,0,44.77835,1,1,8008,4003
3335,13802921,0,0.001870469,-0.0002102236,0.0002430672,-0.272617,-0.01304109,-9.735827,0,0,44.77846,1,1,8008,4003
3366,13805473,0,0.0001846421,-0.0009438098,0.0001398339,-0.2734038,-0.0126009,-9.733506999999999,0,0,44.77851,1,1,8008,4003
3370,13808431,0,-0.001578699,-0.001030401,-0.0008748294,-0.2731469,-0.01321623,-9.731101000000001,0,0,44.77857,1,1,8008,4003
3374,13810536,0,-0.001344745,0.0004615823,-0.0008987937,-0.2718585,-0.01498875,-9.732163,0,0,44.7786,1,1,8008,4003
3377,13813477,0,-0.002046495,0.001528391,-0.0002196107,-0.2690367,-0.01934532,-9.736293,0,0,44.77863,1,1,8008,4003
3408,13815869,0,-0.001555163,0.002059958,9.883539e-05,-0.2664378,-0.0235185,-9.739831000000001,0,0,44.77866,1,1,8008,4003
3411,13818427,0,-0.001694787,0.002132989,-0.0003630013,-0.2668324,-0.02551574,-9.742089999999999,0,0,44.77868,1,1,8008,4003
3414,13821075,0,-0.001875531,0.002479397,-0.0006919036,-0.2672645,-0.02607331,-9.74633,0,0,44.77871,1,1,8008,4003
3418,13822888,0,-0.001540554,0.002581287,-0.0006998709,-0.2662696,-0.02608083,-9.747596,0,0,44.77874,1,1,8008,4003
3453,13826260,0,-0.001447762,0.001140545,-0.0001310481,-0.2643366,-0.02625523,-9.747112,0,0,44.77877,1,1,8008,4003
3457,13828131,0,-0.00183341,-0.0001057982,0.000518792,-0.2623803,-0.02535599,-9.743919,0,0,44.77883,1,1,8008,4003
3460,13830566,0,-0.001205027,0.0003220254,0.001124206,-0.2625523,-0.02423527,-9.742761,0,0,44.77887,1,1,8008,4003
3463,13833464,0,-0.0004820176,0.0006418048,0.002674457,-0.263543,-0.02381135,-9.743002000000001,0,0,44.77892,1,1,8008,4003
3494,13836281,0,-0.001507119,0.0006078314,0.00156299,-0.2638968,-0.02395423,-9.743199000000001,0,0,44.77898,1,1,8008,4003
3498,13838272,0,-0.001893644,0.0002869124,0.0008938389,-0.2630526,-0.02283404,-9.742607,0,0,44.77902,1,1,8008,4003
3501,13840884,0,-0.001767463,0.0005021777,0.001176203,-0.2632208,-0.02074401,-9.740783,0,0,44.77906,1,1,8008,4003
3505,13843572,0,-0.001290667,0.0009633187,0.001574288,-0.266075,-0.01751308,-9.736689999999999,0,0,44.77912,1,1,8008,4003
3536,13846120,0,-0.0008048618,0.001334138,0.001763481,-0.2671664,-0.01518508,-9.734071999999999,0,0,44.77922,1,1,8008,4003
3539,13849238,0,-0.0002534908,0.001281765,0.002253668,-0.2661904,-0.01431604,-9.735009,0,0,44.77928,1,1,8008,4003
3542,13851306,0,0.0001310648,0.001594317,0.001828186,-0.2641177,-0.01634583,-9.739464,0,0,44.77937,1,1,8008,4003
3547,13853860,0,-0.0001674395,0.001248081,0.001756523,-0.2628886,-0.01944328,-9.740945999999999,0,0,44.77945,1,1,8008,4003
3578,13856562,0,-0.001268858,0.0003772459,0.0008783628,-0.2635318,-0.02316247,-9.740914,0,0,44.77952,1,1,8008,4003
3582,13858426,0,-0.001300292,0.0001833095,-0.0005324582,-0.2646675,-0.02423685,-9.741804,0,0,44.77956,1,1,8008,4003
3585,13862212,0,-0.0003363089,7.532399e-05,-0.002154293,-0.2657754,-0.02348087,-9.744631,0,0,44.77959,1,1,8008,4003
3588,13863756,0,-4.702789e-05,-0.001396847,-0.002717869,-0.2673184,-0.02190309,-9.745412,0,0,44.77958,1,1,8008,4003
3619,13866326,0,-0.0002282869,-0.002862245,-0.001478568,-0.2670323,-0.01884428,-9.744415,0,0,44.77953,1,1,8008,4003
3622,13871110,0,-0.000481157,-0.003410802,0.0004797856,-0.264423,-0.007709091,-9.744522,0,0,44.77945,1,1,8008,4003
3625,13874537,0,0.000760071,-0.003257244,0.0007437756,-0.2617951,-0.004221285,-9.741612999999999,0,0,44.77941,1,1,8008,4003
3628,13876372,0,0.001533868,-0.003232814,0.0001482591,-0.2595624,-0.001545293,-9.738189999999999,0,0,44.77938,1,1,8008,4003
3659,13878749,0,0.001785825,-0.002433279,-0.001169722,-0.2608677,-0.002821851,-9.738780999999999,0,0,44.77932,1,1,8008,4003
3662,13881759,0,0.001258829,-0.002019004,-0.001424237,-0.261947,-0.003912069,-9.738688,0,0,44.77929,1,1,8008,4003
3665,13884094,0,0.001638269,-0.001942812,-0.001170241,-0.2634883,-0.005951097,-9.736938,0,0,44.77928,1,1,8008,4003
3668,13886482,0,0.002439245,-0.002063642,-0.00126737,-0.2656387,-0.009635127,-9.736516999999999,0,0,44.77932,1,1,8008,4003
3700,13889494,0,0.002537705,-0.001278655,-0.001552439,-0.2689153,-0.01670773,-9.737408,0,0,44.77939,1,1,8008,4003
3703,13891534,0,0.00220966,-0.0004654152,-0.001957871,-0.2697079,-0.02049715,-9.737214,0,0,44.77944,1,1,8008,4003
3706,13894301,0,0.001101911,0.0001644331,-0.001926357,-0.2707764,-0.02289764,-9.736171000000001,0,0,44.77955,1,1,8008,4003
3709,13896513,0,0.000896194,0.0004872636,-0.002050572,-0.2713349,-0.02313757,-9.737113000000001,0,0,44.7796,1,1,8008,4003
3740,13898984,0,0.001141041,0.0007142337,-0.00276801,-0.2688717,-0.02297108,-9.739477000000001,0,0,44.77964,1,1,8008,4003
3743,13901942,0,0.0005207500000000001,0.0002831435,-0.003447809,-0.2670684,-0.02275896,-9.738821,0,0,44.77965,1,1,8008,4003
3746,13903956,0,-0.0005861694,0.000418988,-0.003777172,-0.2647633,-0.02149482,-9.734166,0,0,44.77965,1,1,8008,4003
3749,13906297,0,-0.0007255673,0.0008961723,-0.003907799,-0.2628175,-0.01981289,-9.729507999999999,0,0,44.77963,1,1,8008,4003
3781,13909102,0,0.0001329807,2.551115e-05,-0.004496112,-0.2599412,-0.01488503,-9.726099,0,0,44.77957,1,1,8008,4003
3784,13911848,0,0.0006547559,-0.001070476,-0.004071363,-0.2591119,-0.01046836,-9.724622,0,0,44.77954,1,1,8008,4003
3787,13914264,0,0.0002667915,-0.0008989708,-0.002064283,-0.2605055,-0.003509618,-9.724895,0,0,44.7795,1,1,8008,4003
3790,13916537,0,-6.06838e-05,-0.0008219596,-0.001835217,-0.2616754,-0.0001593238,-9.725576999999999,0,0,44.77946,1,1,8008,4003
3821,13918992,0,-0.0002054658,-0.001646384,-0.002317918,-0.2629808,0.000922188,-9.723959000000001,0,0,44.7794,1,1,8008,4003
3824,13921423,0,0.000183379,-0.001831612,-0.002680243,-0.2638683,-0.0008790426,-9.721730000000001,0,0,44.77937,1,1,8008,4003
3829,13924316,0,8.716609e-05,-0.0007083534,-0.002131077,-0.262559,-0.005858559,-9.718728,0,0,44.77938,1,1,8008,4003
3836,13927276,0,-0.0004366716,0.0002474445,-0.001320833,-0.2598825,-0.0102666,-9.718648,0,0,44.7794,1,1,8008,4003
3867,13929752,0,-0.0003029044,0.0003612306,-0.0009583333,-0.2565629,-0.01609206,-9.721904,0,0,44.77943,1,1,8008,4004
3871,13932224,0,0.001166254,0.000578227,-0.002130746,-0.2565309,-0.02008371,-9.726798,0,0,44.77945,1,1,8008,4004
3874,13935113,0,0.001553019,0.001092955,-0.002801978,-0.2576104,-0.02117556,-9.729849,0,0,44.77946,1,1,8008,4004
3877,13937838,0,0.0004013028,0.002117855,-0.003651884,-0.2598641,-0.02193399,-9.734188,0,0,44.77951,1,1,8008,4004
3908,13940322,0,-0.000349389,0.00197679,-0.00387567,-0.2636188,-0.02252158,-9.738708000000001,0,0,44.77956,1,1,8008,4004
3911,13942537,0,-0.000265434,4.597201e-05,-0.003095665,-0.266248,-0.02120597,-9.743512000000001,0,0,44.7796,1,1,8008,4004
3914,13945700,0,0.0001725218,-0.0005602437,-0.002568973,-0.2658425,-0.02012636,-9.748523,0,0,44.77962,1,1,8008,4004
3917,13948255,0,0.0003580702,0.0002702739,-0.001087864,-0.2640431,-0.01742447,-9.757097,0,0,44.77965,1,1,8008,4004
3948,13950925,0,-0.0008783141,0.0002064318,-0.0008792495,-0.262677,-0.01672388,-9.762646,0,0,44.77962,1,1,8008,4004
3952,13953738,0,-0.0007598529,0.0007347000999999999,-0.001309681,-0.2623627,-0.01764303,-9.764571999999999,0,0,44.77958,1,1,8008,4004
3955,13956115,0,-0.0007399964,0.001474788,-0.001564673,-0.265402,-0.01828546,-9.766006000000001,0,0,44.77946,1,1,8008,4004
3958,13958800,0,-0.001019588,0.0008039768,-0.001423899,-0.2683984,-0.01860153,-9.765903,0,0,44.77939,1,1,8008,4004
3989,13961767,0,-0.002188976,-1.623377e-05,-0.0009487679,-0.2699238,-0.01872861,-9.763845999999999,0,0,44.77928,1,1,8008,4004
3994,13963959,0,-0.002794974,7.336356e-06,-0.0008594108,-0.2667602,-0.01789281,-9.762084,0,0,44.77922,1,1,8008,4004
3997,13966313,0,-0.002791119,0.0005393806,-0.00057056,-0.2654859,-0.01830642,-9.761532000000001,0,0,44.77919,1,1,8008,4004
4000,13969129,0,-0.002353902,0.0003421137,0.0004735126,-0.2654202,-0.02076627,-9.764172,0,0,44.7792,1,1,8008,4004
4031,13977454,0,-0.0007885812,-0.002042166,0.001535005,-0.264079,-0.03102359,-9.764896,0,0,44.77955,1,1,8008,4004
4034,13979917,0,-0.001176588,-0.002352774,0.001062131,-0.2630524,-0.03187257,-9.762060999999999,0,0,44.77971,1,1,8008,4004
4065,13982746,0,-0.0006396075,-0.001618922,0.0003619257,-0.2616521,-0.03158704,-9.759872,0,0,44.7798,1,1,8008,4004
4068,13985317,0,0.0008847624,-0.0009064011,-0.0002001648,-0.2581988,-0.03003899,-9.756354999999999,0,0,44.77995,1,1,8008,4004
4071,13987484,0,0.0004943680999999999,-0.0009830263,0.0002886274,-0.2574787,-0.02889217,-9.75577,0,0,44.78009,1,1,8008,4004
4075,13989928,0,-0.0004471193,-0.0005302206,0.001323681,-0.2585292,-0.02691942,-9.755846999999999,0,0,44.78025,1,1,8008,4004
4106,13992229,0,-0.0005515713,-0.0005757302,0.001490033,-0.2580877,-0.02472291,-9.755537,0,0,44.78033,1,1,8008,4004
4109,13995205,0,-3.774264e-05,-0.001412605,0.002261567,-0.258861,-0.02349959,-9.754586,0,0,44.78048,1,1,8008,4004
4112,13998022,0,0.0001303294,-0.001444016,0.002670074,-0.2600133,-0.02518454,-9.753173,0,0,44.78059,1,1,8008,4004
4116,13999969,0,-0.0004715992,-0.0009310579,0.002283093,-0.2613414,-0.029028,-9.753078,0,0,44.78078,1,1,8008,4004
4147,14002448,0,-0.0008560087,-0.0007291829,0.002600436,-0.2638555,-0.03006961,-9.753754000000001,0,0,44.78088,1,1,8008,4004
4150,14004806,0,-0.0005841751,-0.0005461026,0.002782529,-0.2704142,-0.02957491,-9.754073999999999,0,0,44.78103,1,1,8008,4004
4153,14007364,0,0.0008014663,-0.0009889349,0.001663773,-0.2747484,-0.03062429,-9.752189,0,0,44.78113,1,1,8008,4004
4156,14010486,0,0.001639264,-0.001503537,8.995595e-05,-0.279119,-0.03257042,-9.750127000000001,0,0,44.78127,1,1,8008,4004
4187,14013179,0,0.0005238255,-0.001603074,0.0002961494,-0.2823896,-0.0327439,-9.750524,0,0,44.78142,1,1,8008,4004
4190,14015523,0,0.0004514241,-0.0007467611,0.001254513,-0.2840953,-0.03193529,-9.749936999999999,0,0,44.78154,1,1,8008,4004
4193,14018103,0,0.0001167282,0.0006772749,0.001695667,-0.2852695,-0.03037231,-9.746604,0,0,44.78179,1,1,8008,4004
4197,14020707,0,0.0003860054,0.0006309001,0.0008945888,-0.283931,-0.02861189,-9.742642,0,0,44.78191,1,1,8008,4004
4228,14023451,0,0.0003161535,0.0004507369,-3.616698e-06,-0.2783398,-0.02391883,-9.735942,0,0,44.78211,1,1,8008,4004
4231,14026076,0,-1.254519e-06,7.505915e-05,-0.0002008469,-0.2748933,-0.02059927,-9.734211999999999,0,0,44.78221,1,1,8008,4004
4235,14027760,0,-0.0004687271,5.209204e-05,1.12527e-05,-0.2726012,-0.01552149,-9.737133999999999,0,0,44.78241,1,1,8008,4004
4242,14030846,0,-0.0008308712999999999,0.000433056,0.0007322172,-0.2721646,-0.01425676,-9.740988,0,0,44.78251,1,1,8008,4004
4275,14033201,0,-0.001841436,0.001057744,0.00148433,-0.2701282,-0.0140082,-9.746492,0,0,44.7827,1,1,8008,4004
4278,14036261,0,-0.001417074,0.00230083,0.0009624813000000001,-0.2675427,-0.01417208,-9.748393999999999,0,0,44.78283,1,1,8008,4004
4281,14038885,0,-0.000141495,0.00217273,9.184724000000001e-05,-0.2663708,-0.01389721,-9.749567000000001,0,0,44.78289,1,1,8008,4004
4284,14040926,0,0.001853424,0.0004480868,-0.0005324922,-0.2650436,-0.01510805,-9.750451,0,0,44.78299,1,1,8008,4004
4315,14043441,0,0.002070704,-0.000476429,-0.0004693216,-0.2640503,-0.0161184,-9.751670000000001,0,0,44.78302,1,1,8008,4004
4318,14046056,0,0.0008614477,-0.0003678122,-0.0006724175,-0.2618302,-0.016844,-9.757536,0,0,44.78306,1,1,8008,4004
4321,14048842,0,0.0003023959,1.060312e-05,-0.0006344658,-0.2601353,-0.01556599,-9.761805000000001,0,0,44.78308,1,1,8008,4004
4325,14051248,0,0.0001301586,-0.0001953994,-0.0002827752,-0.2586418,-0.01202036,-9.763757999999999,0,0,44.78312,1,1,8008,4004
4356,14053505,0,0.0004007713,-0.0001383829,-0.0002657248,-0.2597855,-0.008665361,-9.761937,0,0,44.78313,1,1,8008,4004
4360,14055936,0,0.0007683052,-0.0008914674,0.0001756676,-0.2623582,-0.006331407,-9.758689,0,0,44.78316,1,1,8008,4004
4365,14058933,0,0.0008658742000000001,-0.001031876,0.0001154451,-0.2625774,-0.005688948,-9.757894,0,0,44.78318,1,1,8008,4004
4368,14061313,0,0.0009741334,-0.0005096221,-0.0009579994,-0.2596685,-0.00564751,-9.759186,0,0,44.7832,1,1,8008,4004
4399,14064115,0,0.0009517149,0.0001616367,-0.001623833,-0.2567872,-0.007139185,-9.759161000000001,0,0,44.7832,1,1,8008,4004
4402,14066427,0,0.0009994428,0.0007220908,-0.001664202,-0.2561778,-0.008075344,-9.757828999999999,0,0,44.7832,1,1,8008,4004
4405,14068806,0,0.001172794,0.0001656703,-0.001227313,-0.2564972,-0.009294919,-9.757087,0,0,44.7832,1,1,8008,4004
4409,14071126,0,0.0005549079,-0.0001659133,-0.001798414,-0.2560891,-0.01076867,-9.757298,0,0,44.7832,1,1,8008,4004
4440,14077885,0,0.0008613621,-0.0004231336,-0.001317819,-0.253195,-0.01441951,-9.758476999999999,0,0,44.78323,1,1,8008,4004
4443,14079084,0,0.0007211808,3.173089e-05,-0.001285127,-0.2534385,-0.01608494,-9.760135999999999,0,0,44.78325,1,1,8008,4004
4446,14081962,0,0.00106558,0.0001132364,-0.001045181,-0.2541793,-0.01773756,-9.760138,0,0,44.78326,1,1,8008,4004
4477,14084918,0,0.0009045067,0.0008250083,-0.002226499,-0.2559288,-0.02210113,-9.757771,0,0,44.78329,1,1,8008,4004
4480,14086577,0,0.0003426904,0.001286002,-0.002412672,-0.2596259,-0.02473626,-9.755115999999999,0,0,44.78331,1,1,8008,4004
4483,14090060,0,0.0003241394,0.001033679,-0.002271845,-0.2666273,-0.02675881,-9.750916,0,0,44.78331,1,1,8008,4004
4488,14091937,0,-0.0001130275,0.002104927,-0.002487225,-0.2700448,-0.02709266,-9.750563,0,0,44.78332,1,1,8008,4004
4519,14094090,0,4.398475e-05,0.002863059,-0.003064386,-0.2728752,-0.02627921,-9.751087,0,0,44.78335,1,1,8008,4004
4522,14097303,0,3.488477e-05,0.002065384,-0.003088486,-0.2732117,-0.02419121,-9.750914,0,0,44.78337,1,1,8008,4004
4525,14099119,0,0.0001183858,0.001353321,-0.002948642,-0.2715074,-0.01895172,-9.753024999999999,0,0,44.78341,1,1,8008,4004
4528,14101738,0,0.000112067,0.001492486,-0.003064693,-0.2709252,-0.01546162,-9.754883,0,0,44.78343,1,1,8008,4004
4559,14104728,0,-0.0003218638,0.002185801,-0.002880167,-0.271344,-0.01399242,-9.757220999999999,0,0,44.78347,1,1,8008,4004
4562,14106723,0,-0.0006475462,0.001805116,-0.00209979,-0.2713335,-0.01346035,-9.759707000000001,0,0,44.78347,1,1,8008,4004
4565,14109541,0,-0.001334714,0.0005883294,-0.00109074,-0.2715074,-0.01178196,-9.767609,0,0,44.78347,1,1,8008,4004
4570,14111957,0,-0.001640928,0.0004921978,-0.0006606941,-0.2713362,-0.009513041999999999,-9.773914,0,0,44.78347,1,1,8008,4004
4601,14114279,0,-0.0007059568,0.001051896,-0.0006511837,-0.2703873,-0.007071656,-9.779591999999999,0,0,44.78347,1,1,8008,4004
4604,14117117,0,-1.796549e-05,0.0009504107,-0.0003514171,-0.2692373,-0.007834298999999999,-9.778527,0,0,44.78347,1,1,8008,4004
4607,14119772,0,0.0003408806,-0.0004659147,0.0005956127000000001,-0.2680151,-0.01273721,-9.771196,0,0,44.78347,1,1,8008,4004
4611,14121987,0,-0.0002496786,-0.00143683,0.0006599327,-0.2679559,-0.01559901,-9.767150000000001,0,0,44.78347,1,1,8008,4004
4642,14124250,0,-0.0006475726,-0.001720262,0.0007499942,-0.2700827,-0.01832321,-9.763358,0,0,44.78347,1,1,8008,4004
4645,14126716,0,-0.0001424204,-0.001679241,0.001657238,-0.2712845,-0.01884444,-9.762319,0,0,44.78347,1,1,8008,4004
4648,14129747,0,0.0006028393,-0.001023261,0.001754647,-0.2722679,-0.02023312,-9.760184000000001,0,0,44.78347,1,1,8008,4004
4655,14131937,0,0.0004678912,-0.0007935517,0.0009159061,-0.2728782,-0.02239529,-9.757338000000001,0,0,44.78347,1,1,8008,4004
4686,14134934,0,-0.0008736539,-0.0008605444,0.0006391308,-0.2738793,-0.02574928,-9.754702999999999,0,0,44.78347,1,1,8008,4004
4689,14136993,0,-0.001613998,-0.0006630349,0.0009358943,-0.2740358,-0.02683652,-9.754469,0,0,44.78347,1,1,8008,4004
4692,14138960,0,-0.002024227,0.0001925905,0.0009323981,-0.274727,-0.02610441,-9.752580999999999,0,0,44.78347,1,1,8008,4004
4696,14142120,0,-0.0003293445,0.0007237458,0.0004930823,-0.275158,-0.02506075,-9.751863999999999,0,0,44.78347,1,1,8008,4004
4727,14144305,0,0.0009182466,0.0007721233,0.0007474781999999999,-0.2739149,-0.02590558,-9.752606,0,0,44.78347,1,1,8008,4004
4730,14147534,0,0.001268961,-0.0002000023,0.001712256,-0.270567,-0.02517186,-9.754894999999999,0,0,44.78347,1,1,8008,4004
4734,14149582,0,0.0005235947,-0.0003977023,0.002233756,-0.2681963,-0.02198048,-9.756838999999999,0,0,44.78346,1,1,8008,4004
4737,14152095,0,-0.0008993273,-0.000358673,0.001782884,-0.265357,-0.01620542,-9.757396,0,0,44.78343,1,1,8008,4004
4768,14154893,0,-0.0007750622,-0.0004006675,0.001828336,-0.265231,-0.01329497,-9.755338999999999,0,0,44.78341,1,1,8008,4004
4771,14157332,0,-0.000690136,-0.0007258283,0.002287094,-0.2671391,-0.01075472,-9.750901000000001,0,0,44.78338,1,1,8008,4004
4774,14160235,0,-0.0009157822,-0.001090217,0.002405501,-0.2686054,-0.009236843,-9.748201,0,0,44.78336,1,1,8008,4004
4778,14161962,0,-0.001478191,-0.001599872,0.002644633,-0.2710556,-0.006474047,-9.749993999999999,0,0,44.78333,1,1,8008,4004
4809,14164466,0,-0.001760306,-0.001435667,0.003015138,-0.2719657,-0.004895165,-9.752943,0,0,44.78331,1,1,8008,4004
4812,14167321,0,-0.0006447953,-0.001449977,0.002346997,-0.2709947,-0.004909363,-9.756755,0,0,44.78328,1,1,8008,4004
4815,14169899,0,-4.292818e-05,-0.001410748,0.001334002,-0.268482,-0.004820283,-9.756824,0,0,44.78326,1,1,8008,4004
4818,14174581,0,-0.001513408,-0.0005011323,0.001177168,-0.2655202,6.414107e-05,-9.752655000000001,0,0,44.7832,1,1,8008,4004
4849,14177328,0,-0.001744375,3.43404e-05,0.001794019,-0.2649834,0.0002443065,-9.748595,0,0,44.78318,1,1,8008,4004
4852,14180000,0,-0.002032514,0.0005913728,0.001964758,-0.2645478,-0.001001741,-9.743402,0,0,44.78316,1,1,8008,4004
4856,14185347,0,-0.001482613,0.0007067352,0.0009200634,-0.2706254,-0.006953525,-9.733587999999999,0,0,44.7831,1,1,8008,4004
4887,14187737,0,-1.676973e-05,-0.0001452522,0.0008059678,-0.2757423,-0.005403295,-9.732661,0,0,44.7831,1,1,8008,4004
4890,14190641,0,0.0004583116,4.568093e-05,0.0006491783,-0.2791859,-0.004443486,-9.731544,0,0,44.7831,1,1,8008,4004
4894,14192947,0,0.0001225814,0.00065634,0.0009953004000000001,-0.2852359,-0.005503936,-9.729907000000001,0,0,44.7831,1,1,8008,4004
4897,14195842,0,3.132746e-05,0.0009052212,0.0007084285,-0.2879953,-0.006801375,-9.730788,0,0,44.7831,1,1,8008,4004
4928,14198509,0,-0.0002607826,0.001335743,0.0004792423,-0.2884719,-0.007896291999999999,-9.736291,0,0,44.78312,1,1,8008,4004
4931,14200919,0,0.0003237317,0.0009303883,0.0003473299,-0.2875504,-0.01095884,-9.744305000000001,0,0,44.78313,1,1,8008,4004
4934,14203392,0,-0.0005495247,0.0007253214,0.0008285619,-0.2854573,-0.01356886,-9.749568999999999,0,0,44.78318,1,1,8008,4004
4937,14206061,0,-0.0005402312,-0.0001291225,0.0006203936,-0.2814403,-0.01684945,-9.758632,0,0,44.78321,1,1,8008,4004
4968,14208742,0,0.0002488101,0.0001707196,-0.0002006379,-0.2782711,-0.01955478,-9.764654999999999,0,0,44.78323,1,1,8008,4004
4971,14211404,0,0.0003860971,0.0008542186,-0.0009256788,-0.2727506,-0.02399768,-9.770777000000001,0,0,44.78326,1,1,8008,4004
4975,14213385,0,0.0002402162,0.001327012,-0.002252011,-0.268209,-0.02657657,-9.772046,0,0,44.7833,1,1,8008,4004
4978,14216003,0,-0.0004327807,0.002407777,-0.004204696,-0.2613938,-0.03131671,-9.767344,0,0,44.78338,1,1,8008,4004
5009,14218488,0,-0.001502617,0.002181724,-0.003871184,-0.2566659,-0.03360573,-9.761763999999999,0,0,44.78343,1,1,8008,4004
5012,14221305,0,-0.003315351,0.0008387706,-0.002018326,-0.2527096,-0.03218479,-9.751559,0,0,44.78345,1,1,8008,4004
5015,14223776,0,-0.003133935,0.000197845,-0.001706367,-0.2523759,-0.03070782,-9.746041,0,0,44.78348,1,1,8008,4004
5018,14226012,0,-0.002378473,0.0001165014,-0.002206483,-0.2538241,-0.03110366,-9.742506000000001,0,0,44.78351,1,1,8008,4004
5049,14228235,0,-0.002724949,0.0007022051000000001,-0.001723806,-0.2546547,-0.03187073,-9.742632,0,0,44.78353,1,1,8008,4004
5052,14231050,0,-0.003538599,-0.0001174654,-0.001109966,-0.2550094,-0.03029784,-9.744344999999999,0,0,44.78355,1,1,8008,4004
5061,14233900,0,-0.002686009,-0.0008005192,-0.001405424,-0.2555448,-0.02902607,-9.747678000000001,0,0,44.78358,1,1,8008,4004
5064,14236331,0,-5.261311e-05,-0.001580201,-0.002310194,-0.2551165,-0.02802668,-9.752077,0,0,44.78363,1,1,8008,4004
5095,14238772,0,0.0006820372,-0.00104335,-0.002560548,-0.2521355,-0.0282997,-9.750367000000001,0,0,44.78372,1,1,8008,4004
5098,14241348,0,-0.0004893947,-0.001096107,-0.002834988,-0.2493277,-0.02650017,-9.749281999999999,0,0,44.78379,1,1,8008,4004
5102,14243978,0,-0.0008566906,-0.001113016,-0.00389705,-0.246924,-0.02403233,-9.749136999999999,0,0,44.78397,1,1,8008,4004
5105,14246476,0,-0.0005006312,-0.0009107909,-0.004538745,-0.2470352,-0.02306146,-9.750603999999999,0,0,44.78407,1,1,8008,4004
5136,14249897,0,-0.000282619,-0.001157128,-0.004360439,-0.2480026,-0.02190107,-9.757925999999999,0,0,44.78429,1,1,8008,4004
5139,14252296,0,-0.001120002,-0.00240073,-0.003902606,-0.2511953,-0.02358635,-9.763989,0,0,44.78447,1,1,8008,4004
5143,14254290,0,-0.001911016,-0.003059842,-0.003931159,-0.2552534,-0.02449594,-9.766082000000001,0,0,44.78459,1,1,8008,4004
5146,14257028,0,-0.002410858,-0.002977092,-0.003742307,-0.2629568,-0.02351927,-9.765492999999999,0,0,44.78483,1,1,8008,4004
5177,14259540,0,-0.001676928,-0.002088979,-0.00312856,-0.2684015,-0.02324346,-9.763517,0,0,44.78496,1,1,8008,4004
5182,14262480,0,-0.001104997,-0.002019366,-0.002103417,-0.2745323,-0.02657648,-9.761415,0,0,44.78515,1,1,8008,4004
5185,14265001,0,-0.002162504,-0.002345763,-0.001478013,-0.2782007,-0.029697,-9.762703,0,0,44.78526,1,1,8008,4004
5188,14266503,0,-0.003867879,-0.002484041,-0.0009149589,-0.2830881,-0.0299581,-9.767282,0,0,44.78543,1,1,8008,4004
5219,14269141,0,-0.004078945,-0.002531701,-0.0007228622,-0.2849587,-0.02819678,-9.769242999999999,0,0,44.78552,1,1,8008,4004
5222,14272218,0,-0.002288667,-0.002373781,-0.001254257,-0.2847269,-0.02524644,-9.768303,0,0,44.78566,1,1,8008,4004
5226,14277550,0,0.0006804039,-0.001942315,-0.00166369,-0.2779444,-0.02103924,-9.763505,0,0,44.78592,1,1,8008,4004
5259,14280085,0,0.0005588834,-0.00121634,-0.001402591,-0.2716512,-0.01974871,-9.761324,0,0,44.78604,1,1,8008,4004
5262,14282757,0,0.0001556283,-0.0004373087,-0.001133895,-0.2680859,-0.01860036,-9.760757999999999,0,0,44.78617,1,1,8008,4004
5267,14285583,0,-0.0005281205,0.0003024484,-0.0006996591,-0.264704,-0.0183088,-9.758476,0,0,44.78629,1,1,8008,4004
5270,14287911,0,-0.001318254,0.0004182146,-0.000576834,-0.2636389,-0.01904924,-9.75582,0,0,44.78636,1,1,8008,4004
5301,14290358,0,-0.002150333,-0.0002387575,0.0001118144,-0.2639648,-0.02068402,-9.754170999999999,0,0,44.7864,1,1,8008,4004
5304,14292980,0,-0.001974926,-0.00118233,0.0008002229,-0.26476,-0.02219844,-9.7529,0,0,44.78643,1,1,8008,4004
5307,14296519,0,-0.001715848,-0.002055001,0.001799993,-0.2652996,-0.02403716,-9.751241,0,0,44.78648,1,1,8008,4004
5310,14298324,0,-0.001662708,-0.0009096598,0.00130137,-0.2659488,-0.02670926,-9.748763,0,0,44.78654,1,1,8008,4004
5341,14300984,0,-0.002316973,0.0002528115,0.0006945182,-0.2671092,-0.02929645,-9.747667,0,0,44.78661,1,1,8008,4004
5344,14303458,0,-0.002294552,6.693514000000001e-05,0.001380281,-0.2695497,-0.02913557,-9.747515999999999,0,0,44.78669,1,1,8008,4004
5348,14306164,0,-0.001003387,4.680308e-05,0.001756426,-0.2761095,-0.02575415,-9.750926,0,0,44.78679,1,1,8008,4004
5351,14309114,0,-0.0006735037,-0.0001624351,0.002062073,-0.2813719,-0.02101951,-9.754274000000001,0,0,44.78686,1,1,8008,4004
5382,14312064,0,0.0001720245,0.0004529656,0.002094588,-0.2868795,-0.0136981,-9.759411,0,0,44.78693,1,1,8008,4004
5385,14314331,0,0.002211788,0.001158569,0.001884658,-0.291515,-0.0110866,-9.767204,0,0,44.78698,1,1,8008,4004
5388,14317045,0,0.002575872,0.001217992,0.00239661,-0.2945649,-0.009683594,-9.77009,0,0,44.78706,1,1,8008,4004
5391,14319613,0,0.002052021,0.0007415182,0.002811225,-0.2969145,-0.006721113,-9.771858999999999,0,0,44.78717,1,1,8008,4004
5422,14322320,0,0.001646116,0.0006789593999999999,0.002403026,-0.2963019,-0.002953693,-9.769531000000001,0,0,44.78728,1,1,8008,4004
5425,14324983,0,0.001867481,0.001526504,0.002318381,-0.2961097,-0.002855669,-9.766498,0,0,44.78735,1,1,8008,4004
5429,14326985,0,0.001797853,0.001258168,0.001237701,-0.2962855,-0.006388141,-9.76239,0,0,44.78745,1,1,8008,4004
5432,14330081,0,0.00142663,0.0006099844,0.0003811895,-0.2954417,-0.008541015000000001,-9.76084,0,0,44.78748,1,1,8008,4004
5463,14332845,0,0.001211833,-0.0002103063,0.0004643971,-0.2945535,-0.01034895,-9.762657000000001,0,0,44.78756,1,1,8008,4004
5466,14334961,0,0.000925826,-7.557318e-05,0.001431062,-0.2940793,-0.01135689,-9.764419,0,0,44.78761,1,1,8008,4004
5474,14338106,0,0.0003263454,0.0007792224,0.001788138,-0.2931189,-0.01322012,-9.761649,0,0,44.78769,1,1,8008,4004
5477,14340007,0,-0.0004765262,0.001525074,0.001260244,-0.2920035,-0.01400512,-9.758877,0,0,44.78773,1,1,8008,4004
5508,14342756,0,-0.001251108,0.0007861339,0.00134618,-0.292049,-0.01400778,-9.755207,0,0,44.78781,1,1,8008,4004
5511,14344615,0,-0.0008800367,0.0004658561,0.001271891,-0.2913538,-0.01248704,-9.752606,0,0,44.78786,1,1,8008,4004
5514,14347130,0,0.0008798323,0.0003255737,0.0009894808999999999,-0.2897863,-0.01100941,-9.747551,0,0,44.78793,1,1,8008,4004
5517,14350433,0,0.002011118,0.0003336707,0.001965966,-0.2907038,-0.01072573,-9.744577,0,0,44.78798,1,1,8008,4004
5548,14352530,0,0.002059475,-0.000873828,0.003616838,-0.2912729,-0.009162158,-9.741496,0,0,44.78807,1,1,8008,4004
5551,14355883,0,0.002005702,-0.001447472,0.002992059,-0.2908878,-0.007359353,-9.740694,0,0,44.78813,1,1,8008,4004
5555,14357915,0,0.002326813,-0.001416163,0.002026195,-0.2905927,-0.007874147,-9.741493999999999,0,0,44.78828,1,1,8008,4004
5558,14360989,0,0.002012895,-0.001031604,0.001103733,-0.2900926,-0.009456320000000001,-9.741218999999999,0,0,44.78838,1,1,8008,4004
5589,14363341,0,0.0007634214,-0.0007146887,0.0001914638,-0.2878515,-0.0121521,-9.74212,0,0,44.78852,1,1,8008,4004
5594,14366268,0,0.0002836285,-0.0007711037,-0.001386228,-0.2846846,-0.01399894,-9.743187000000001,0,0,44.78859,1,1,8008,4004
5597,14368559,0,-9.419857999999999e-06,-0.0004713956,-0.001283086,-0.2837323,-0.01466051,-9.746131,0,0,44.78865,1,1,8008,4004
5600,14372068,0,-0.0004512288,0.0006162077,-0.0001495076,-0.2847309,-0.01479246,-9.750636,0,0,44.78875,1,1,8008,4004
5603,14373875,0,-0.0001074065,0.001015628,0.0002071274,-0.2845137,-0.01399235,-9.751333000000001,0,0,44.78881,1,1,8008,4004
5634,14376428,0,0.0007009173,0.000973594,0.0007907813000000001,-0.2819093,-0.01283026,-9.748504000000001,0,0,44.7889,1,1,8008,4004
5638,14378999,0,0.0002442212,0.0001503982,-0.0005706193,-0.2794063,-0.01188612,-9.747638,0,0,44.78899,1,1,8008,4004
5641,14381495,0,-0.0004002498,-0.0003894343,-0.001620442,-0.2780227,-0.01183278,-9.750349999999999,0,0,44.78907,1,1,8008,4004
5644,14384990,0,-0.001672961,-0.001344672,-0.002244508,-0.2759915,-0.01076296,-9.757789000000001,0,0,44.78912,1,1,8008,4004
5647,14389512,0,0.000839623,-0.0007715669,-0.00290824,-0.2766721,-0.005974837,-9.765191,0,0,44.78916,1,1,8008,4004
5678,14391900,0,0.0009965231000000001,9.791658e-05,-0.002616044,-0.2786981,-0.003948659,-9.767185,0,0,44.78919,1,1,8008,4004
5681,14394338,0,0.0004042696,0.000264257,-0.002334044,-0.28056,-0.003754397,-9.76778,0,0,44.78924,1,1,8008,4004
5684,14397422,0,0.001320442,-0.0001818152,-0.002229184,-0.2830677,-0.00332282,-9.765575999999999,0,0,44.78935,1,1,8008,4004
5687,14399960,0,0.002844251,-0.000110076,-0.001975017,-0.2839668,-0.003805491,-9.763631999999999,0,0,44.78943,1,1,8008,4004
5718,14402261,0,0.004158481,2.540561e-05,-0.001999815,-0.2839381,-0.008963729,-9.761651000000001,0,0,44.78962,1,1,8008,4004
5722,14404918,0,0.001875373,0.001776195,-0.003086681,-0.2827435,-0.01413561,-9.760638,0,0,44.78972,1,1,8008,4004
5725,14407519,0,0.0001217382,0.003041836,-0.003385263,-0.2822217,-0.01536817,-9.760262000000001,0,0,44.78978,1,1,8008,4004
5728,14410464,0,4.965145e-05,0.003100203,-0.002813713,-0.2813008,-0.01695767,-9.758849,0,0,44.7899,1,1,8008,4004
5759,14413396,0,-0.0003544184,0.00233641,-0.002501969,-0.2794502,-0.02158453,-9.758407,0,0,44.78999,1,1,8008,4004
5763,14415566,0,-0.000894099,0.001853132,-0.002169795,-0.2789014,-0.02358635,-9.757818,0,0,44.79008,1,1,8008,4004
5766,14418097,0,-0.001624127,0.002110509,-0.002371273,-0.2786309,-0.02062581,-9.759482,0,0,44.79016,1,1,8008,4004
5771,14420950,0,-0.00138587,0.002163148,-0.002151119,-0.2772455,-0.01657565,-9.759513,0,0,44.79023,1,1,8008,4004
5802,14423734,0,-0.0009982318999999999,0.0009085655999999999,-0.001529072,-0.2744802,-0.01405279,-9.758991999999999,0,0,44.79033,1,1,8008,4004
5805,14426115,0,-0.001295798,0.0009879807000000001,-0.001784663,-0.2720413,-0.01339423,-9.760301,0,0,44.79045,1,1,8008,4004
5808,14428948,0,-0.00161095,0.001143304,-0.001931407,-0.2701413,-0.01335989,-9.76296,0,0,44.79058,1,1,8008,4004
5811,14431029,0,-0.0006506102,0.001511781,-0.001325681,-0.2675263,-0.01418855,-9.766667999999999,0,0,44.79078,1,1,8008,4004
5842,14433527,0,0.0007881417,0.001683535,-0.001113055,-0.2679195,-0.01579015,-9.767512999999999,0,0,44.79086,1,1,8008,4004
5846,14436839,0,0.001873367,0.001384518,-0.001010419,-0.2692854,-0.02040064,-9.765677999999999,0,0,44.791,1,1,8008,4004
5849,14438455,0,0.001792716,0.0008241605,-0.001325074,-0.2681217,-0.02346468,-9.764082,0,0,44.79108,1,1,8008,4004
5856,14441254,0,0.0008275001,1.927731e-05,-0.001859389,-0.2664801,-0.02596366,-9.766132000000001,0,0,44.79123,1,1,8008,4004
5887,14444060,0,0.0003855731,-0.0002722355,-0.001584956,-0.2671398,-0.02753069,-9.768642,0,0,44.79129,1,1,8008,4004
5891,14445977,0,-6.574348e-05,0.0003806499,-0.002088265,-0.2685409,-0.02874535,-9.770504000000001,0,0,44.79135,1,1,8008,4004
5894,14448913,0,0.0004514807,0.001460318,-0.001447871,-0.2684724,-0.0286926,-9.770841000000001,0,0,44.79139,1,1,8008,4004
5899,14451118,0,0.0001539674,0.001441148,-0.001064358,-0.2697821,-0.029597,-9.767822000000001,0,0,44.7915,1,1,8008,4004
5930,14454087,0,-0.0003575392,0.0009216851,-0.001338269,-0.270632,-0.03097187,-9.763577,0,0,44.79155,1,1,8008,4004
5933,14456354,0,-0.000513491,0.0004378339,-0.001156378,-0.268786,-0.02927147,-9.753598,0,0,44.79163,1,1,8008,4004
5936,14458259,0,-0.0004836524,0.0002515842,-0.001139951,-0.2661021,-0.02630466,-9.746707000000001,0,0,44.79169,1,1,8008,4004
5940,14461360,0,0.000492798,0.0009127403,-0.0002247113,-0.2608726,-0.02207125,-9.73935,0,0,44.79175,1,1,8008,4004
5971,14463529,0,6.817784e-06,0.001766117,-0.0001686247,-0.2559577,-0.02019311,-9.737484,0,0,44.79181,1,1,8008,4004
5975,14466315,0,-0.0005845943,0.001502717,0.0001668554,-0.253733,-0.02031417,-9.738493,0,0,44.79184,1,1,8008,4004
5978,14468919,0,-0.000670958,0.001427026,0.001520111,-0.2518825,-0.01787339,-9.742114000000001,0,0,44.79184,1,1,8008,4004
5981,14471687,0,-0.0006280743000000001,0.001685826,0.001747329,-0.2506413,-0.01620997,-9.744465999999999,0,0,44.79181,1,1,8008,4004
6012,14474503,0,-0.0009551611,0.001474762,0.001961645,-0.2502884,-0.01626147,-9.745125,0,0,44.79174,1,1,8008,4004
6015,14476968,0,-0.001228736,0.0008212937,0.001775713,-0.2512231,-0.0177337,-9.744895,0,0,44.79166,1,1,8008,4004
6018,14479270,0,-0.001095277,-0.0007796776,0.001736257,-0.2528734,-0.02119863,-9.747479,0,0,44.79152,1,1,8008,4004
6021,14481574,0,-0.000806385,-0.001295161,0.001534352,-0.2547494,-0.02426155,-9.750584999999999,0,0,44.79143,1,1,8008,4004
6052,14484444,0,-0.0008899277,-0.0003048638,0.001074065,-0.2568604,-0.02836667,-9.751993000000001,0,0,44.79132,1,1,8008,4004
6057,14489329,0,-0.001958368,-0.001589686,0.001743449,-0.2550134,-0.03283238,-9.749002000000001,0,0,44.79118,1,1,8008,4004
6060,14491517,0,-0.002281087,-0.002560006,0.001773453,-0.2550006,-0.03286676,-9.747429,0,0,44.79112,1,1,8008,4004
6091,14495529,0,-0.0009997261000000001,-0.002776335,0.001613078,-0.2544337,-0.02979586,-9.747063000000001,0,0,44.79103,1,1,8008,4004
6094,14497543,0,-0.000174112,-0.002404311,0.001638462,-0.2525299,-0.02411984,-9.746746999999999,0,0,44.79094,1,1,8008,4004
6098,14499954,0,-0.0001276756,-0.002354902,0.001421826,-0.2517556,-0.01986208,-9.746665999999999,0,0,44.79088,1,1,8008,4004
6101,14502255,0,-0.001027032,-0.003282378,0.0008448267,-0.2554097,-0.0158492,-9.748309000000001,0,0,44.79079,1,1,8008,4004
6132,14504443,0,-0.0009096592,-0.003325958,0.0007239347,-0.2595502,-0.01421139,-9.749529000000001,0,0,44.79075,1,1,8008,4004
6135,14507334,0,-0.0002411254,-0.003042763,0.0004370322,-0.2648663,-0.01200505,-9.749506999999999,0,0,44.79065,1,1,8008,4004
6138,14510319,0,-0.000509626,-0.002510601,0.0001864233,-0.2661411,-0.01162969,-9.751367,0,0,44.79057,1,1,8008,4004
6141,14512132,0,-0.001930523,-0.002056889,0.0003515043,-0.2662428,-0.01267468,-9.757754,0,0,44.79044,1,1,8008,4004
6172,14514438,0,-0.002840464,-0.002036697,0.0007722506,-0.2657456,-0.0149509,-9.76361,0,0,44.79036,1,1,8008,4004
6175,14517233,0,-0.002383487,-0.002056593,0.0003515775,-0.2642004,-0.01863573,-9.770241,0,0,44.79029,1,1,8008,4004
6179,14520218,0,-0.001426194,-0.002357536,0.0001584431,-0.2636207,-0.02209096,-9.771701999999999,0,0,44.79026,1,1,8008,4004
6182,14522472,0,-0.0007215492,-0.001422927,-0.0003551749,-0.2636181,-0.02617082,-9.770511000000001,0,0,44.79026,1,1,8008,4004
6213,14525484,0,-0.001909341,-0.001059874,-0.0007411828,-0.2630298,-0.02717206,-9.763347,0,0,44.79034,1,1,8008,4004
6216,14526945,0,-0.002869693,-0.001143559,-0.0008778654000000001,-0.2627107,-0.02643518,-9.756320000000001,0,0,44.79044,1,1,8008,4004
6219,14529801,0,-0.003610476,-0.001421348,-0.0004498957,-0.2630292,-0.0256724,-9.749998,0,0,44.79049,1,1,8008,4004
6222,14532504,0,-0.004084437,-0.0009600974,-0.0005313026,-0.263774,-0.02550725,-9.74437,0,0,44.7906,1,1,8008,4004
6253,14535243,0,-0.003214743,-0.0001672837,-0.0002721009,-0.2636872,-0.02605434,-9.739444000000001,0,0,44.79071,1,1,8008,4004
6256,14538123,0,-0.002445541,-9.160082999999999e-05,-0.0006214712,-0.2635782,-0.02552154,-9.737918000000001,0,0,44.79076,1,1,8008,4004
6260,14540284,0,-0.0008392544,-0.000141438,-0.0008557001,-0.2658944,-0.02321367,-9.738609,0,0,44.79079,1,1,8008,4004
6267,14542674,0,-0.0007859626,-0.0004871567,6.987576e-05,-0.2671777,-0.02008198,-9.739165,0,0,44.79079,1,1,8008,4004
6298,14545910,0,-0.00156667,-0.0001478977,0.0008698185999999999,-0.2657073,-0.01311351,-9.739044,0,0,44.79073,1,1,8008,4004
6301,14547535,0,-0.001469906,0.0002563683,0.000188326,-0.264504,-0.009671389000000001,-9.737412000000001,0,0,44.79068,1,1,8008,4004
6304,14550573,0,-0.001456825,0.0007290374,-0.0006323475,-0.2650339,-0.008190347000000001,-9.734105,0,0,44.79058,1,1,8008,4004
6307,14552337,0,-0.001992497,0.000851594,-0.0007066813,-0.2678934,-0.008762321,-9.733052000000001,0,0,44.79052,1,1,8008,4004
6338,14555628,0,-0.002287694,0.0004857529,0.0001878369,-0.272987,-0.008444864999999999,-9.736435999999999,0,0,44.79044,1,1,8008,4004
6341,14557558,0,-0.001601654,0.0007473358,0.0006775832,-0.2752332,-0.007701989,-9.741301,0,0,44.79041,1,1,8008,4004
6346,14560109,0,0.0008353973,0.001119396,0.0001723696,-0.2758445,-0.007203704,-9.746902,0,0,44.79039,1,1,8008,4004
6349,14562917,0,0.00209779,0.0005530672,0.0003667062,-0.2769877,-0.007407393,-9.750095999999999,0,0,44.79041,1,1,8008,4004
6380,14565327,0,0.002062879,-0.0003448428,0.0009065475,-0.2820086,-0.008092726,-9.756629999999999,0,0,44.79047,1,1,8008,4004
6383,14568264,0,0.0007383836,-0.000371896,0.0004073663,-0.2848111,-0.008287719000000001,-9.757462,0,0,44.79053,1,1,8008,4004
6387,14570357,0,-0.0008438008,-0.000828525,-0.0007906575,-0.2863978,-0.009794083,-9.755005000000001,0,0,44.79061,1,1,8008,4004
6390,14572511,0,-0.001096151,-0.0008421868,-0.002056776,-0.2869261,-0.0109877,-9.754828,0,0,44.79066,1,1,8008,4004
6421,14575376,0,-0.001039163,-0.0001470608,-0.003055143,-0.2919673,-0.01227097,-9.755406000000001,0,0,44.79071,1,1,8008,4004
6425,14577762,0,-0.001062842,0.0004107608,-0.00314708,-0.296192,-0.01333602,-9.756443000000001,0,0,44.79073,1,1,8008,4004
6428,14580361,0,-0.0007757402,0.0010741,-0.003533844,-0.2989974,-0.01348074,-9.756679999999999,0,0,44.79072,1,1,8008,4004
6431,14585120,0,0.000425517,-0.0006162905,-0.002262178,-0.2961301,-0.01666926,-9.755223000000001,0,0,44.79066,1,1,8008,4004
6462,14590899,0,0.001303022,0.0002896124,-0.0006648312,-0.2907225,-0.01970109,-9.755542,0,0,44.79055,1,1,8008,4004
6466,14593503,0,0.001976349,0.0007770394,-0.0003973836,-0.2875879,-0.02153704,-9.756489,0,0,44.79052,1,1,8008,4004
6469,14595858,0,0.001909968,4.636665e-08,-0.0008831829999999999,-0.2862851,-0.02398342,-9.756513999999999,0,0,44.79052,1,1,8008,4004
6500,14598253,0,0.001621367,-0.0006090073000000001,-0.001542097,-0.2867146,-0.02745491,-9.756793999999999,0,0,44.79053,1,1,8008,4004
6503,14601263,0,0.001545147,-0.0004428487,-0.001611569,-0.2869493,-0.0287653,-9.756999,0,0,44.79054,1,1,8008,4004
6506,14603237,0,0.0008749285,-0.00100048,-0.001699774,-0.286129,-0.02893032,-9.756042000000001,0,0,44.79056,1,1,8008,4004
6509,14606074,0,0.000368022,-0.0006488619,-0.001620372,-0.2849801,-0.02844089,-9.755679000000001,0,0,44.79056,1,1,8008,4004
6540,14608252,0,-0.000491514,-6.304354e-05,-0.001532106,-0.2838162,-0.02634254,-9.756174,0,0,44.79056,1,1,8008,4004
6543,14611259,0,-0.0001338376,0.0008263348999999999,-0.0004404726,-0.2830075,-0.02333086,-9.756563999999999,0,0,44.79059,1,1,8008,4004
6547,14613583,0,0.000111561,0.001287466,-0.000559326,-0.281791,-0.02229784,-9.757377999999999,0,0,44.79062,1,1,8008,4004
6550,14616259,0,-0.0001776795,0.001524474,-0.0007393703,-0.2817605,-0.02022237,-9.758888000000001,0,0,44.79063,1,1,8008,4004
6581,14619048,0,-0.001006957,0.0007026696,-2.940069e-05,-0.2828367,-0.01863782,-9.759719,0,0,44.79058,1,1,8008,4004
6584,14620950,0,-0.0006399241,2.136457e-05,0.0005691788,-0.282886,-0.01715672,-9.758749999999999,0,0,44.79054,1,1,8008,4004
6588,14624001,0,-0.0006384146,-6.391470000000001e-05,0.0002563539,-0.2812395,-0.01578959,-9.755751999999999,0,0,44.7905,1,1,8008,4004
6591,14626238,0,-0.000179796,0.0005088394,-0.0003194606,-0.2785824,-0.01597433,-9.749784999999999,0,0,44.79043,1,1,8008,4004
6622,14628333,0,0.0001398776,0.0005496935,-0.0005540078,-0.2790729,-0.01776649,-9.747947,0,0,44.7904,1,1,8008,4004
6625,14631274,0,-0.0003053578,0.0007744341,-0.0009115117,-0.2807757,-0.01983953,-9.747614,0,0,44.79038,1,1,8008,4004
6629,14633917,0,-0.001087356,0.00132597,-0.001013733,-0.2806544,-0.02121138,-9.748664,0,0,44.79036,1,1,8008,4004
6632,14636914,0,-0.001248442,0.001422348,-0.001243564,-0.2777104,-0.0230583,-9.749063,0,0,44.79035,1,1,8008,4004
6663,14639283,0,-0.000614753,0.001425165,-0.001398067,-0.2743707,-0.02371744,-9.750636,0,0,44.7904,1,1,8008,4004
6666,14641924,0,-0.0009223499999999999,0.001350544,-0.0007162711999999999,-0.2719808,-0.02505019,-9.750848,0,0,44.79045,1,1,8008,4004
6674,14644509,0,-0.001567046,-0.0002905218,0.0001173031,-0.2694475,-0.02553732,-9.748385000000001,0,0,44.79054,1,1,8008,4004
6677,14647077,0,-0.001219034,-0.0007139255,0.0004801327,-0.2688802,-0.02309047,-9.743807,0,0,44.79068,1,1,8008,4004
6708,14650055,0,-0.0006603677000000001,-0.0007925954,0.0006592083,-0.2700421,-0.02137523,-9.741572,0,0,44.79073,1,1,8008,4004
6711,14651875,0,0.0003820854,-0.001276395,0.001131653,-0.2702042,-0.0205866,-9.740913000000001,0,0,44.79076,1,1,8008,4004
6716,14654570,0,0.000311022,-5.748581e-05,0.001214733,-0.2695209,-0.01921056,-9.741889,0,0,44.79078,1,1,8008,4004
6719,14657018,0,0.0001407969,8.215207e-05,0.001292605,-0.2689952,-0.01671336,-9.741611000000001,0,0,44.79076,1,1,8008,4004
6750,14660020,0,9.237857e-05,-0.0001476033,0.001274858,-0.2706481,-0.01520277,-9.740277000000001,0,0,44.79069,1,1,8008,4004
6753,14662362,0,-0.0001259892,-0.001239166,-0.0002565225,-0.2736644,-0.01826882,-9.740539999999999,0,0,44.79055,1,1,8008,4004
6757,14664465,0,-0.0004600396,-0.001643117,-0.001090779,-0.2747016,-0.02103888,-9.741301999999999,0,0,44.79047,1,1,8008,4004
6760,14666756,0,-0.0001316293,-0.001484208,-0.001457372,-0.274087,-0.02483128,-9.741118,0,0,44.79038,1,1,8008,4004
6791,14669118,0,2.764882e-05,-0.001686314,-0.001373208,-0.2720795,-0.02838871,-9.739512,0,0,44.79036,1,1,8008,4004
6794,14672019,0,-0.001100965,-0.001107321,-0.0007609129,-0.2702739,-0.03187109,-9.739300999999999,0,0,44.79031,1,1,8008,4004
6800,14674541,0,-0.001733977,-2.003509e-05,-0.0001657141,-0.2686041,-0.03442653,-9.743707000000001,0,0,44.7903,1,1,8008,4004
6803,14676888,0,-0.001619701,-9.687866e-05,0.0002408013,-0.2664834,-0.0355766,-9.744039000000001,0,0,44.79031,1,1,8008,4004
6834,14679071,0,-0.001719589,-0.0004531765,0.001558824,-0.2677742,-0.03636527,-9.741739000000001,0,0,44.79037,1,1,8008,4004
6837,14681890,0,-0.002128982,-0.0001741849,0.001108085,-0.2709559,-0.03509042,-9.736677999999999,0,0,44.79043,1,1,8008,4004
6840,14688214,0,-0.001834675,-0.001061283,-0.001038759,-0.2745875,-0.03095667,-9.733332000000001,0,0,44.79066,1,1,8008,4004
6843,14689884,0,-0.001904127,-0.0006461242000000001,-0.001156262,-0.2756901,-0.0301186,-9.736154000000001,0,0,44.79072,1,1,8008,4004
6874,14692314,0,-0.001961566,0.0004091919,-0.001096112,-0.2767914,-0.02789255,-9.740067,0,0,44.79077,1,1,8008,4004
6878,14694506,0,-0.00217579,0.001314471,-0.001554767,-0.2757037,-0.02587243,-9.739984,0,0,44.79079,1,1,8008,4004
6881,14697774,0,-0.00235076,0.001992512,-0.002030877,-0.2730307,-0.02531276,-9.738543999999999,0,0,44.79079,1,1,8008,4004
6884,14699962,0,-0.001638369,0.001738551,-0.002177177,-0.2705547,-0.02617923,-9.738872000000001,0,0,44.79077,1,1,8008,4004
6915,14703049,0,-0.0008092462,0.001046544,-0.001910473,-0.2682815,-0.02589339,-9.741903000000001,0,0,44.79072,1,1,8008,4004
6918,14704869,0,-0.0007442114,0.000875045,-0.001072832,-0.2700504,-0.02467786,-9.745179,0,0,44.79063,1,1,8008,4004
6921,14707119,0,-0.001230233,0.0007990134,-0.0007785883,-0.2704118,-0.02381958,-9.748881000000001,0,0,44.79056,1,1,8008,4004
6924,14710266,0,-0.001177663,0.0003857841,-0.0007556646,-0.2693972,-0.02398388,-9.752961000000001,0,0,44.79047,1,1,8008,4004
6955,14712449,0,-0.001155162,-0.0004796083,-0.001553908,-0.2679954,-0.02482359,-9.758632,0,0,44.79034,1,1,8008,4004
6959,14715544,0,-0.001677628,0.000151595,-0.001372938,-0.2678134,-0.02567686,-9.761627000000001,0,0,44.79025,1,1,8008,4004
6962,14717957,0,-0.001813621,0.0001181911,-0.001563193,-0.2680461,-0.02705837,-9.762159,0,0,44.79022,1,1,8008,4004
6965,14720542,0,-0.001200452,0.0008916407,-0.001517402,-0.2673273,-0.02852846,-9.76088,0,0,44.79016,1,1,8008,4004
6996,14722896,0,-0.0001437578,0.001013331,-0.001548224,-0.2677891,-0.02886305,-9.759255,0,0,44.79011,1,1,8008,4004
6999,14725498,0,-0.0006661566,0.0005526489,-0.001886631,-0.2676318,-0.02929138,-9.758718,0,0,44.79008,1,1,8008,4004
7002,14728531,0,-0.002414562,-0.0006225765,-0.002144884,-0.2652619,-0.02842067,-9.759245999999999,0,0,44.79004,1,1,8008,4004
7005,14730865,0,-0.003357964,-0.001090076,-0.002647172,-0.2636703,-0.02750706,-9.759885000000001,0,0,44.79001,1,1,8008,4004
7036,14733471,0,-0.002686284,-0.001389328,-0.001813031,-0.2602267,-0.02669079,-9.759867,0,0,44.78996,1,1,8008,4004
7040,14735867,0,-0.001907044,-0.001179243,-0.001196145,-0.2576729,-0.02624335,-9.759608999999999,0,0,44.78994,1,1,8008,4004
7043,14738091,0,-0.00125376,-0.0005560368,-0.001639654,-0.2546452,-0.02492381,-9.758034,0,0,44.78989,1,1,8008,4004
7047,14741098,0,-0.001205207,-0.0002941382,-0.001530108,-0.2531631,-0.02435402,-9.756638000000001,0,0,44.78986,1,1,8008,4004
7078,14743551,0,-0.0009832651999999999,0.0002635118,-0.001297342,-0.2522454,-0.0220999,-9.753722,0,0,44.78981,1,1,8008,4004
7085,14746441,0,-0.0007609176,0.0001592739,-0.0006945283,-0.251972,-0.0192065,-9.751039,0,0,44.78978,1,1,8008,4004
7088,14748890,0,-0.0003911727,-0.0003845968,-0.0003144209,-0.2509916,-0.01830664,-9.749634,0,0,44.78975,1,1,8008,4004
7091,14751514,0,-0.0007445715,-0.001539208,-0.0002830288,-0.2514846,-0.01754008,-9.746793,0,0,44.7897,1,1,8008,4004
7122,14754095,0,-0.001393795,-0.002803381,-0.0009783610000000001,-0.2535023,-0.01660588,-9.745799,0,0,44.78965,1,1,8008,4004
7126,14756740,0,-0.001243609,-0.002726259,-0.001324128,-0.2559317,-0.01490817,-9.74502,0,0,44.78956,1,1,8008,4004
7129,14759726,0,-0.0009887400999999999,-0.002202082,-0.001312952,-0.2590068,-0.01378463,-9.742692999999999,0,0,44.78942,1,1,8008,4004
7132,14761470,0,-0.0006764335,-0.002378519,-0.001726011,-0.2626515,-0.01317344,-9.740971,0,0,44.78933,1,1,8008,4004
7163,14764770,0,-0.000534254,-0.002502738,-0.002060821,-0.2655485,-0.01330413,-9.739922,0,0,44.78921,1,1,8008,4004
7167,14767118,0,0.0002212332,-0.002959265,-0.001484874,-0.2654839,-0.01461712,-9.742279,0,0,44.78913,1,1,8008,4004
7170,14769490,0,0.0005356692,-0.003447499,-0.0004297106,-0.2646813,-0.01570627,-9.742343999999999,0,0,44.78909,1,1,8008,4004
7173,14772534,0,0.0005946958,-0.003690582,0.0003028075,-0.2626935,-0.01669775,-9.740218,0,0,44.78905,1,1,8008,4004
7206,14775090,0,0.001187854,-0.002908772,0.0007764498,-0.2624843,-0.01668631,-9.738780999999999,0,0,44.78899,1,1,8008,4004
7210,14778015,0,0.00147269,-0.001893973,0.0008240081999999999,-0.2623255,-0.01650729,-9.737963000000001,0,0,44.78896,1,1,8008,4004
7213,14780373,0,0.002025448,-0.001597331,0.000460648,-0.2633573,-0.01510333,-9.738462,0,0,44.7889,1,1,8008,4004
7216,14783048,0,0.001882421,-0.00218702,0.0002240631,-0.2652621,-0.01414283,-9.737935,0,0,44.78885,1,1,8008,4004
7247,14788410,0,0.0005201933,-0.0003991288,0.0005665616,-0.2775913,-0.01676379,-9.738576,0,0,44.78875,1,1,8008,4004
7251,14790567,0,0.0006043316,-2.07585e-05,0.0005427515,-0.2824407,-0.02005103,-9.742105,0,0,44.78871,1,1,8008,4004
7254,14796773,0,0.001812414,0.002282943,-0.0003601639,-0.2871746,-0.01986166,-9.754737,0,0,44.78862,1,1,8008,4004
7285,14799556,0,0.002615481,0.001670313,-0.0003037851,-0.2877657,-0.01967106,-9.758762000000001,0,0,44.78857,1,1,8008,4004
7288,14801865,0,0.00120377,0.0003973206,-0.0007182346,-0.2877198,-0.02030374,-9.758368000000001,0,0,44.78854,1,1,8008,4004
7292,14804551,0,0.0006295039,-0.0005302934,7.484119e-05,-0.286617,-0.01962786,-9.757792,0,0,44.78845,1,1,8008,4004
7295,14807229,0,0.0001675603,-0.0006089188,0.000232548,-0.2830823,-0.0170805,-9.757508,0,0,44.78834,1,1,8008,4004
7326,14809887,0,0.0003437242,-0.0002215852,-0.0004281136,-0.2799174,-0.0151366,-9.757526,0,0,44.78826,1,1,8008,4004
7330,14812100,0,0.0009889028999999999,-0.0002195593,0.0002036647,-0.2745173,-0.01359716,-9.754279,0,0,44.78817,1,1,8008,4004
7333,14814741,0,0.0010948,-0.0009556065,9.898595e-05,-0.2722409,-0.01504752,-9.750716000000001,0,0,44.78813,1,1,8008,4004
7336,14817311,0,0.0005166968,-0.0007881871,0.0001194928,-0.2709001,-0.0163762,-9.746995999999999,0,0,44.78812,1,1,8008,4004
7367,14820352,0,0.0004860073,0.0009331345999999999,0.000594228,-0.271564,-0.01682552,-9.745274,0,0,44.78815,1,1,8008,4004
7371,14822546,0,0.000986193,0.0009782562999999999,0.001172782,-0.2722592,-0.01754612,-9.744204999999999,0,0,44.78819,1,1,8008,4004
7374,14824449,0,0.001523373,0.000604382,0.001291873,-0.2728596,-0.01845238,-9.746270000000001,0,0,44.78825,1,1,8008,4004
7377,14827081,0,0.002147139,-2.912074e-05,0.001130233,-0.2739476,-0.01892329,-9.754799,0,0,44.78835,1,1,8008,4004
7408,14829941,0,0.002920345,-0.0003255589,0.0004044989,-0.2751966,-0.01773399,-9.761725,0,0,44.78843,1,1,8008,4004
7411,14832520,0,0.003784778,0.0004722982,-0.0008133616,-0.277099,-0.01604297,-9.771525,0,0,44.78852,1,1,8008,4004
7414,14834975,0,0.003779301,0.0006379256,-0.00133958,-0.2760513,-0.01487195,-9.774243,0,0,44.78856,1,1,8008,4004
7417,14837356,0,0.005302659,-0.0002267924,-0.001930748,-0.2693954,-0.01181507,-9.764488,0,0,44.78857,1,1,8008,4004
7448,14840107,0,0.01093729,-0.001573764,-0.002782614,-0.2548547,-0.005344813,-9.731843,0,0,44.78854,1,1,8008,4004
7452,14842279,0,0.01787063,-0.001815435,-0.002478191,-0.2374285,-0.002179845,-9.692280999999999,0,0,44.7885,1,1,8008,4004
7456,14845000,0,0.02639386,-0.001592094,-0.002684067,-0.2112497,-0.005196172,-9.640988,0,0,44.78844,1,1,8008,4004
7459,14847713,0,0.03635094,-0.001664062,-0.0053199,-0.1501707,-0.03094656,-9.561432999999999,0,0,44.78836,1,1,8008,4004
7494,14850506,0,0.04290364,-0.001748312,-0.009122033999999999,-0.0704524,-0.07540516999999999,-9.49916,0,0,44.78828,1,1,8008,4004
7497,14852493,0,0.04977755,-0.0001110288,-0.01307021,-0.01096096,-0.1133417,-9.466201,0,0,44.78823,1,1,8008,4004
7501,14855490,0,0.06222286,0.001883296,-0.01968136,0.08576491,-0.200223,-9.426893,0,0,44.78817,1,1,8008,4004
7504,14857884,0,0.06515326,0.001396089,-0.02365923,0.1476099,-0.278495,-9.410632,0,0,44.78815,1,1,8008,4004
7537,14861292,0,0.0568556,0.0009012403,-0.02938404,0.2078865,-0.4035622,-9.418241,0,0,44.78817,1,1,8008,4004
7541,14862915,0,0.04757436,0.001303211,-0.03443493,0.2149986,-0.5094942,-9.477849000000001,0,0,44.78825,1,1,8008,4004
7544,14865231,0,0.04707228,-0.0003044286,-0.0372489,0.1929304,-0.5603505,-9.539014999999999,0,0,44.78833,1,1,8008,4004
7547,14868008,0,0.04840504,-0.003104852,-0.03883635,0.1453138,-0.5900965,-9.597939999999999,0,0,44.78839,1,1,8008,4004
7578,14870507,0,0.04422611,-0.004965095,-0.04036909,0.02811926,-0.5909941,-9.661683,0,0,44.78846,1,1,8008,4004
7581,14873087,0,0.03643591,-0.005525254,-0.03996442,-0.06034134,-0.5577567,-9.698047000000001,0,0,44.78849,1,1,8008,4004
7584,14875315,0,0.03212496,-0.007460929,-0.03873916,-0.188176,-0.4453811,-9.751407,0,0,44.78851,1,1,8008,4004
7587,14877923,0,0.03979083,-0.007266545,-0.03722631,-0.2692282,-0.3365068,-9.779468,0,0,44.78851,1,1,8008,4004
7618,14881557,0,0.05567014,-0.005457411,-0.03310032,-0.3541557,-0.1690731,-9.828993000000001,0,0,44.7885,1,1,8008,4004
7621,14883550,0,0.05838112,-0.009647306,-0.02810435,-0.3648205,-0.02579514,-9.908042,0,0,44.78848,1,1,8008,4004
7625,14886044,0,0.05808371,-0.01270846,-0.02592076,-0.347172,0.0604501,-9.963319,0,0,44.78845,1,1,8008,4004
7629,14888031,0,0.07117659,-0.012794,-0.02297723,-0.2958458,0.1599138,-10.0278,0,0,44.78838,1,1,8008,4004
7660,14890903,0,0.08179031,-0.01341436,-0.02109458,-0.2373103,0.1826991,-10.06028,0,0,44.78835,1,1,8008,4004
7663,14893960,0,0.07630263,-0.01866434,-0.02003248,-0.1436884,0.1450151,-10.10282,0,0,44.78831,1,1,8008,4004
7667,14898468,0,0.0445139,-0.02345827,-0.01809534,-0.08775216,0.01531682,-10.16318,0,0,44.78833,1,1,8008,4004
7698,14900898,0,0.04238049,-0.02875398,-0.01460089,-0.09397920999999999,-0.08145997000000001,-10.15625,0,0,44.78838,1,1,8008,4004
7702,14903899,0,0.03475282,-0.03139661,-0.01219018,-0.1283252,-0.1529895,-10.12345,0,0,44.78841,1,1,8008,4004
7705,14906899,0,0.009929122,-0.03048844,-0.006935201,-0.2160639,-0.2326929,-10.06145,0,0,44.78849,1,1,8008,4004
7708,14909722,0,-0.005356314,-0.03122437,-0.002544669,-0.2679855,-0.2546148,-10.02792,0,0,44.78852,1,1,8008,4004
7711,14911071,0,-0.01387149,-0.03610504,0.002115885,-0.3301947,-0.2457363,-9.993243,0,0,44.78854,1,1,8008,4004
7742,14913468,0,-0.01289568,-0.03537116,0.00338008,-0.371125,-0.2138574,-9.976172,0,0,44.78852,1,1,8008,4004
7746,14916061,0,-0.0108795,-0.02677124,0.005029086,-0.3948155,-0.1334019,-9.941703,0,0,44.78847,1,1,8008,4004
7749,14919231,0,-0.01264486,-0.02575766,0.00634489,-0.3680843,-0.07099571,-9.910337999999999,0,0,44.7884,1,1,8008,4004
7752,14921527,0,-0.01987231,-0.03468449,0.007578264,-0.3138207,0.02609108,-9.869503999999999,0,0,44.78829,1,1,8008,4004
7783,14923893,0,-0.02501289,-0.03584141,0.01060217,-0.3019967,0.1282654,-9.852536000000001,0,0,44.78817,1,1,8008,4004
7786,14926467,0,-0.02257914,-0.03186449,0.01351115,-0.3081257,0.1898856,-9.841893000000001,0,0,44.78812,1,1,8008,4004
7789,14929939,0,-0.01868457,-0.02817494,0.01693076,-0.3395805,0.2443646,-9.809365,0,0,44.78807,1,1,8008,4004
7792,14931448,0,-0.02196656,-0.02915523,0.01771448,-0.3943141,0.2576004,-9.776567,0,0,44.78807,1,1,8008,4004
7823,14934366,0,-0.03090882,-0.02989676,0.01991384,-0.5210029,0.2679326,-9.702667,0,0,44.78808,1,1,8008,4004
7827,14936525,0,-0.03341402,-0.02633319,0.02332414,-0.6134351,0.2699908,-9.637389000000001,0,0,44.78809,1,1,8008,4004
7830,14939264,0,-0.03342315,-0.01970338,0.02935914,-0.7338976,0.2562262,-9.542740999999999,0,0,44.78815,1,1,8008,4004
7833,14941945,0,-0.03661205,-0.01664407,0.03337286,-0.7918059,0.2403124,-9.495528999999999,0,0,44.7882,1,1,8008,4004
7864,14944943,0,-0.0437374,-0.01224033,0.03749933,-0.8312824,0.2288775,-9.441584000000001,0,0,44.78831,1,1,8008,4004
7868,14947010,0,-0.04506706,-0.006680437,0.03845338,-0.8032722,0.2318048,-9.394964999999999,0,0,44.78842,1,1,8008,4004
7871,14949510,0,-0.04493265,-0.003704956,0.03761202,-0.7450759,0.2323024,-9.374565,0,0,44.7885,1,1,8008,4004
7879,14952991,0,-0.04929984,0.00121763,0.03506651,-0.6272612,0.2361287,-9.377389000000001,0,0,44.78865,1,1,8008,4004
7882,14954293,0,-0.05063647,0.006177796,0.03372161,-0.5449791,0.2483627,-9.395846000000001,0,0,44.78872,1,1,8008,4004
7913,14957599,0,-0.0447467,0.009071193,0.03208179,-0.4233623,0.2700234,-9.427959,0,0,44.78882,1,1,8008,4004
7916,14959290,0,-0.04108554,0.005329921,0.03090508,-0.354055,0.2725862,-9.446897999999999,0,0,44.78893,1,1,8008,4004
7919,14962010,0,-0.04250206,0.002301509,0.02831235,-0.3055425,0.2663431,-9.472250000000001,0,0,44.78902,1,1,8008,4004
7922,14964994,0,-0.04397269,0.007810582,0.02548506,-0.3131783,0.2661718,-9.488429999999999,0,0,44.78912,1,1,8008,4004
7953,14967215,0,-0.0369395,0.01414488,0.02097943,-0.3454804,0.2614352,-9.517473000000001,0,0,44.78918,1,1,8008,4004
7957,14970002,0,-0.02980112,0.009364281,0.01575193,-0.3947825,0.2268119,-9.571427,0,0,44.78926,1,1,8008,4004
7960,14972879,0,-0.03240583,0.008538291,0.01289547,-0.4486653,0.1925871,-9.630587,0,0,44.78933,1,1,8008,4004
7963,14975533,0,-0.03649122,0.01729615,0.01020613,-0.52606,0.1462873,-9.742713,0,0,44.78944,1,1,8008,4004
7994,14977992,0,-0.02895109,0.02158592,0.007360723,-0.5464142,0.09366099999999999,-9.846518,0,0,44.78952,1,1,8008,4004
7997,14980839,0,-0.02405367,0.01795013,0.00303121,-0.5409489,0.04659679,-9.908060000000001,0,0,44.78961,1,1,8008,4004
8000,14983220,0,-0.03178073,0.01596764,-0.003855912,-0.5337151,-0.02881968,-10.01371,0,0,44.78968,1,1,8008,4004
8003,14985960,0,-0.04063654,0.01949701,-0.007298762,-0.5212204,-0.06964771,-10.10297,0,0,44.78968,1,1,8008,4004
8034,14989496,0,-0.03890507,0.02249266,-0.01070613,-0.4889209,-0.1189608,-10.23787,0,0,44.78965,1,1,8008,4004
8038,14990773,0,-0.02129393,0.02078507,-0.01347631,-0.483397,-0.1754344,-10.32058,0,0,44.78963,1,1,8008,4004
8042,14993461,0,-0.0139366,0.02046557,-0.01353763,-0.5035598,-0.2226464,-10.33083,0,0,44.78958,1,1,8008,4004
8045,14996019,0,-0.01545653,0.02323968,-0.01220431,-0.5539775,-0.2995882,-10.28848,0,0,44.78946,1,1,8008,4004
8076,15002205,0,-0.0105029,0.02314644,-0.01086818,-0.6872789,-0.4105419,-10.18119,0,0,44.78926,1,1,8008,4004
8081,15004235,0,0.005726365,0.02602484,-0.009965364000000001,-0.7753595,-0.4781146,-10.11839,0,0,44.78923,1,1,8008,4004
8084,15006369,0,0.01333399,0.02998457,-0.009840218,-0.8124076,-0.5331423,-10.05933,0,0,44.78924,1,1,8008,4004
8115,15009761,0,0.01875842,0.03255943,-0.01055359,-0.8133463,-0.6222671,-9.936873,0,0,44.78928,1,1,8008,4004
8118,15011296,0,0.02099717,0.03126205,-0.01128734,-0.7776083,-0.6846801,-9.849519000000001,0,0,44.78931,1,1,8008,4004
8121,15014367,0,0.02358121,0.02848981,-0.01392379,-0.682716,-0.7866193,-9.742393,0,0,44.78934,1,1,8008,4004
8124,15016758,0,0.02367781,0.02820378,-0.01491824,-0.6031331,-0.8573135,-9.694744999999999,0,0,44.78935,1,1,8008,4004
8155,15019045,0,0.0234513,0.02773545,-0.01595325,-0.4743552,-0.9549015,-9.656851,0,0,44.78938,1,1,8008,4004
8158,15022104,0,0.02343916,0.0252168,-0.01697959,-0.3924451,-1.013743,-9.64822,0,0,44.78939,1,1,8008,4004
8162,15024215,0,0.02016501,0.02144303,-0.02017855,-0.2997405,-1.092427,-9.647335,0,0,44.78943,1,1,8008,4004
8165,15027030,0,0.01389384,0.02008707,-0.02310702,-0.2701519,-1.135089,-9.654792,0,0,44.78945,1,1,8008,4004
8196,15029272,0,0.0004709808,0.0205936,-0.0263229,-0.2779434,-1.176085,-9.690101,0,0,44.78946,1,1,8008,4004
8199,15031755,0,-0.00772682,0.02246271,-0.0265489,-0.3439221,-1.175778,-9.756572,0,0,44.78948,1,1,8008,4004
8202,15034929,0,-0.008801336999999999,0.02374681,-0.02425322,-0.4126922,-1.153048,-9.808168,0,0,44.7895,1,1,8008,4004
8205,15037324,0,-0.01413094,0.02351395,-0.0176423,-0.5241337,-1.09612,-9.895498,0,0,44.78951,1,1,8008,4004
8236,15039928,0,-0.03135316,0.02279892,-0.01075411,-0.6208695,-1.008861,-10.01676,0,0,44.78949,1,1,8008,4004
8239,15042297,0,-0.04713664,0.02506271,-0.006570276,-0.6709093,-0.9302671,-10.11891,0,0,44.78947,1,1,8008,4004
8243,15045291,0,-0.06783269,0.03307343,-0.0004819865,-0.7017462,-0.7936055,-10.28291,0,0,44.78943,1,1,8008,4004
8247,15048072,0,-0.07825919000000001,0.03757532,0.003109747,-0.6835858,-0.6979444,-10.38289,0,0,44.78939,1,1,8008,4004
8278,15051068,0,-0.09324533,0.0386764,0.009105827,-0.6171927,-0.5495177999999999,-10.48744,0,0,44.7893,1,1,8008,4004
8281,15053118,0,-0.1109273,0.0393243,0.01816521,-0.5356798,-0.39782,-10.50576,0,0,44.78925,1,1,8008,4004
8289,15056063,0,-0.1240247,0.03933137,0.02649035,-0.4782754,-0.2990373,-10.47712,0,0,44.78922,1,1,8008,4004
8294,15058507,0,-0.1439652,0.0363616,0.04007366,-0.4097377,-0.1480521,-10.41546,0,0,44.7892,1,1,8008,4004
8325,15061509,0,-0.1559344,0.03251888,0.05332348,-0.3965641,0.002967407,-10.36382,0,0,44.7892,1,1,8008,4004
8328,15063510,0,-0.1619307,0.0340943,0.06250343,-0.4141744,0.09097908,-10.32723,0,0,44.78922,1,1,8008,4004
8333,15066552,0,-0.1743418,0.03995129,0.07317845000000001,-0.444376,0.1922788,-10.23386,0,0,44.78928,1,1,8008,4004
8336,15068647,0,-0.1849902,0.04255668,0.07832231000000001,-0.4513068,0.2388602,-10.1371,0,0,44.78938,1,1,8008,4004
8367,15071509,0,-0.2000142,0.04395651,0.08511786,-0.4335104,0.2740972,-9.965081,0,0,44.78953,1,1,8008,4004
8370,15073546,0,-0.2096985,0.0454354,0.0913137,-0.3971232,0.2736374,-9.858839,0,0,44.78962,1,1,8008,4004
8374,15076085,0,-0.2217687,0.05018546,0.1010983,-0.2947283,0.2558838,-9.739663,0,0,44.78972,1,1,8008,4004
8377,15078458,0,-0.2251608,0.05241557,0.1057409,-0.1958323,0.243411,-9.683028999999999,0,0,44.78978,1,1,8008,4004
8408,15080903,0,-0.2298369,0.05024648,0.1098058,-0.01459155,0.2233021,-9.620545999999999,0,0,44.78987,1,1,8008,4004
8411,15083943,0,-0.2397254,0.04722044,0.1097419,0.11551,0.2112617,-9.592806,0,0,44.78993,1,1,8008,4004
8414,15086725,0,-0.2627731,0.04675616,0.1062051,0.2893929,0.2231012,-9.574593999999999,0,0,44.79002,1,1,8008,4004
8417,15088709,0,-0.2731754,0.0493157,0.1027291,0.3802621,0.2615225,-9.574233,0,0,44.79008,1,1,8008,4004
8448,15091082,0,-0.2743396,0.05138227,0.09754785000000001,0.4728021,0.351236,-9.583162,0,0,44.79016,1,1,8008,4004
8451,15093711,0,-0.2744745,0.05111284,0.09519865,0.4968281,0.4179263,-9.596034,0,0,44.79025,1,1,8008,4004
8456,15101494,0,-0.2803534,0.05762854,0.08708978000000001,0.3152001,0.8387087,-9.914092,0,0,44.79064,1,1,8008,4004
8488,15104486,0,-0.2681476,0.05652765,0.08399922999999999,0.2842629,0.9289708,-10.03605,0,0,44.7907,1,1,8008,4004
8492,15106848,0,-0.2670548,0.05957235,0.07884831,0.2748542,1.035309,-10.21965,0,0,44.79079,1,1,8008,4004
8495,15109940,0,-0.2722558,0.06411156,0.07548829,0.3055138,1.095587,-10.32831,0,0,44.79081,1,1,8008,4004
8498,15112261,0,-0.2687077,0.06876686,0.06863761,0.4028392,1.156544,-10.45918,0,0,44.79086,1,1,8008,4004
8529,15114449,0,-0.2605739,0.06891665,0.06313041,0.4790476,1.159915,-10.53076,0,0,44.79087,1,1,8008,4004
8532,15117311,0,-0.259479,0.07199765,0.05660742,0.5648673,1.096724,-10.63173,0,0,44.7909,1,1,8008,4004
8535,15119931,0,-0.2702513,0.07685238,0.05422015,0.5906913,1.018717,-10.70096,0,0,44.79093,1,1,8008,4004
8538,15122501,0,-0.2862299,0.07884214,0.05364144,0.5774971,0.8731455,-10.80579,0,0,44.79097,1,1,8008,4004
8569,15125331,0,-0.2939667,0.07330043999999999,0.0550225,0.4901759,0.6985714,-10.89801,0,0,44.79101,1,1,8008,4004
8573,15127204,0,-0.3017103,0.07084586,0.05743468,0.394492,0.5711506,-10.94582,0,0,44.79103,1,1,8008,4004
8576,15129764,0,-0.3149659,0.07285154000000001,0.06013587,0.2846384,0.4510359,-10.97716,0,0,44.79106,1,1,8008,4004
8580,15132096,0,-0.3370813,0.07804091,0.06365605000000001,0.1278894,0.3063372,-10.98535,0,0,44.79109,1,1,8008,4004
8611,15135096,0,-0.3476052,0.07732505000000001,0.06625465,0.04331113,0.2359566,-10.96776,0,0,44.79111,1,1,8008,4004
8614,15137887,0,-0.3596804,0.0743467,0.07083905,-0.04620838,0.1753343,-10.93201,0,0,44.79114,1,1,8008,4004
8617,15139899,0,-0.3686861,0.07522421,0.07425153,-0.08267430000000001,0.1653854,-10.91408,0,0,44.79116,1,1,8008,4004
8620,15141972,0,-0.3836201,0.08201008999999999,0.07981691,-0.1009412,0.1891701,-10.90722,0,0,44.79119,1,1,8008,4004
8651,15144440,0,-0.3905585,0.08461572000000001,0.08341061,-0.08987321,0.2238576,-10.91975,0,0,44.79121,1,1,8008,4004
8655,15147127,0,-0.3953478,0.07838560999999999,0.08808762000000001,-0.06159198,0.287843,-10.95979,0,0,44.79124,1,1,8008,4004
8658,15150260,0,-0.3984785,0.06944063,0.09165556,-0.05491787,0.3284191,-10.98955,0,0,44.79126,1,1,8008,4004
8661,15152300,0,-0.403479,0.05873482,0.09957096999999999,-0.07415636,0.3824354,-11.00958,0,0,44.79129,1,1,8008,4004
8692,15155087,0,-0.4040898,0.0520393,0.1075945,-0.119034,0.414878,-10.9781,0,0,44.79132,1,1,8008,4004
8699,15157835,0,-0.4077913,0.04816216,0.1122056,-0.1731698,0.4094806,-10.93887,0,0,44.79134,1,1,8008,4004
8702,15159923,0,-0.4172613,0.04643033,0.1168742,-0.2508677,0.3900636,-10.9022,0,0,44.79136,1,1,8008,4004
8705,15162651,0,-0.430604,0.04605607,0.1235586,-0.3901863,0.3675571,-10.85658,0,0,44.79139,1,1,8008,4004
8736,15165447,0,-0.4316536,0.03998701,0.1309799,-0.5200058,0.3412412,-10.7991,0,0,44.79145,1,1,8008,4004
8740,15167523,0,-0.4379491,0.03509485,0.1365517,-0.5999003000000001,0.3087294,-10.74435,0,0,44.79149,1,1,8008,4004
8743,15170326,0,-0.4617128,0.03181198,0.1415323,-0.7005447,0.2792583,-10.65175,0,0,44.79157,1,1,8008,4004
8746,15172438,0,-0.4742205,0.03185289,0.1430941,-0.7427287,0.2909419,-10.59954,0,0,44.79164,1,1,8008,4004
8777,15175561,0,-0.4801384,0.04297564,0.1448342,-0.7864164,0.3322951,-10.53666,0,0,44.79176,1,1,8008,4004
8780,15178056,0,-0.4803104,0.05625613,0.1457082,-0.8033670000000001,0.3744223,-10.50116,0,0,44.79182,1,1,8008,4004
8783,15180324,0,-0.4689307,0.0611276,0.1446352,-0.7658996,0.4839795,-10.45059,0,0,44.79189,1,1,8008,4004
8786,15182475,0,-0.4566999,0.04663864,0.1429334,-0.7006641,0.5671696000000001,-10.41006,0,0,44.7919,1,1,8008,4004
8817,15184949,0,-0.4491504,0.02562474,0.1424197,-0.6126392000000001,0.6649013,-10.34199,0,0,44.79192,1,1,8008,4004
8822,15187965,0,-0.4554,0.0324689,0.1466251,-0.5821788,0.7200634,-10.3217,0,0,44.79192,1,1,8008,4004
8825,15190665,0,-0.4593296,0.06236016,0.1573747,-0.5425289,0.7979526,-10.36134,0,0,44.79192,1,1,8008,4004
8828,15192449,0,-0.4492257,0.06987256,0.16257,-0.50401,0.8256267,-10.42439,0,0,44.79193,1,1,8008,4004
8859,15194932,0,-0.4370283,0.05642257,0.1652968,-0.4629541,0.7952657,-10.51383,0,0,44.79193,1,1,8008,4004
8863,15197561,0,-0.4359096,0.05001009,0.1662937,-0.4592541,0.7465447,-10.5122,0,0,44.79193,1,1,8008,4004
8867,15205838,0,-0.4697365,0.07193178,0.2020186,-0.4063434,0.4770253,-10.39827,0,0,44.79195,1,1,8008,4004
8898,15208092,0,-0.462467,0.06770971000000001,0.2186813,-0.3846018,0.4309568,-10.50232,0,0,44.79198,1,1,8008,4004
8902,15210905,0,-0.4663051,0.07169692,0.2291296,-0.3711599,0.4084924,-10.59706,0,0,44.79202,1,1,8008,4004
8905,15213574,0,-0.4826845,0.08027574,0.2384451,-0.2944335,0.4323317,-10.6922,0,0,44.79212,1,1,8008,4004
8908,15216141,0,-0.482786,0.07630952000000001,0.2416253,-0.1990296,0.4947878,-10.72396,0,0,44.79221,1,1,8008,4004
8939,15218539,0,-0.4660927,0.07212862,0.2469987,-0.05834179,0.6174464,-10.78168,0,0,44.79233,1,1,8008,4004
8943,15221256,0,-0.4507783,0.08084034,0.2618076,0.06111713,0.7642323,-10.86172,0,0,44.79242,1,1,8008,4004
8946,15223502,0,-0.4418355,0.088835,0.2751197,0.1429039,0.8722399,-10.90969,0,0,44.79248,1,1,8008,4004
8949,15226936,0,-0.4257136,0.08928619,0.292679,0.241677,1.011822,-10.98056,0,0,44.79258,1,1,8008,4004
8980,15229839,0,-0.4150769,0.08134999,0.3045371,0.2831034,1.105929,-11.06641,0,0,44.79275,1,1,8008,4004
8983,15231922,0,-0.409752,0.08223705000000001,0.310366,0.2796499,1.148321,-11.13478,0,0,44.79285,1,1,8008,4004
8986,15234269,0,-0.399071,0.09368882000000001,0.3211419,0.2477521,1.166861,-11.23662,0,0,44.79295,1,1,8008,4004
8989,15237451,0,-0.3927043,0.09890567,0.337019,0.2266522,1.119758,-11.30084,0,0,44.79305,1,1,8008,4004
9020,15240295,0,-0.3988429,0.09743502,0.3568828,0.2104605,1.030063,-11.3474,0,0,44.79313,1,1,8008,4004
9024,15242321,0,-0.4063894,0.1002973,0.3725564,0.1929922,0.9711143,-11.38962,0,0,44.79316,1,1,8008,4004
9027,15244954,0,-0.4115942,0.1101216,0.3966207,0.1848831,0.9066384,-11.45964,0,0,44.79324,1,1,8008,4004
9030,15247752,0,-0.4100738,0.115446,0.4100901,0.2023286,0.880298,-11.49887,0,0,44.79328,1,1,8008,4004
9063,15250926,0,-0.4066821,0.1205388,0.4254784,0.2354815,0.8725007,-11.53678,0,0,44.79336,1,1,8008,4004
9067,15252987,0,-0.4077003,0.1234069,0.4341966,0.2571843,0.8892696,-11.54935,0,0,44.7934,1,1,8008,4004
9070,15255134,0,-0.4125016,0.1321833,0.449562,0.3032891,0.9472972,-11.56727,0,0,44.79346,1,1,8008,4004
9073,15257361,0,-0.4088574,0.1381599,0.4619848,0.3323218,1.012925,-11.58932,0,0,44.7935,1,1,8008,4004
9108,15260350,0,-0.3907495,0.1446156,0.4840723,0.3571158,1.13348,-11.62667,0,0,44.79358,1,1,8008,4004
9111,15262933,0,-0.3785436,0.1458671,0.5000128,0.3714095,1.205477,-11.63627,0,0,44.79361,1,1,8008,4004
9114,15265366,0,-0.3720554,0.1428986,0.5236137,0.3956606,1.300211,-11.62725,0,0,44.79374,1,1,8008,4004
9118,15267316,0,-0.3705191,0.1460753,0.5374972,0.4019023,1.363219,-11.6194,0,0,44.79384,1,1,8008,4004
9151,15270215,0,-0.3627587,0.1667992,0.5560037,0.3990055,1.44845,-11.61721,0,0,44.79405,1,1,8008,4004
9155,15272503,0,-0.3545033,0.1825047,0.5682722,0.4124668,1.483974,-11.61883,0,0,44.79414,1,1,8008,4004
9158,15275292,0,-0.3512265,0.1888277,0.5866452,0.4685417,1.494452,-11.63421,0,0,44.79427,1,1,8008,4004
9161,15277872,0,-0.3584258,0.1821475,0.5983560999999999,0.5177252,1.482315,-11.65989,0,0,44.79434,1,1,8008,4004
9192,15280351,0,-0.3733733,0.1702893,0.6171882,0.6046203,1.45943,-11.70582,0,0,44.79448,1,1,8008,4004
9195,15282574,0,-0.3765379,0.1682278,0.6306578,0.677245,1.448203,-11.73275,0,0,44.79455,1,1,8008,4004
9198,15285325,0,-0.3751725,0.1750777,0.6525478,0.7967495999999999,1.432964,-11.77489,0,0,44.79465,1,1,8008,4004
9201,15288226,0,-0.3910096,0.1959316,0.6712483,0.8935893,1.422155,-11.84113,0,0,44.7948,1,1,8008,4004
9232,15291054,0,-0.4022622,0.2056828,0.6806044,0.9485241,1.453214,-11.90285,0,0,44.79489,1,1,8008,4004
9236,15293251,0,-0.40163,0.204226,0.6934062,1.009916,1.554157,-12.03365,0,0,44.79506,1,1,8008,4004
9239,15295863,0,-0.3938582,0.2038859,0.7029291,1.01818,1.635445,-12.12807,0,0,44.79517,1,1,8008,4004
9242,15298265,0,-0.3920699,0.2135948,0.7217192,1.001233,1.771885,-12.23216,0,0,44.7953,1,1,8008,4004
9273,15306851,0,-0.3879527,0.2599377,0.7781926,0.968571,2.116827,-12.34559,0,0,44.79565,1,1,8008,4004
9277,15309088,0,-0.3693697,0.2819034,0.7978063,0.9675298,2.206984,-12.41555,0,0,44.79577,1,1,8008,4004
9310,15311880,0,-0.363456,0.2953143,0.8122470000000001,0.9815161999999999,2.235806,-12.46363,0,0,44.79585,1,1,8008,4004
9313,15314742,0,-0.374071,0.3056132,0.8350917,1.032296,2.233216,-12.5178,0,0,44.796,1,1,8008,4004
9316,15317445,0,-0.3845369,0.3110767,0.8506696,1.077692,2.224796,-12.55312,0,0,44.79618,1,1,8008,4004
9319,15319067,0,-0.3773615,0.3292457,0.8752644000000001,1.153053,2.227895,-12.61858,0,0,44.79641,1,1,8008,4004
9350,15321440,0,-0.3615747,0.3494503,0.8921821,1.21468,2.225585,-12.65775,0,0,44.7965,1,1,8008,4004
9353,15324246,0,-0.3521217,0.3832311,0.917227,1.328861,2.200049,-12.69497,0,0,44.79665,1,1,8008,4004
9356,15327140,0,-0.3607455,0.3989858,0.9315411,1.416912,2.187458,-12.71171,0,0,44.79675,1,1,8008,4004
9360,15329686,0,-0.3697779,0.4081644,0.9470729,1.556609,2.205357,-12.74144,0,0,44.79694,1,1,8008,4004
9391,15331878,0,-0.3523796,0.4139179,0.9619048,1.682341,2.245821,-12.80291,0,0,44.79711,1,1,8008,4004
9394,15334429,0,-0.3361876,0.422824,0.9723446,1.751888,2.272056,-12.85681,0,0,44.79724,1,1,8008,4004
9398,15337881,0,-0.3215381,0.4390442,0.9891943,1.848784,2.312388,-12.92571,0,0,44.79747,1,1,8008,4004
9402,15339885,0,-0.3146377,0.4484487,1.000216,1.902107,2.342595,-12.95708,0,0,44.79755,1,1,8008,4004
9433,15342545,0,-0.3015671,0.4631994,1.014904,1.938484,2.388525,-13.0199,0,0,44.79773,1,1,8008,4004
9436,15344431,0,-0.2893097,0.4775297,1.023629,1.929622,2.421846,-13.09085,0,0,44.79786,1,1,8008,4004
9439,15347254,0,-0.2692847,0.5028169,1.034956,1.885885,2.474956,-13.22632,0,0,44.79796,1,1,8008,4004
9442,15350135,0,-0.2568204,0.5163657,1.041162,1.84941,2.509348,-13.31624,0,0,44.79806,1,1,8008,4004
9473,15352332,0,-0.2418329,0.5257477,1.048802,1.795599,2.555507,-13.42091,0,0,44.79824,1,1,8008,4004
9476,15355445,0,-0.2304263,0.5364179,1.058205,1.7544,2.594499,-13.48418,0,0,44.79838,1,1,8008,4004
9479,15357931,0,-0.21716,0.5478539,1.066884,1.745371,2.623007,-13.51163,0,0,44.79847,1,1,8008,4004
9483,15360721,0,-0.1846598,0.560901,1.082564,1.786976,2.664192,-13.53966,0,0,44.79859,1,1,8008,4004
9518,15363340,0,-0.1511086,0.5616254000000001,1.098537,1.876984,2.675322,-13.57941,0,0,44.79868,1,1,8008,4004
9521,15365903,0,-0.1369718,0.5642217,1.109713,1.935361,2.668789,-13.62524,0,0,44.79874,1,1,8008,4004
9524,15368715,0,-0.117568,0.5827453,1.128498,2.013823,2.66222,-13.71198,0,0,44.79883,1,1,8008,4004
9527,15370880,0,-0.09614369,0.5978827,1.140227,2.074186,2.657169,-13.767,0,0,44.79889,1,1,8008,4004
9558,15373552,0,-0.05647106,0.6128231,1.156507,2.1612,2.623979,-13.83227,0,0,44.79898,1,1,8008,4004
9561,15375763,0,-0.03586965,0.6203175,1.167621,2.194374,2.584603,-13.85718,0,0,44.79903,1,1,8008,4004
9564,15378472,0,-0.01316953,0.6329617,1.187028,2.212503,2.509281,-13.8595,0,0,44.79912,1,1,8008,4004
9568,15380547,0,-0.001025385,0.6426426,1.200948,2.216534,2.445159,-13.84853,0,0,44.79918,1,1,8008,4004
9599,15383290,0,0.02347224,0.654576,1.219931,2.200652,2.34933,-13.84221,0,0,44.79928,1,1,8008,4004
9602,15386219,0,0.04557443,0.6594473,1.232236,2.16653,2.299596,-13.85103,0,0,44.79935,1,1,8008,4004
9605,15387970,0,0.07413512999999999,0.669915,1.250901,2.091961,2.22955,-13.87467,0,0,44.79946,1,1,8008,4004
9608,15391027,0,0.08450959,0.6781875000000001,1.262315,2.044302,2.188199,-13.88766,0,0,44.79951,1,1,8008,4004
9639,15393733,0,0.1013654,0.6907885,1.276717,1.99114,2.167508,-13.89498,0,0,44.79958,1,1,8008,4004
9642,15395775,0,0.1247117,0.701865,1.285227,1.964525,2.179669,-13.88732,0,0,44.79961,1,1,8008,4004
9645,15399304,0,0.1706624,0.7216985,1.298752,1.951452,2.199167,-13.86043,0,0,44.79963,1,1,8008,4004
9649,15400673,0,0.2053106,0.7349888999999999,1.314112,1.980021,2.21189,-13.84551,0,0,44.79963,1,1,8008,4004
9680,15406437,0,0.2545292,0.7513021,1.346802,2.051205,2.24702,-13.92782,0,0,44.79959,1,1,8008,4004
9683,15409971,0,0.2998239,0.7612069,1.365719,2.106652,2.254333,-14.00155,0,0,44.79956,1,1,8008,4004
9686,15411261,0,0.3252348,0.7670075,1.377152,2.145846,2.239181,-14.0342,0,0,44.79953,1,1,8008,4004
9717,15413854,0,0.3464636,0.7745951,1.39539,2.200947,2.197748,-14.05772,0,0,44.7995,1,1,8008,4004
9720,15416320,0,0.3565158,0.778845,1.409068,2.241786,2.170628,-14.06511,0,0,44.79947,1,1,8008,4004
9723,15419085,0,0.3837847,0.7821743,1.431574,2.306556,2.129317,-14.07918,0,0,44.79939,1,1,8008,4004
9726,15421717,0,0.4096809,0.7832586,1.447422,2.342932,2.094731,-14.09449,0,0,44.79934,1,1,8008,4004
9757,15424492,0,0.4439895,0.7890323,1.471163,2.384977,2.035749,-14.12539,0,0,44.79926,1,1,8008,4004
9760,15426284,0,0.4595582,0.7960479,1.486584,2.410791,1.997944,-14.15051,0,0,44.79921,1,1,8008,4004
9764,15428921,0,0.4780423,0.8086593,1.506201,2.435321,1.968404,-14.18098,0,0,44.79918,1,1,8008,4004
9767,15431419,0,0.4975439,0.8138341,1.516406,2.470348,1.959645,-14.23048,0,0,44.79919,1,1,8008,4004
9798,15434119,0,0.5398341,0.8160202,1.529189,2.514335,1.993664,-14.24312,0,0,44.79929,1,1,8008,4004
9802,15436886,0,0.5685111,0.8146513,1.537822,2.550389,2.027258,-14.21484,0,0,44.79938,1,1,8008,4004
9805,15438866,0,0.6034654,0.8121585,1.55258,2.609509,2.094274,-14.13883,0,0,44.79948,1,1,8008,4004
9808,15441310,0,0.6273019,0.8118284,1.56371,2.646754,2.155065,-14.08927,0,0,44.79953,1,1,8008,4004
9839,15443553,0,0.6769729,0.8148106000000001,1.580675,2.690779,2.256151,-14.03145,0,0,44.79964,1,1,8008,4004
9842,15446867,0,0.7183289,0.8185567,1.592845,2.715865,2.311945,-14.00111,0,0,44.79966,1,1,8008,4004
9845,15448917,0,0.7770262999999999,0.8195505,1.609953,2.75676,2.356093,-13.94813,0,0,44.79965,1,1,8008,4004
9849,15451348,0,0.807148,0.8172657,1.619377,2.788321,2.355811,-13.89287,0,0,44.79961,1,1,8008,4004
9882,15454434,0,0.8436345,0.8185021,1.631717,2.840616,2.318007,-13.77276,0,0,44.79959,1,1,8008,4004
9885,15456440,0,0.8674049,0.8232319,1.639934,2.881845,2.272186,-13.67701,0,0,44.79954,1,1,8008,4004
9888,15459263,0,0.9061451,0.8259289,1.654689,2.972406,2.180243,-13.52757,0,0,44.79948,1,1,8008,4004
9892,15461442,0,0.9314222,0.822836,1.666602,3.049699,2.106045,-13.43346,0,0,44.79946,1,1,8008,4004
9927,15464141,0,0.9597573,0.8188936,1.686428,3.176963,1.978771,-13.3041,0,0,44.79943,1,1,8008,4004
9930,15466658,0,0.96837,0.8170372,1.699901,3.272477,1.886561,-13.22665,0,0,44.7994,1,1,8008,4004
9933,15468774,0,0.9739602000000001,0.8121086,1.717743,3.433684,1.747588,-13.13799,0,0,44.79942,1,1,8008,4004
9937,15471877,0,0.9789133,0.8076384,1.726684,3.53936,1.65924,-13.10002,0,0,44.79942,1,1,8008,4004
9968,15474267,0,0.9907362,0.7994972,1.737854,3.682683,1.527085,-13.05245,0,0,44.79947,1,1,8008,4004
9972,15477128,0,0.9979361,0.7876204,1.749133,3.817515,1.380073,-12.98678,0,0,44.7995,1,1,8008,4004
9975,15479266,0,0.9953059,0.7782601,1.75681,3.896334,1.272367,-12.92803,0,0,44.7995,1,1,8008,4004
9979,15482121,0,0.9862159,0.7677620000000001,1.768627,3.983059,1.110345,-12.83489,0,0,44.79948,1,1,8008,4004
10010,15484937,0,0.9842706,0.7631844,1.77709,4.022731,1.003799,-12.78144,0,0,44.79945,1,1,8008,4004
10013,15487126,0,0.9890908,0.7510732,1.787653,4.067378,0.834221,-12.72073,0,0,44.79938,1,1,8008,4004
10016,15489764,0,0.9896083,0.7403443,1.793056,4.084296,0.7036219,-12.68458,0,0,44.79934,1,1,8008,4004
10019,15491942,0,0.9712574,0.7326897,1.800982,4.076454,0.4919707,-12.63095,0,0,44.7993,1,1,8008,4004
10050,15495762,0,0.9583808,0.7308897,1.806541,4.061402,0.3698286,-12.59176,0,0,44.79927,1,1,8008,4004
10053,15497710,0,0.9520802,0.7171246,1.8168,4.046769,0.2182904,-12.52853,0,0,44.79927,1,1,8008,4004
10056,15499928,0,0.9490199,0.6997636,1.825282,4.030894,0.1240623,-12.48458,0,0,44.79928,1,1,8008,4004
10060,15502079,0,0.9342958,0.679843,1.842101,3.978318,0.01574272,-12.42356,0,0,44.79932,1,1,8008,4004
10091,15504323,0,0.9273420999999999,0.6769898,1.854913,3.937595,-0.02012598,-12.38057,0,0,44.79938,1,1,8008,4004
10094,15507866,0,0.9335913,0.6779107,1.872132,3.89899,-0.04635489,-12.29868,0,0,44.7995,1,1,8008,4004
10097,15509951,0,0.9416541,0.6757421,1.881529,3.886684,-0.06572993000000001,-12.23875,0,0,44.79958,1,1,8008,4004
10100,15512869,0,0.9407286,0.6668128,1.893919,3.871916,-0.104463,-12.15715,0,0,44.79971,1,1,8008,4004
10131,15515207,0,0.931777,0.6553574,1.907804,3.874423,-0.1484336,-12.09564,0,0,44.79981,1,1,8008,4004
10134,15518081,0,0.9319636,0.6404072,1.924903,3.905404,-0.2040085,-12.03555,0,0,44.79992,1,1,8008,4004
10137,15520511,0,0.9340327,0.6321923,1.938271,3.930353,-0.2533604,-11.98216,0,0,44.79999,1,1,8008,4004
10141,15523247,0,0.9247004,0.6265737,1.960039,3.961475,-0.3440739,-11.87995,0,0,44.80009,1,1,8008,4004
10172,15525852,0,0.9113371,0.6252341,1.974594,3.982106,-0.4020336,-11.80069,0,0,44.80016,1,1,8008,4004
10175,15530864,0,0.8922176000000001,0.6060681,2.01053,4.023346,-0.5119502,-11.50657,0,0,44.80038,1,1,8008,4004
10178,15533465,0,0.8875253,0.6004232,2.022023,4.016711,-0.5338753000000001,-11.38689,0,0,44.80048,1,1,8008,4004
10209,15536487,0,0.8728178,0.5960912,2.039886,3.999025,-0.5514498,-11.19722,0,0,44.80062,1,1,8008,4004
10212,15538918,0,0.8617613,0.5951765999999999,2.051723,3.984042,-0.5520452,-11.0821,0,0,44.80072,1,1,8008,4004
10215,15541249,0,0.8514773,0.5963548,2.069898,3.953301,-0.5389305,-10.94622,0,0,44.80083,1,1,8008,4004
10219,15543423,0,0.8476685,0.5987977,2.081818,3.933452,-0.5331534,-10.87461,0,0,44.80091,1,1,8008,4004
10250,15545958,0,0.8369398,0.5992256,2.098472,3.924234,-0.5501935,-10.76735,0,0,44.80101,1,1,8008,4004
10254,15548978,0,0.8233882,0.594429,2.107996,3.936045,-0.5752981,-10.69002,0,0,44.80108,1,1,8008,4004
10257,15551492,0,0.8013648,0.5828349,2.121989,3.970984,-0.6209145,-10.57866,0,0,44.80118,1,1,8008,4004
10261,15553344,0,0.7867718,0.576248,2.132742,3.998618,-0.65659,-10.51732,0,0,44.80125,1,1,8008,4004
10292,15556140,0,0.7625771,0.5717196,2.151436,4.040413,-0.7158896,-10.45344,0,0,44.80135,1,1,8008,4004
10295,15558369,0,0.7465271999999999,0.5698571,2.163553,4.068759,-0.752324,-10.42967,0,0,44.80146,1,1,8008,4004
10298,15561459,0,0.7187179,0.5598493,2.183607,4.106441,-0.7946492000000001,-10.41436,0,0,44.80158,1,1,8008,4004
10301,15564125,0,0.7126086,0.5561641000000001,2.188755,4.123577,-0.8143472,-10.41293,0,0,44.80164,1,1,8008,4004
10336,15567063,0,0.6950226,0.5460133,2.206251,4.132095,-0.8227349,-10.41356,0,0,44.80173,1,1,8008,4004
10339,15569272,0,0.6797981,0.5394852,2.227899,4.115855,-0.7939706,-10.40412,0,0,44.8018,1,1,8008,4004
10342,15571475,0,0.671241,0.5314267,2.249394,4.09619,-0.7544261,-10.38706,0,0,44.80184,1,1,8008,4004
10346,15574373,0,0.6674698,0.5262758,2.263696,4.049155,-0.6710079,-10.3509,0,0,44.80187,1,1,8008,4004
10377,15577511,0,0.6618119,0.5216448,2.2932,3.975915,-0.5624104,-10.30971,0,0,44.80184,1,1,8008,4004
10380,15579038,0,0.663672,0.5200931,2.308534,3.917611,-0.4795709,-10.28024,0,0,44.8018,1,1,8008,4004
10383,15581583,0,0.6673481999999999,0.5165448,2.323705,3.859348,-0.3971575,-10.24658,0,0,44.80178,1,1,8008,4004
10386,15584496,0,0.6714863,0.5114337,2.347383,3.774229,-0.2913447,-10.18833,0,0,44.80173,1,1,8008,4004
10417,15587457,0,0.6723517,0.5126125,2.372988,3.693115,-0.2124001,-10.13047,0,0,44.80169,1,1,8008,4004
10420,15589746,0,0.673905,0.5145029,2.390079,3.648734,-0.1767667,-10.10167,0,0,44.80168,1,1,8008,4004
10423,15591776,0,0.6778834,0.5152044,2.412953,3.605621,-0.1530461,-10.08037,0,0,44.80167,1,1,8008,4004
10427,15594348,0,0.678728,0.514161,2.427756,3.591351,-0.1568133,-10.07884,0,0,44.80169,1,1,8008,4004
10458,15597356,0,0.6754045,0.5119371,2.450773,3.586496,-0.1834633,-10.08899,0,0,44.80171,1,1,8008,4004
10461,15600214,0,0.6719619999999999,0.5102004,2.466454,3.596316,-0.2083875,-10.0955,0,0,44.80174,1,1,8008,4004
10464,15602113,0,0.6673675999999999,0.5080308,2.491025,3.627186,-0.251204,-10.09818,0,0,44.80177,1,1,8008,4004
10467,15604362,0,0.663349,0.5065279,2.5079,3.650201,-0.2814567,-10.0955,0,0,44.80177,1,1,8008,4004
10498,15606875,0,0.6555342,0.5018834,2.532908,3.68103,-0.3270321,-10.08976,0,0,44.80177,1,1,8008,4004
10501,15615275,0,0.6511445,0.489786,2.596845,3.693983,-0.3842768,-10.08969,0,0,44.80169,1,1,8008,4004
10533,15617558,0,0.6553442,0.4856543,2.618824,3.679281,-0.3763012,-10.06735,0,0,44.80169,1,1,8008,4004
10536,15620497,0,0.6575002,0.4829481,2.632095,3.673697,-0.3648372,-10.04241,0,0,44.8017,1,1,8008,4004
10539,15623502,0,0.6608982,0.4799454,2.651625,3.673972,-0.3339561,-10.00124,0,0,44.8017,1,1,8008,4004
10542,15625849,0,0.6662517999999999,0.4777478,2.664111,3.684263,-0.3035259,-9.974138999999999,0,0,44.8017,1,1,8008,4004
10573,15628044,0,0.6773112,0.4700669,2.679868,3.726081,-0.2508266,-9.934868,0,0,44.80174,1,1,8008,4004
10577,15630767,0,0.6835839,0.4612125,2.688353,3.772109,-0.2185214,-9.911196,0,0,44.80177,1,1,8008,4004
10580,15633254,0,0.6898839,0.4473603,2.700137,3.855725,-0.1734916,-9.889154,0,0,44.80177,1,1,8008,4004
10583,15636476,0,0.6951934,0.4403288,2.707671,3.915122,-0.1418907,-9.887416999999999,0,0,44.80175,1,1,8008,4004
10614,15639307,0,0.7140552,0.4261196,2.722642,4.031371,-0.07284983,-9.907909,0,0,44.80171,1,1,8008,4004
10617,15641497,0,0.7238959,0.4180158,2.727724,4.083327,-0.03840242,-9.920743999999999,0,0,44.80172,1,1,8008,4004
10620,15644051,0,0.732662,0.4051444,2.733326,4.1453,0.01560879,-9.932831999999999,0,0,44.80175,1,1,8008,4004
10623,15646891,0,0.7365957,0.3974216,2.736329,4.174152,0.05936153,-9.938715999999999,0,0,44.80178,1,1,8008,4004
10654,15649725,0,0.7503701,0.3866107,2.740822,4.201643,0.14033,-9.949223999999999,0,0,44.8018,1,1,8008,4004
10658,15651558,0,0.773513,0.3743631,2.744784,4.213768,0.2259271,-9.952639,0,0,44.80181,1,1,8008,4004
10661,15654473,0,0.7899427,0.3665423,2.748601,4.215971,0.2758371,-9.948767,0,0,44.8018,1,1,8008,4004
10664,15657275,0,0.8044708,0.3587634,2.753202,4.207551,0.3340628,-9.934202000000001,0,0,44.80182,1,1,8008,4004
10697,15660323,0,0.8251548,0.3442562,2.761107,4.197718,0.3615824,-9.924678999999999,0,0,44.80185,1,1,8008,4004
10700,15662467,0,0.8515627,0.3288277,2.769096,4.179185,0.3844924,-9.915362999999999,0,0,44.80186,1,1,8008,4004
10703,15664483,0,0.8686566,0.3190462,2.773887,4.161992,0.3807816,-9.907565,0,0,44.80184,1,1,8008,4004
10706,15667202,0,0.8878433999999999,0.3081838,2.779535,4.108701,0.3221107,-9.881602000000001,0,0,44.80178,1,1,8008,4004
10741,15670132,0,0.9003867,0.3056444,2.782458,4.091262,0.3005498,-9.869019,0,0,44.80173,1,1,8008,4004
10745,15672467,0,0.9187313,0.2990721,2.787195,4.037226,0.2193963,-9.814958000000001,0,0,44.80161,1,1,8008,4004
10748,15674998,0,0.9278048,0.289823,2.789107,4.00358,0.1497213,-9.776923999999999,0,0,44.80154,1,1,8008,4004
10751,15677550,0,0.9342743999999999,0.2771346,2.790584,3.948457,0.03589793,-9.73771,0,0,44.80146,1,1,8008,4004
10753,15718476,0,1.218508,0.1807934,2.729554,3.624105,-0.2877405,-9.794926999999999,0,0,44.80115,1,1,8008,4004
10784,15721265,0,1.234463,0.1767655,2.725561,3.597826,-0.382367,-9.781968000000001,0,0,44.80114,1,1,8008,4004
10789,15724221,0,1.24379,0.1734209,2.720691,3.567834,-0.4543768,-9.76282,0,0,44.80113,1,1,8008,4004
10792,15726735,0,1.256398,0.1686073,2.710805,3.500721,-0.5708192,-9.722426,0,0,44.80111,1,1,8008,4004
10795,15728572,0,1.263506,0.1677404,2.704716,3.44509,-0.6524141,-9.694773,0,0,44.8011,1,1,8008,4004
10826,15731455,0,1.273209,0.1703291,2.69568,3.354804,-0.7758057,-9.657000999999999,0,0,44.80109,1,1,8008,4004
10829,15733542,0,1.278607,0.1727048,2.690203,3.295993,-0.8548623,-9.634895999999999,0,0,44.80108,1,1,8008,4004
10832,15736765,0,1.286338,0.170264,2.682513,3.223612,-0.9642397,-9.610696000000001,0,0,44.80106,1,1,8008,4004
10835,15738924,0,1.290635,0.1665839,2.676624,3.188303,-1.031272,-9.60256,0,0,44.80105,1,1,8008,4004
10866,15741727,0,1.296063,0.1629192,2.66792,3.15173,-1.120919,-9.599888999999999,0,0,44.80103,1,1,8008,4004
10870,15743948,0,1.299203,0.1623026,2.662114,3.138466,-1.174649,-9.600671999999999,0,0,44.80103,1,1,8008,4004
10873,15746309,0,1.3035,0.161048,2.65375,3.137593,-1.250622,-9.606911,0,0,44.80101,1,1,8008,4004
10876,15749232,0,1.304556,0.1599153,2.647385,3.14536,-1.29965,-9.619211999999999,0,0,44.80098,1,1,8008,4004
10907,15752002,0,1.306105,0.1579556,2.632854,3.157746,-1.389947,-9.671288000000001,0,0,44.80092,1,1,8008,4004
10911,15754331,0,1.307663,0.1574124,2.62729,3.15699,-1.428912,-9.707754,0,0,44.8009,1,1,8008,4004
10914,15756971,0,1.31012,0.1562583,2.620261,3.14574,-1.480053,-9.763726999999999,0,0,44.80084,1,1,8008,4004
10917,15759907,0,1.310669,0.155142,2.615573,3.126973,-1.505215,-9.798279000000001,0,0,44.80081,1,1,8008,4004
10950,15762341,0,1.311413,0.1531361,2.607576,3.079687,-1.52159,-9.842238999999999,0,0,44.80084,1,1,8008,4004
10953,15765449,0,1.31616,0.1516059,2.600106,3.011523,-1.506864,-9.870620000000001,0,0,44.8009,1,1,8008,4004
10956,15767975,0,1.322421,0.1506321,2.595145,2.959004,-1.477337,-9.881551999999999,0,0,44.80098,1,1,8008,4004
10959,15770636,0,1.335572,0.1498557,2.586973,2.876356,-1.401093,-9.883912,0,0,44.80109,1,1,8008,4004
10994,15773356,0,1.352923,0.1508994,2.576959,2.794065,-1.291674,-9.870125,0,0,44.80123,1,1,8008,4004
10998,15775895,0,1.367202,0.1528781,2.570167,2.742109,-1.20218,-9.855149000000001,0,0,44.8013,1,1,8008,4004
11001,15778120,0,1.393062,0.1584525,2.559428,2.670477,-1.053044,-9.829305,0,0,44.80145,1,1,8008,4004
11004,15781074,0,1.413689,0.164059,2.551967,2.630285,-0.9539649,-9.810751,0,0,44.80153,1,1,8008,4004
11035,15783978,0,1.44615,0.1723241,2.540408,2.586871,-0.8221585,-9.778271,0,0,44.80171,1,1,8008,4004
11038,15786346,0,1.476755,0.1771099,2.525865,2.566192,-0.7261505,-9.747653,0,0,44.8019,1,1,8008,4004
11041,15788564,0,1.495066,0.180218,2.514476,2.561003,-0.6884451,-9.733552,0,0,44.80202,1,1,8008,4004
11044,15791459,0,1.521071,0.1857527,2.497996,2.559549,-0.6776386,-9.721938,0,0,44.80219,1,1,8008,4004
11075,15794281,0,1.545446,0.1888393,2.482328,2.563769,-0.7260696,-9.709932999999999,0,0,44.80241,1,1,8008,4004
11079,15796510,0,1.558735,0.1904383,2.471896,2.567723,-0.7910603,-9.694547,0,0,44.80257,1,1,8008,4004
11082,15799045,0,1.571097,0.1947276,2.455053,2.569405,-0.9286845,-9.661752,0,0,44.80288,1,1,8008,4004
11085,15801535,0,1.57272,0.1996494,2.442071,2.568712,-1.042247,-9.642108,0,0,44.80297,1,1,8008,4004
11116,15804297,0,1.568891,0.2092977,2.421403,2.567175,-1.234622,-9.637755,0,0,44.80315,1,1,8008,4004
11119,15807637,0,1.565338,0.2149693,2.406597,2.564066,-1.374878,-9.656663,0,0,44.8033,1,1,8008,4004
11122,15809541,0,1.559462,0.2222015,2.383922,2.556583,-1.599957,-9.712065000000001,0,0,44.8035,1,1,8008,4004
11127,15811957,0,1.55263,0.2299561,2.361563,2.555458,-1.831498,-9.776738999999999,0,0,44.80359,1,1,8008,4004
11159,15815960,0,1.546581,0.2339396,2.347199,2.561157,-1.984431,-9.816974999999999,0,0,44.80375,1,1,8008,4004
11163,15818124,0,1.531719,0.2377723,2.32563,2.578253,-2.202006,-9.867383,0,0,44.80392,1,1,8008,4004
11166,15820354,0,1.514608,0.2399266,2.30324,2.599325,-2.390332,-9.913838,0,0,44.80408,1,1,8008,4004
11169,15822536,0,1.504365,0.24098,2.287283,2.61284,-2.491346,-9.944974,0,0,44.80416,1,1,8008,4004
11200,15825460,0,1.491921,0.243204,2.262865,2.626125,-2.6055,-9.989610000000001,0,0,44.80427,1,1,8008,4004
11204,15827505,0,1.484531,0.2465299,2.247057,2.626343,-2.657884,-10.01658,0,0,44.80436,1,1,8008,4004
11207,15830567,0,1.47172,0.2526408,2.222905,2.61237,-2.70084,-10.06037,0,0,44.80449,1,1,8008,4004
11210,15832611,0,1.463632,0.256568,2.206211,2.592382,-2.705565,-10.09832,0,0,44.80458,1,1,8008,4004
11241,15835307,0,1.455899,0.2640308,2.181958,2.547335,-2.677585,-10.17699,0,0,44.80471,1,1,8008,4004
11244,15837749,0,1.454611,0.2690871,2.166466,2.512289,-2.637872,-10.23693,0,0,44.80481,1,1,8008,4004
11247,15840534,0,1.456387,0.2744161,2.143669,2.460334,-2.557392,-10.31856,0,0,44.80497,1,1,8008,4004
11250,15842959,0,1.458492,0.2776298,2.129784,2.425822,-2.493595,-10.36083,0,0,44.80508,1,1,8008,4004
11281,15845551,0,1.462363,0.2835087,2.112137,2.3759,-2.382148,-10.40299,0,0,44.80525,1,1,8008,4004
11286,15847945,0,1.470118,0.2901051,2.094967,2.332664,-2.255816,-10.42624,0,0,44.80544,1,1,8008,4004
11289,15850756,0,1.479403,0.2942148,2.083276,2.3061,-2.170318,-10.43278,0,0,44.80557,1,1,8008,4004
11292,15853532,0,1.494254,0.3015341,2.066374,2.267901,-2.048503,-10.43661,0,0,44.80582,1,1,8008,4004
11323,15856589,0,1.507034,0.3093925,2.049251,2.237747,-1.933036,-10.43692,0,0,44.80611,1,1,8008,4004
11326,15858539,0,1.516869,0.3147125,2.037736,2.224112,-1.859065,-10.43942,0,0,44.80627,1,1,8008,4004
11329,15860930,0,1.536607,0.3238317,2.020569,2.2072,-1.752533,-10.44909,0,0,44.80648,1,1,8008,4004
11332,15863420,0,1.551643,0.3315308,2.009347,2.197921,-1.68511,-10.45792,0,0,44.8066,1,1,8008,4004
11365,15866690,0,1.573043,0.3425724,1.991332,2.190197,-1.591321,-10.46996,0,0,44.80686,1,1,8008,4004
11369,15868950,0,1.587137,0.3472991,1.978242,2.188208,-1.533332,-10.47078,0,0,44.80699,1,1,8008,4004
11372,15870891,0,1.609714,0.3533091,1.957614,2.182751,-1.457365,-10.45041,0,0,44.8072,1,1,8008,4004
11375,15873359,0,1.625639,0.3585041,1.944138,2.175962,-1.418306,-10.42194,0,0,44.80734,1,1,8008,4004
11410,15876465,0,1.648957,0.3670284,1.92344,2.159968,-1.382853,-10.36925,0,0,44.80755,1,1,8008,4004
11414,15879084,0,1.66168,0.373079,1.909006,2.14182,-1.3757,-10.33483,0,0,44.80768,1,1,8008,4004
11417,15881486,0,1.678558,0.3812243,1.888948,2.100657,-1.385364,-10.28649,0,0,44.80793,1,1,8008,4004
11420,15883326,0,1.691108,0.3870952,1.875856,2.069382,-1.40402,-10.25485,0,0,44.80806,1,1,8008,4004
11451,15886512,0,1.710734,0.3957483,1.856562,2.020927,-1.457233,-10.2029,0,0,44.80827,1,1,8008,4004
11455,15888354,0,1.721504,0.4022316,1.844849,1.991271,-1.513012,-10.1658,0,0,44.80847,1,1,8008,4004
11458,15891369,0,1.732242,0.4145792,1.827564,1.956746,-1.620919,-10.1088,0,0,44.80867,1,1,8008,4004
11461,15893911,0,1.738533,0.4224756,1.815026,1.944164,-1.703139,-10.06957,0,0,44.8088,1,1,8008,4004
11492,15896241,0,1.747362,0.4324127,1.795758,1.940543,-1.840403,-10.0134,0,0,44.80899,1,1,8008,4004
11496,15899053,0,1.750074,0.4417075,1.777396,1.949613,-1.992842,-9.966347000000001,0,0,44.80919,1,1,8008,4004
11499,15901526,0,1.748262,0.4478856,1.76538,1.959114,-2.096323,-9.941032999999999,0,0,44.80938,1,1,8008,4004
11502,15904431,0,1.744956,0.4567575,1.747294,1.976833,-2.247647,-9.909485999999999,0,0,44.80962,1,1,8008,4004
11533,15907466,0,1.740754,0.4641259,1.73044,1.984894,-2.390476,-9.885386,0,0,44.80979,1,1,8008,4004
11536,15909472,0,1.736921,0.47092,1.719968,1.977455,-2.474265,-9.873863,0,0,44.80996,1,1,8008,4004
11540,15912040,0,1.729288,0.4846165,1.704316,1.950405,-2.570516,-9.862524000000001,0,0,44.81017,1,1,8008,4004
11543,15914481,0,1.724734,0.4925601,1.693741,1.928044,-2.610976,-9.859995,0,0,44.81033,1,1,8008,4004
11574,15921209,0,1.723609,0.5136634,1.65913,1.847245,-2.602669,-9.884536000000001,0,0,44.81088,1,1,8008,4004
11578,15923025,0,1.734979,0.5281192,1.644094,1.815764,-2.537681,-9.903203,0,0,44.81107,1,1,8008,4004
11581,15925356,0,1.744649,0.5360838,1.634416,1.808276,-2.484742,-9.912044,0,0,44.8112,1,1,8008,4004
11612,15928293,0,1.758354,0.5442913,1.61969,1.808674,-2.401837,-9.920118,0,0,44.81139,1,1,8008,4004
11615,15930297,0,1.767664,0.5483325,1.609261,1.813213,-2.347388,-9.926849000000001,0,0,44.81153,1,1,8008,4004
11618,15933140,0,1.777962,0.5533369,1.599108,1.821037,-2.296329,-9.938613999999999,0,0,44.81168,1,1,8008,4004
11621,15935229,0,1.793654,0.5619707,1.585025,1.838846,-2.230738,-9.964487999999999,0,0,44.81192,1,1,8008,4004
11652,15937772,0,1.804088,0.5672609,1.576507,1.852303,-2.197102,-9.983221,0,0,44.81205,1,1,8008,4004
11655,15940728,0,1.817827,0.5761802,1.564503,1.869017,-2.164019,-10.00298,0,0,44.81226,1,1,8008,4004
11659,15942497,0,1.824612,0.5831354,1.555544,1.876588,-2.151268,-10.0072,0,0,44.8124,1,1,8008,4004
11662,15945773,0,1.833256,0.5949327,1.541014,1.880209,-2.141296,-9.994037000000001,0,0,44.81261,1,1,8008,4004
11693,15948098,0,1.843963,0.6061174,1.525702,1.873,-2.138796,-9.956694000000001,0,0,44.81286,1,1,8008,4004
11697,15951113,0,1.852561,0.612873,1.516088,1.864837,-2.137356,-9.919250999999999,0,0,44.81303,1,1,8008,4004
11701,15953503,0,1.866872,0.621849,1.501957,1.85008,-2.125768,-9.849449999999999,0,0,44.81328,1,1,8008,4004
11704,15955946,0,1.883044,0.6312972,1.487354,1.835909,-2.111832,-9.800839,0,0,44.81345,1,1,8008,4004
11735,15958722,0,1.895152,0.6396127,1.476925,1.806431,-2.086881,-9.726571,0,0,44.81378,1,1,8008,4004
11738,15960890,0,1.907598,0.6488934,1.465926,1.78438,-2.072568,-9.675894,0,0,44.81395,1,1,8008,4004
11741,15963274,0,1.925629,0.6615548,1.448896,1.75212,-2.066544,-9.602143999999999,0,0,44.81419,1,1,8008,4004
11744,15966266,0,1.941266,0.6725589,1.429984,1.731822,-2.079689,-9.551185,0,0,44.81432,1,1,8008,4004
11775,15969275,0,1.948411,0.6802974000000001,1.416284,1.70493,-2.13706,-9.467293,0,0,44.81459,1,1,8008,4004
11778,15971319,0,1.954368,0.6948998,1.396713,1.690567,-2.246916,-9.377563,0,0,44.81477,1,1,8008,4004
11782,15973543,0,1.956881,0.7049785,1.383318,1.692982,-2.347358,-9.321459000000001,0,0,44.8149,1,1,8008,4004
11785,15976267,0,1.955801,0.719183,1.361411,1.711738,-2.534841,-9.237627,0,0,44.81509,1,1,8008,4004
11820,15979766,0,1.946087,0.7328042,1.338397,1.747964,-2.759737,-9.138799000000001,0,0,44.81538,1,1,8008,4004
11823,15981858,0,1.934693,0.7412945,1.322957,1.782535,-2.919259,-9.065170999999999,0,0,44.81553,1,1,8008,4004
11826,15983634,0,1.920811,0.7481543,1.307184,1.822675,-3.077732,-8.991951,0,0,44.81567,1,1,8008,4004
11829,15986227,0,1.898514,0.7565464,1.283746,1.881138,-3.307302,-8.899715,0,0,44.8159,1,1,8008,4004
11860,15988575,0,1.881254,0.7630878,1.268015,1.912015,-3.454521,-8.856605,0,0,44.81614,1,1,8008,4004
11863,15991902,0,1.84874,0.7770855,1.24671,1.942438,-3.657141,-8.819253,0,0,44.81634,1,1,8008,4004
11867,15994073,0,1.82641,0.786392,1.231617,1.953264,-3.771888,-8.806661999999999,0,0,44.81646,1,1,8008,4004
11870,15996375,0,1.796356,0.7968785,1.208193,1.956503,-3.915385,-8.795914,0,0,44.81662,1,1,8008,4004
11901,15998874,0,1.769829,0.80527,1.185871,1.94369,-4.027792,-8.786749,0,0,44.81681,1,1,8008,4004
11905,16001330,0,1.752515,0.8118206,1.17178,1.929826,-4.083996,-8.778980000000001,0,0,44.8169,1,1,8008,4004
11909,16004333,0,1.727605,0.8224898,1.1527,1.909377,-4.140107,-8.750826,0,0,44.81704,1,1,8008,4004
11912,16006649,0,1.713152,0.8285365,1.141144,1.898738,-4.159791,-8.717877,0,0,44.81715,1,1,8008,4004
11943,16009703,0,1.697404,0.8368658,1.123836,1.880807,-4.161356,-8.65582,0,0,44.81734,1,1,8008,4004
11946,16011519,0,1.690717,0.8429314,1.113036,1.864603,-4.142999,-8.613860000000001,0,0,44.81747,1,1,8008,4004
11949,16014263,0,1.681155,0.8525222,1.098858,1.835593,-4.092797,-8.559711999999999,0,0,44.81765,1,1,8008,4004
11952,16018007,0,1.674695,0.8578493,1.089377,1.813711,-4.049224,-8.533937,0,0,44.81783,1,1,8008,4004
11955,16019281,0,1.666484,0.86691,1.074942,1.771615,-3.968961,-8.512559,0,0,44.818,1,1,8008,4004
11986,16023336,0,1.664894,0.8799477999999999,1.059633,1.718935,-3.872076,-8.498521999999999,0,0,44.81818,1,1,8008,4004
11989,16024989,0,1.669729,0.8931964999999999,1.0461,1.665725,-3.769211,-8.469545,0,0,44.81837,1,1,8008,4004
11993,16028248,0,1.671983,0.9001082,1.037886,1.630394,-3.700466,-8.437529,0,0,44.81857,1,1,8008,4004
11996,16030211,0,1.671522,0.9098705,1.026469,1.570043,-3.589739,-8.361439000000001,0,0,44.81883,1,1,8008,4004
12027,16032885,0,1.672294,0.9173702,1.018534,1.524268,-3.506634,-8.289542000000001,0,0,44.81907,1,1,8008,4004
12031,16035306,0,1.682094,0.9295987,1.006168,1.452165,-3.373488,-8.155441,0,0,44.81937,1,1,8008,4004
12034,16038111,0,1.692671,0.9383051,0.9991481,1.400065,-3.287086,-8.053679000000001,0,0,44.81954,1,1,8008,4004
12037,16040364,0,1.707692,0.9539301,0.9896351,1.311611,-3.168072,-7.899507,0,0,44.81978,1,1,8008,4004
12068,16042982,0,1.720282,0.9726904,0.9809501,1.218539,-3.058601,-7.763702,0,0,44.82003,1,1,8008,4004
12072,16045300,0,1.731996,0.9845391999999999,0.9750176,1.15954,-2.989995,-7.685072,0,0,44.8202,1,1,8008,4004
12075,16047885,0,1.754682,0.9997813,0.9667876,1.078467,-2.9016,-7.571971,0,0,44.82045,1,1,8008,4004
12080,16051052,0,1.764124,1.010315,0.9617162,1.026621,-2.866301,-7.497225,0,0,44.82062,1,1,8008,4004
12111,16053900,0,1.759591,1.028348,0.9549664,0.9552551,-2.866224,-7.412418,0,0,44.82093,1,1,8008,4004
12115,16056276,0,1.744499,1.047756,0.9483057,0.8920202,-2.912759,-7.375154,0,0,44.82117,1,1,8008,4004
12118,16058937,0,1.745116,1.061471,0.9439084,0.8529551,-2.960294,-7.346337,0,0,44.82139,1,1,8008,4004
12121,16061066,0,1.762081,1.079893,0.9378458,0.8131531,-3.081127,-7.239657,0,0,44.82167,1,1,8008,4004
12152,16063358,0,1.76139,1.088395,0.9351752,0.8045142,-3.209379,-7.124236,0,0,44.82183,1,1,8008,4004
12156,16066534,0,1.719114,1.0987,0.9312570999999999,0.7932451,-3.432947,-6.946186,0,0,44.82206,1,1,8008,4004
12159,16068288,0,1.682594,1.110047,0.928431,0.7713736,-3.554761,-6.862238,0,0,44.82228,1,1,8008,4004
12162,16071098,0,1.660783,1.130185,0.9258223,0.7320993,-3.672304,-6.804942,0,0,44.82256,1,1,8008,4004
12193,16073933,0,1.664234,1.141205,0.9249823,0.7130115,-3.729268,-6.790917,0,0,44.82269,1,1,8008,4004
12196,16076136,0,1.654954,1.157394,0.9241168,0.6821007,-3.785059,-6.747519,0,0,44.82291,1,1,8008,4004
12199,16079073,0,1.634595,1.168045,0.9229771,0.6626782,-3.772924,-6.688971,0,0,44.82313,1,1,8008,4004
12206,16081256,0,1.618746,1.177865,0.9196942,0.661486,-3.652265,-6.567266,0,0,44.82343,1,1,8008,4004
12239,16084071,0,1.636893,1.185001,0.9161017,0.6815645,-3.450345,-6.436578,0,0,44.82365,1,1,8008,4004
12244,16086972,0,1.654267,1.194642,0.9165712,0.6892272,-3.296113,-6.349714,0,0,44.82381,1,1,8008,4004
12247,16089321,0,1.676417,1.215732,0.9201916999999999,0.7123528,-3.053268,-6.212966,0,0,44.82417,1,1,8008,4004
12250,16091425,0,1.691874,1.224156,0.9213606,0.7486402,-2.90312,-6.113181,0,0,44.82432,1,1,8008,4004
12281,16093702,0,1.719363,1.225234,0.9184927000000001,0.8063207999999999,-2.740992,-5.968473,0,0,44.82465,1,1,8008,4004
12285,16096487,0,1.736923,1.230349,0.9158385,0.8246934,-2.690497,-5.890265,0,0,44.82483,1,1,8008,4004
12288,16098977,0,1.758198,1.25166,0.914353,0.835639,-2.713138,-5.798004,0,0,44.82521,1,1,8008,4004
12291,16101938,0,1.76802,1.265936,0.9119526999999999,0.8473842,-2.801597,-5.741419,0,0,44.82537,1,1,8008,4004
12322,16104670,0,1.771796,1.275018,0.9069614,0.8563749,-3.033702,-5.659752,0,0,44.82566,1,1,8008,4004
12325,16107002,0,1.761856,1.2827,0.9044288,0.8269067,-3.337472,-5.590294,0,0,44.82587,1,1,8008,4004
12328,16109235,0,1.751728,1.293854,0.9038041,0.7941483,-3.550677,-5.549967,0,0,44.82602,1,1,8008,4004
12332,16113010,0,1.738837,1.312131,0.9009265,0.7485294,-3.854377,-5.483386,0,0,44.82634,1,1,8008,4004
12335,16114350,0,1.731208,1.320473,0.8957791000000001,0.7215087,-4.033448,-5.423618,0,0,44.82649,1,1,8008,4004
12367,16117540,0,1.716103,1.331203,0.8864137,0.6844403999999999,-4.244358,-5.300845,0,0,44.82671,1,1,8008,4004
12370,16120005,0,1.704067,1.339689,0.8820563,0.6654664,-4.336982,-5.20581,0,0,44.82686,1,1,8008,4004
