LineNo,TimeUS,I,GyrX,GyrY,GyrZ,AccX,AccY,AccZ,EG,EA,T,GH,AH,GHz,AHz
183,12924263,1,-0.00024782,0.004379479,0.005534157,-0.2857103,-0.1043771,-9.834160000000001,0,0,45.58935,1,1,756,999
214,12927131,1,-0.002169148,0.005402904,0.004596442,-0.2851987,-0.09437921000000001,-9.825424999999999,0,0,45.58935,1,1,755,999
290,12956538,1,0.005708816,0.006647274,0.001392634,-0.3864201,-0.1065737,-9.848119000000001,0,0,45.58985,1,1,755,999
406,12985344,1,-0.005308436,0.01765281,0.001428389,-0.30981,-0.113554,-9.725018,0,0,45.59022,1,1,755,999
521,13013946,1,0.001589215,0.004437172,0.01353031,-0.2687115,-0.189018,-9.805913,0,0,45.59034,1,1,755,999
524,13015333,1,-0.0005613854,0.002359528,0.01145387,-0.2764023,-0.19132,-9.774742,0,0,45.59034,1,1,755,999
635,13035237,1,-0.0008118985,0.004003984,0.004214799,-0.2814693,-0.1830224,-9.810843999999999,0,0,45.59039,1,1,755,999
752,13057329,1,-0.004786472,0.006037837,0.004374382,-0.26897,-0.1311623,-9.830228999999999,0,0,45.59053,1,1,755,999
864,13089340,1,0.0007980907,0.00243684,0.0006001461,-0.2685672,-0.1453489,-9.755891,0,0,45.59083,1,1,755,999
979,13119334,1,0.00492029,0.003320968,-5.54047e-05,-0.3426613,-0.2730312,-9.833921,0,0,45.59096,1,1,755,999
1010,13121997,1,0.003672186,0.009379309000000001,-0.0002895138,-0.3269229,-0.2487921,-9.868529000000001,0,0,45.59096,1,1,755,999
1091,13167693,1,0.001780213,0.001821572,0.003633542,-0.2796301,-0.07647778,-9.760944,0,0,45.59129,1,1,755,999
1122,13170370,1,0.0009038241,0.001618607,0.00732215,-0.2841957,-0.07048371,-9.783357000000001,0,0,45.59129,1,1,755,999
1202,13249127,1,-0.008337429,0.007704589,-0.002398976,-0.3418592,-0.1386767,-9.902424,0,0,45.59226,1,1,755,999
1298,13304111,1,0.004975069,0.001734889,0.006589715,-0.2721661,-0.09478573,-9.818580000000001,0,0,45.59288,1,1,755,999
1385,13318454,1,0.001931212,0.003683694,0.002447042,-0.2671206,-0.1033867,-9.9079,0,0,45.59321,1,1,755,999
1477,13334425,1,0.003052839,0.003395007,0.007782326,-0.312175,-0.09187154,-9.828073,0,0,45.59339,1,1,755,999
1508,13336947,1,0.002671863,-0.002238373,0.007156024,-0.2912636,-0.07841316,-9.805971,0,0,45.59357,1,1,755,999
1547,13340446,1,0.002156247,-0.001893061,0.00467098,-0.2803962,-0.08550436,-9.793281,0,0,45.59357,1,1,755,999
1550,13342544,1,0.002859324,-0.001634792,0.00410883,-0.272921,-0.09494052,-9.773313,0,0,45.59357,1,1,755,999
1553,13345557,1,0.00476302,0.001727134,0.00296823,-0.2694836,-0.09913288000000001,-9.762788,0,0,45.59357,1,1,755,999
1584,13347945,1,0.001203878,0.004369184,0.004382504,-0.2659484,-0.109787,-9.739646,0,0,45.59377,1,1,755,999
1587,13350581,1,-7.683355e-06,0.005158257,0.005617771,-0.2582987,-0.1175422,-9.724138999999999,0,0,45.59377,1,1,755,999
1591,13353455,1,-0.003578451,0.005908709,0.006900339,-0.2519341,-0.1303113,-9.709502000000001,0,0,45.59377,1,1,755,999
1594,13355753,1,-0.005259518,0.005824999,0.007180112,-0.2491828,-0.1352704,-9.707852000000001,0,0,45.59377,1,1,755,999
1625,13358477,1,-0.006918401,0.007481872,0.007805197,-0.2629916,-0.1378086,-9.725311,0,0,45.59377,1,1,755,999
1628,13360750,1,-0.003558545,0.009329176,0.007658664,-0.2827123,-0.1398202,-9.726711,0,0,45.594,1,1,755,999
1631,13363124,1,0.001155099,0.008702102999999999,0.008250166,-0.3129794,-0.1252541,-9.746955,0,0,45.594,1,1,755,999
1634,13366015,1,0.004880852,0.008741461000000001,0.008347976,-0.3353148,-0.1121358,-9.772618,0,0,45.594,1,1,755,999
1665,13368247,1,0.0048308,0.01017014,0.008157090000000001,-0.3611754,-0.1064864,-9.797681000000001,0,0,45.594,1,1,755,999
1668,13372298,1,0.003222759,0.01053956,0.007980361,-0.3772341,-0.1166514,-9.801442,0,0,45.59426,1,1,755,999
1672,13373507,1,-0.004852675,0.01142986,0.003041808,-0.3954715,-0.1295326,-9.824346,0,0,45.59426,1,1,755,999
1678,13377053,1,-0.006767246,0.009918926,-0.00244614,-0.4023671,-0.1438617,-9.850111999999999,0,0,45.59426,1,1,755,999
1709,13380716,1,-0.006471941,0.006763217,-0.005409004,-0.40615,-0.1581477,-9.846655,0,0,45.59426,1,1,755,999
1712,13382891,1,-0.006772201,0.002388543,-0.003519497,-0.3944052,-0.1628912,-9.802251999999999,0,0,45.59456,1,1,755,999
1716,13384475,1,-0.006796337,0.000667434,-0.000459363,-0.3777476,-0.1630956,-9.779712999999999,0,0,45.59456,1,1,755,999
1719,13386987,1,-0.006827596,0.001199474,0.0004872089,-0.3619778,-0.1606078,-9.772276,0,0,45.59456,1,1,755,999
1750,13389488,1,-0.005220907,0.003416672,0.001067213,-0.3391282,-0.1623568,-9.773251999999999,0,0,45.59456,1,1,755,999
1753,13392250,1,-0.00399111,0.003332382,0.00153319,-0.3210649,-0.1592872,-9.771209000000001,0,0,45.59456,1,1,755,999
1756,13394982,1,-0.00489748,0.004428577,0.00259514,-0.3036829,-0.156373,-9.767474,0,0,45.59487,1,1,755,999
1759,13397892,1,-0.005320786,0.005193209,0.001476254,-0.294097,-0.1490036,-9.771341,0,0,45.59487,1,1,755,999
1790,13400313,1,-0.002710004,0.005674057,-0.002987257,-0.2884675,-0.1057553,-9.787871000000001,0,0,45.59487,1,1,755,999
1793,13402568,1,0.001275839,0.004632453,-0.00285655,-0.2914819,-0.08624606999999999,-9.807444,0,0,45.59487,1,1,755,999
1799,13405774,1,0.002816599,0.003988373,-0.002107758,-0.3021969,-0.07286049,-9.830684,0,0,45.59517,1,1,755,999
1802,13407907,1,0.003389272,0.003904826,-0.001535875,-0.3104665,-0.0695413,-9.828034000000001,0,0,45.59517,1,1,755,999
1833,13410366,1,0.00348478,0.005317857,0.001134762,-0.3322211,-0.07741047,-9.823404,0,0,45.59517,1,1,755,999
1840,13413478,1,0.002757084,0.006003196,0.001484895,-0.3482229,-0.08564598,-9.831479,0,0,45.59517,1,1,755,999
1843,13415585,1,0.0004660709,0.005928707,0.002560672,-0.3716656,-0.09256196999999999,-9.846748,0,0,45.59545,1,1,755,999
1846,13418341,1,-0.002022772,0.00363922,0.004861069,-0.3856834,-0.08612166,-9.855309,0,0,45.59545,1,1,755,999
1877,13420969,1,-0.001894016,0.002725679,0.005360457,-0.4023248,-0.08498189,-9.851552999999999,0,0,45.59545,1,1,755,999
1880,13423453,1,0.001330658,0.0009384479,0.003728944,-0.4061009,-0.08183855,-9.827864,0,0,45.59545,1,1,755,999
1884,13426090,1,0.00586913,0.001591156,0.005057047,-0.4058795,-0.07405196999999999,-9.810794,0,0,45.59569,1,1,755,999
1887,13429079,1,0.006121463,0.002076325,0.004201584,-0.4161358,-0.07216383,-9.798560999999999,0,0,45.59569,1,1,755,999
1918,13432032,1,0.005100263,0.002271941,0.001829406,-0.4151226,-0.07523386999999999,-9.808973,0,0,45.59569,1,1,755,999
1921,13434103,1,0.004610797,0.0005134728,0.002607191,-0.4035221,-0.06997214,-9.82436,0,0,45.59569,1,1,755,999
1924,13436974,1,0.004349536,0.0009637626,0.003511139,-0.38662,-0.06529393,-9.819478,0,0,45.59591,1,1,755,999
1927,13439626,1,0.005514673,0.002660277,0.00557941,-0.3708178,-0.07925306,-9.795577,0,0,45.59591,1,1,755,999
1958,13442344,1,0.007129319,0.002839761,0.005235534,-0.3533288,-0.09975462,-9.798639,0,0,45.59591,1,1,755,999
1961,13444376,1,0.007364256,0.002941523,0.004389109,-0.3412145,-0.1152012,-9.804154,0,0,45.59591,1,1,755,999
1965,13446955,1,0.006672643,-0.0003171705,7.348211999999999e-05,-0.3317048,-0.1390931,-9.801064,0,0,45.5961,1,1,755,999
1968,13449564,1,0.005998909,-0.001175816,-0.0003454665,-0.3351671,-0.1526639,-9.790820999999999,0,0,45.5961,1,1,755,999
1999,13452441,1,0.004220189,-0.002504472,0.0003629537,-0.3423988,-0.1680969,-9.786671,0,0,45.5961,1,1,755,999
2004,13457932,1,0.006294113,-0.002504124,0.00862046,-0.3163896,-0.1996204,-9.786344,0,0,45.5961,1,1,755,999
2007,13460252,1,0.005040848,-0.0004152452,0.01052282,-0.2982114,-0.2148868,-9.783322,0,0,45.59628,1,1,755,999
2038,13463734,1,0.002531389,0.001931629,0.009082395,-0.2759502,-0.2270393,-9.775191,0,0,45.59628,1,1,755,999
2041,13465879,1,0.001788102,0.004461478,0.006215775,-0.2594541,-0.2272513,-9.783911,0,0,45.59628,1,1,755,999
2044,13467778,1,0.002143578,0.008000907,0.005084421,-0.244764,-0.220779,-9.797897000000001,0,0,45.59628,1,1,755,999
2048,13470471,1,0.0005610456999999999,0.009238905,0.00551815,-0.2254985,-0.2086876,-9.816903999999999,0,0,45.59645,1,1,755,999
2079,13472743,1,-0.0002024336,0.008926366999999999,0.004749825,-0.2268778,-0.2044905,-9.837362000000001,0,0,45.59645,1,1,755,999
2082,13475428,1,0.00126865,0.009648451000000001,0.0005172874,-0.2355468,-0.1881663,-9.869020000000001,0,0,45.59645,1,1,755,999
2085,13478315,1,0.002695149,0.01084913,-0.0004390453,-0.2353626,-0.1814965,-9.885044000000001,0,0,45.59645,1,1,755,999
2089,13480874,1,0.004121952,0.01064482,0.0009558656,-0.2413486,-0.1739537,-9.907372000000001,0,0,45.59661,1,1,755,999
2120,13483942,1,0.002811668,0.0106224,0.00375434,-0.2502351,-0.1628336,-9.931281999999999,0,0,45.59661,1,1,755,999
2123,13486011,1,0.002311549,0.01158733,0.004317709,-0.2569901,-0.1611853,-9.951248,0,0,45.59661,1,1,755,999
2126,13488286,1,0.0005555642,0.009625721,0.006411233,-0.2706195,-0.1559157,-9.957241,0,0,45.59661,1,1,755,999
2129,13491315,1,0.0002788969,0.008683641000000001,0.007311699,-0.2811221,-0.14597,-9.952101000000001,0,0,45.59661,1,1,755,999
2160,13493462,1,0.0007090549,0.007657462,0.008588705,-0.29501,-0.1424779,-9.919581000000001,0,0,45.59678,1,1,755,999
2163,13496734,1,0.001234008,0.006316699,0.01035734,-0.295337,-0.1597705,-9.888007,0,0,45.59678,1,1,755,999
2166,13498854,1,0.001803469,0.004986846,0.01026449,-0.290799,-0.1676916,-9.874727999999999,0,0,45.59678,1,1,755,999
2171,13501551,1,0.001626741,0.002801772,0.007768999,-0.2705017,-0.1849806,-9.88339,0,0,45.59678,1,1,755,999
2202,13503973,1,-0.003264478,0.003816222,0.002473752,-0.2575608,-0.2024132,-9.909438,0,0,45.59693,1,1,755,999
2205,13506559,1,-0.004019326,0.0040745,0.00143401,-0.2466331,-0.2025596,-9.915441,0,0,45.59693,1,1,755,999
2208,13509729,1,-0.002178681,0.0045528,0.0003997946,-0.2291361,-0.1771654,-9.911902,0,0,45.59693,1,1,755,999
2212,13511331,1,-4.688303e-05,0.005485518,0.001865739,-0.2278372,-0.1513682,-9.911325,0,0,45.59693,1,1,755,999
2243,13514350,1,-0.001397533,0.00558784,0.007657181,-0.2333762,-0.1227428,-9.894958000000001,0,0,45.59708,1,1,755,999
2251,13516923,1,-0.003403248,0.005692485,0.01091604,-0.2396045,-0.09933092,-9.868840000000001,0,0,45.59708,1,1,755,999
2254,13519903,1,-0.00320006,0.005036147,0.01081259,-0.2414763,-0.07069775,-9.837647,0,0,45.59708,1,1,755,999
2257,13521309,1,-0.002849825,0.005259375,0.008603296999999999,-0.2506715,-0.04435702,-9.778392,0,0,45.59708,1,1,755,999
2288,13524127,1,-0.002630644,0.007189303,0.005008038,-0.2674721,-0.04811101,-9.716549000000001,0,0,45.59708,1,1,755,999
2291,13527202,1,-0.002790227,0.008297043,0.002519823,-0.2784492,-0.06557649,-9.691393,0,0,45.59721,1,1,755,999
2294,13529256,1,-0.003810829,0.009791011000000001,-0.003523949,-0.2900225,-0.09581058000000001,-9.662433,0,0,45.59721,1,1,755,999
2298,13532127,1,-0.003137955,0.009257959,-0.004156731,-0.3030368,-0.1129999,-9.65253,0,0,45.59721,1,1,755,999
2329,13534599,1,-0.0009669625,0.006955399,-0.003506092,-0.3082304,-0.1553778,-9.651721999999999,0,0,45.59721,1,1,755,999
2332,13537559,1,0.0001263321,0.004934405,-0.0007226379,-0.2961904,-0.1929606,-9.665566999999999,0,0,45.59734,1,1,755,999
2335,13539927,1,-0.0008838788,0.004668645,-0.0004732181,-0.2835116,-0.2308503,-9.687478,0,0,45.59734,1,1,755,999
2338,13542224,1,-0.002932605,0.00470344,-0.002467287,-0.2717165,-0.2800721,-9.740665999999999,0,0,45.59734,1,1,755,999
2369,13544996,1,-0.002898313,0.005869579,-0.003556897,-0.2661602,-0.2998654,-9.766054,0,0,45.59734,1,1,755,999
2372,13547228,1,-0.001472017,0.00442074,-0.002334947,-0.267723,-0.2989028,-9.784915,0,0,45.59747,1,1,755,999
2375,13550951,1,-0.002641715,0.00156181,-0.0007010584,-0.2811738,-0.28333,-9.781827,0,0,45.59747,1,1,755,999
2378,13552163,1,-0.003013622,0.002395633,-0.0004999763,-0.3005074,-0.248996,-9.774228000000001,0,0,45.59747,1,1,755,999
2410,13555013,1,-0.0002462462,0.005436008,0.0007251777,-0.2977929,-0.2218855,-9.781783000000001,0,0,45.59747,1,1,755,999
2413,13557455,1,0.002258399,0.006755922,0.004037146,-0.2964779,-0.1874516,-9.809744,0,0,45.59761,1,1,755,999
2416,13560934,1,0.00250815,0.00599392,0.006477314,-0.3022414,-0.1636377,-9.833189000000001,0,0,45.59761,1,1,755,999
2419,13563603,1,0.001574802,0.002022828,0.01100846,-0.2965887,-0.1378725,-9.845230000000001,0,0,45.59761,1,1,755,999
2422,13565210,1,0.002202526,-0.001159008,0.01071648,-0.293734,-0.1241855,-9.823148,0,0,45.59761,1,1,755,999
2453,13567506,1,0.002530252,-0.001424399,0.009305315999999999,-0.2939853,-0.1149336,-9.795149,0,0,45.59761,1,1,755,999
2456,13570437,1,0.001660853,0.0002482627,0.004492716,-0.2905515,-0.1072975,-9.742616999999999,0,0,45.59774,1,1,755,999
2459,13573239,1,0.001170587,0.001322228,0.003893473,-0.2951334,-0.106409,-9.711888999999999,0,0,45.59774,1,1,755,999
2463,13576287,1,0.001808847,0.002613543,0.004870262,-0.3040817,-0.1353373,-9.698607000000001,0,0,45.59774,1,1,755,999
2466,13577846,1,0.002735524,0.003506763,0.006538864,-0.3056222,-0.1632291,-9.702223999999999,0,0,45.59774,1,1,755,999
2497,13580363,1,0.003441393,0.00324294,0.006073812,-0.3199979,-0.1950764,-9.703753000000001,0,0,45.59789,1,1,755,999
2500,13582727,1,0.004938602,0.002774541,0.004698575,-0.3241969,-0.2054422,-9.721272000000001,0,0,45.59789,1,1,755,999
2504,13585967,1,0.006523582,0.004718336,0.004391056,-0.329598,-0.2191031,-9.757974000000001,0,0,45.59789,1,1,755,999
2507,13588336,1,0.005453615,0.00443896,0.003610229,-0.3251347,-0.2201889,-9.775629,0,0,45.59789,1,1,755,999
2538,13590860,1,-0.0009456607,0.00382957,-0.002529753,-0.2931305,-0.2045464,-9.754203,0,0,45.59803,1,1,755,999
2541,13593312,1,-0.0007543272,0.003428441,-0.002458328,-0.2858314,-0.1870327,-9.732592,0,0,45.59803,1,1,755,999
2544,13597008,1,0.001579361,0.002858988,-0.001222489,-0.2937379,-0.1582098,-9.706758000000001,0,0,45.59803,1,1,755,999
2547,13598760,1,-0.0001303748,0.0006265865,1.550135e-05,-0.3066417,-0.1502204,-9.704793,0,0,45.59803,1,1,755,999
2578,13601340,1,-0.001622318,-0.0001395389,0.001940833,-0.3130061,-0.1505682,-9.706511000000001,0,0,45.59817,1,1,755,999
2583,13603982,1,-0.00159275,0.0003304427,0.002974361,-0.3132128,-0.1510145,-9.716386999999999,0,0,45.59817,1,1,755,999
2587,13606328,1,0.00171272,0.0008265917,0.008507162,-0.3158551,-0.1556995,-9.735897,0,0,45.59817,1,1,755,999
2590,13609717,1,0.003536586,0.001250334,0.009632735999999999,-0.3238901,-0.1553559,-9.75238,0,0,45.59817,1,1,755,999
2621,13612362,1,0.004231564,0.002890983,0.005842145,-0.3352135,-0.1457802,-9.772434000000001,0,0,45.59832,1,1,755,999
2624,13614444,1,0.002608621,0.005294006,0.00165375,-0.3446025,-0.1395374,-9.793818,0,0,45.59832,1,1,755,999
2627,13617277,1,0.00222632,0.007439245,-0.001917586,-0.3515584,-0.1430653,-9.819283,0,0,45.59832,1,1,755,999
2635,13620128,1,0.003173478,0.007855579999999999,-0.002786902,-0.3437153,-0.1539194,-9.827812,0,0,45.59832,1,1,755,999
2666,13622923,1,0.004094183,0.007652721,-0.001500579,-0.3347349,-0.1670544,-9.840508,0,0,45.59832,1,1,755,999
2669,13625498,1,0.004182259,0.00539558,0.001356065,-0.3191099,-0.170029,-9.846113000000001,0,0,45.59848,1,1,755,999
2673,13627513,1,0.004803415,0.000678753,0.004602505,-0.3039823,-0.1759871,-9.846541,0,0,45.59848,1,1,755,999
2676,13630333,1,0.004005999,0.0002188571,0.006866919,-0.2885498,-0.1793462,-9.849182000000001,0,0,45.59848,1,1,755,999
2707,13632490,1,0.003270224,0.0007018521,0.007254158,-0.2809097,-0.18346,-9.841583999999999,0,0,45.59848,1,1,755,999
2710,13635441,1,0.001408272,0.001006433,0.004594588,-0.2839092,-0.1991122,-9.825355999999999,0,0,45.59864,1,1,755,999
2713,13638260,1,0.001563312,0.0007636664,0.004206316,-0.2793787,-0.2061619,-9.826677,0,0,45.59864,1,1,755,999
2716,13640521,1,0.003057091,0.0006808011,0.004122911,-0.2662046,-0.2047818,-9.833841,0,0,45.59864,1,1,755,999
2747,13642994,1,0.006163315,0.004531764,0.006810899,-0.2621745,-0.1901982,-9.841820999999999,0,0,45.59864,1,1,755,999
2750,13645766,1,0.006799516,0.005669672,0.008157627000000001,-0.2687195,-0.1732011,-9.85385,0,0,45.5988,1,1,755,999
2754,13648471,1,0.006122595,0.006870087,0.01007159,-0.2927326,-0.1552458,-9.850728,0,0,45.5988,1,1,755,999
2757,13651047,1,0.005292303,0.00466001,0.009579548,-0.3099932,-0.1539069,-9.836848,0,0,45.5988,1,1,755,999
2788,13653295,1,0.004289092,0.0007623742,0.006768357,-0.3271193,-0.1559574,-9.815006,0,0,45.5988,1,1,755,999
2791,13656248,1,0.001549858,0.002185678,-0.0004417874,-0.3457471,-0.1673965,-9.805251,0,0,45.5988,1,1,755,999
2795,13658333,1,0.002473689,0.00528225,-0.0004430167,-0.3549153,-0.17435,-9.811242999999999,0,0,45.59896,1,1,755,999
2800,13667119,1,0.007646086,0.006558965,0.001371309,-0.3377883,-0.1584681,-9.830263,0,0,45.59896,1,1,755,999
2831,13669739,1,0.003233624,0.009151998,-0.0004157475,-0.3337291,-0.1480416,-9.789889000000001,0,0,45.59912,1,1,755,999
2834,13672453,1,-0.002973862,0.009282097,-0.0004095755,-0.3381609,-0.1438584,-9.735671999999999,0,0,45.59912,1,1,755,999
2837,13675121,1,-0.002729674,0.007855052,-0.0003806219,-0.3352422,-0.150643,-9.714057,0,0,45.59912,1,1,755,999
2840,13677263,1,-0.0006283686,0.005411401,0.0002693749,-0.3192766,-0.1719133,-9.701456,0,0,45.59912,1,1,755,999
2871,13679728,1,-0.0007225083,0.002633982,0.0003654826,-0.3112086,-0.186332,-9.696477,0,0,45.59927,1,1,755,999
2876,13682243,1,-0.00312455,-0.0004262769,-0.000774138,-0.3002331,-0.1972858,-9.686123,0,0,45.59927,1,1,755,999
2879,13685014,1,-0.00339954,-0.001707841,-0.0004843922,-0.2998722,-0.198526,-9.678675999999999,0,0,45.59927,1,1,755,999
2882,13687537,1,-0.001027538,-0.001322887,0.0005230219,-0.3011324,-0.2068169,-9.686121999999999,0,0,45.59927,1,1,755,999
2913,13690341,1,0.002080832,0.00043871,0.002765175,-0.2974413,-0.2080708,-9.692005,0,0,45.59937,1,1,755,999
2916,13692582,1,0.003007461,0.003876972,0.005282854,-0.294943,-0.1998151,-9.697889999999999,0,0,45.59937,1,1,755,999
2919,13695442,1,0.001954963,0.006815699,0.005004324,-0.2939055,-0.1761332,-9.703251,0,0,45.59937,1,1,755,999
2922,13697499,1,0.001477172,0.007561001,0.003011684,-0.2917974,-0.161026,-9.710488,0,0,45.59937,1,1,755,999
2953,13700484,1,0.0002558313,0.00640447,-0.001292327,-0.2835807,-0.1536471,-9.697381,0,0,45.59937,1,1,755,999
2957,13702308,1,-0.000926597,0.006423438,-0.002685748,-0.2816446,-0.1665315,-9.676838999999999,0,0,45.59946,1,1,755,999
2960,13705250,1,-0.003141032,0.005446411,-0.0005316129,-0.2743897,-0.2023562,-9.657118000000001,0,0,45.59946,1,1,755,999
2963,13708253,1,-0.002545156,0.005632888,0.0008490637,-0.2715238,-0.213525,-9.660216999999999,0,0,45.59946,1,1,755,999
2994,13710506,1,5.140625e-05,0.007377569,0.004673366,-0.2648382,-0.2305091,-9.664993000000001,0,0,45.59946,1,1,755,999
2999,13713348,1,0.005709822,0.007927594,0.009465064,-0.2735416,-0.2412263,-9.660237,0,0,45.59954,1,1,755,999
3002,13715532,1,0.006862656,0.007672959,0.01028066,-0.2817205,-0.2425919,-9.664526,0,0,45.59954,1,1,755,999
3005,13718493,1,0.006430907,0.005238773,0.009954325999999999,-0.2886012,-0.2358893,-9.665823,0,0,45.59954,1,1,755,999
3036,13720874,1,0.0006046251000000001,0.004835089,0.002154868,-0.2821456,-0.2263809,-9.665010000000001,0,0,45.59954,1,1,755,999
3043,13723879,1,-0.0005658482,0.00685532,-0.0007642459,-0.270224,-0.2095096,-9.673657,0,0,45.5996,1,1,755,999
3046,13726352,1,-0.0006411879,0.009335167,-0.00350554,-0.2534944,-0.1786947,-9.690417999999999,0,0,45.5996,1,1,755,999
3050,13729281,1,-0.001894836,0.008637001,-0.002896433,-0.25298,-0.1618331,-9.692223,0,0,45.5996,1,1,755,999
3081,13732220,1,-0.004931571,0.006560422,-0.001242507,-0.2617375,-0.1505677,-9.695005,0,0,45.5996,1,1,755,999
3085,13734244,1,-0.004154693,0.004680634,0.001368425,-0.2683631,-0.138612,-9.702711000000001,0,0,45.59963,1,1,755,999
3088,13736894,1,-0.003072918,0.00496025,0.005058545,-0.2798406,-0.1362637,-9.722742,0,0,45.59963,1,1,755,999
3091,13739112,1,-0.002367379,0.003080523,0.007938763,-0.3106746,-0.1295495,-9.762378999999999,0,0,45.59963,1,1,755,999
3122,13742286,1,-0.0008775939,0.0005265718,0.009319760999999999,-0.3327897,-0.1234561,-9.800333,0,0,45.59963,1,1,755,999
3125,13744331,1,0.0007133206,-0.0001024959,0.01102076,-0.3587659,-0.1281445,-9.837721,0,0,45.59964,1,1,755,999
3128,13747099,1,0.001832653,0.001276583,0.01008157,-0.3718777,-0.1395815,-9.84633,0,0,45.59964,1,1,755,999
3131,13749536,1,0.002975601,0.003763394,0.006784125,-0.3880858,-0.1401722,-9.840916,0,0,45.59964,1,1,755,999
3162,13751872,1,0.003430392,0.004487521,0.005622245,-0.387744,-0.1370483,-9.829349000000001,0,0,45.59964,1,1,755,999
3166,13755486,1,0.002240804,0.003843076,0.006283189,-0.3795715,-0.1267098,-9.802981000000001,0,0,45.59964,1,1,755,999
3169,13756938,1,0.0008252786,0.003035109,0.00580972,-0.3751289,-0.1288167,-9.796427,0,0,45.59964,1,1,755,999
3172,13759861,1,-0.001590975,0.0003202361,0.002926909,-0.363851,-0.13054,-9.802349,0,0,45.59964,1,1,755,999
3203,13762206,1,-0.0008604806,-0.002180856,0.001869602,-0.3389124,-0.122416,-9.805353,0,0,45.59964,1,1,755,999
3206,13765837,1,0.0004074791,-0.001391465,0.002463898,-0.3222543,-0.1252231,-9.798643999999999,0,0,45.59964,1,1,755,999
3209,13767116,1,0.001263403,-0.0004603811,0.0043947,-0.2995145,-0.1350237,-9.784974999999999,0,0,45.59964,1,1,755,999
3212,13772907,1,0.003382622,-0.002369846,0.004115272,-0.2832655,-0.151021,-9.789253,0,0,45.59964,1,1,755,999
3244,13775291,1,0.006184534,0.002991953,0.000574614,-0.2927719,-0.1629696,-9.786777000000001,0,0,45.59964,1,1,755,999
3247,13778356,1,0.007345269,0.0057229,-0.0002566158,-0.2996213,-0.1632216,-9.785716000000001,0,0,45.59963,1,1,755,999
3250,13780273,1,0.007028452,0.009169307999999999,-0.001080516,-0.3032461,-0.1690034,-9.771587,0,0,45.59963,1,1,755,999
3253,13782990,1,0.006030203,0.009932587999999999,-0.0007137142,-0.3003878,-0.1828565,-9.767760000000001,0,0,45.59963,1,1,755,999
3286,13785432,1,0.005560941,0.01030959,-0.001527053,-0.2917247,-0.1989174,-9.754839,0,0,45.59963,1,1,755,999
3290,13788512,1,0.003974805,0.0121075,-0.004104704,-0.2988679,-0.1976385,-9.751168,0,0,45.59961,1,1,755,999
3293,13790761,1,0.002861483,0.01318377,-0.003558244,-0.3055596,-0.1949286,-9.757291,0,0,45.59961,1,1,755,999
3296,13793320,1,0.002416863,0.01127266,-0.002517789,-0.3247475,-0.1824728,-9.740836,0,0,45.59961,1,1,755,999
3327,13796484,1,0.002827676,0.008650735999999999,0.001105457,-0.3364615,-0.1675868,-9.727969999999999,0,0,45.59961,1,1,755,999
3330,13798366,1,0.003436877,0.005705409,0.00580472,-0.3381043,-0.1581925,-9.724527999999999,0,0,45.59961,1,1,755,999
3333,13801114,1,0.003221134,0.003965784,0.006589079,-0.3339934,-0.1622866,-9.717314,0,0,45.59956,1,1,755,999
3336,13802921,1,0.003143366,-0.001229777,0.005320877,-0.3238839,-0.16905,-9.728121,0,0,45.59956,1,1,755,999
3367,13805473,1,0.002611679,-0.002543212,0.005513978,-0.3162115,-0.1735937,-9.796113999999999,0,0,45.59956,1,1,755,999
3371,13808431,1,-0.001433197,-0.004623037,0.005431393,-0.3152186,-0.1740203,-9.86026,0,0,45.59956,1,1,755,999
3375,13810536,1,-0.003139362,-0.002556063,0.00531501,-0.3173045,-0.1718609,-9.88697,0,0,45.59948,1,1,755,999
3378,13813477,1,-0.002161281,-0.001782337,0.007322013,-0.3152369,-0.1762755,-9.905448,0,0,45.59948,1,1,755,999
3409,13815869,1,-0.001651768,-0.003432225,0.006595569,-0.3071542,-0.1835922,-9.913198,0,0,45.59948,1,1,755,999
3412,13818427,1,-0.001544293,-0.004541948,0.004838315,-0.2988984,-0.1941156,-9.917768000000001,0,0,45.59948,1,1,755,999
3415,13821075,1,0.0006151106,-0.00685433,0.00317035,-0.2815898,-0.1994397,-9.916658,0,0,45.59948,1,1,755,999
3419,13822888,1,0.001317132,-0.006547408,0.004611213,-0.270112,-0.1908297,-9.899508000000001,0,0,45.5994,1,1,755,999
3454,13826260,1,0.0003846017,-0.006127416,0.004685784,-0.26187,-0.1906815,-9.895472,0,0,45.5994,1,1,755,999
3458,13828131,1,-0.001247634,-0.002365695,0.004566056,-0.2541785,-0.1742079,-9.881587,0,0,45.5994,1,1,755,999
3461,13830566,1,-0.002524962,-2.176232e-05,0.004791627,-0.2507788,-0.1713514,-9.871560000000001,0,0,45.5994,1,1,755,999
3464,13833464,1,-0.005707801,0.003114222,0.005447624,-0.2489836,-0.179759,-9.853319000000001,0,0,45.5993,1,1,755,999
3495,13836281,1,-0.006472049,0.004453641,0.0070309,-0.2498806,-0.1811308,-9.846092000000001,0,0,45.5993,1,1,755,999
3499,13838272,1,-0.002924802,0.004447557,0.008390709,-0.2442465,-0.1826691,-9.819054,0,0,45.5993,1,1,755,999
3502,13840884,1,0.0003195961,0.005985742,0.009270062000000001,-0.2311078,-0.1762822,-9.803364,0,0,45.5993,1,1,755,999
3506,13843572,1,5.36697e-05,0.008900416,0.006511434,-0.2186065,-0.1635161,-9.793694,0,0,45.5993,1,1,755,999
3537,13846120,1,-0.001040234,0.008741294,0.003064684,-0.2084883,-0.1310011,-9.798684,0,0,45.59921,1,1,755,999
3540,13849238,1,0.001078282,0.007205285,0.003722237,-0.2135657,-0.1250652,-9.798368,0,0,45.59921,1,1,755,999
3543,13851306,1,0.002604108,0.00628371,0.005222529,-0.2209274,-0.1239097,-9.794351000000001,0,0,45.59921,1,1,755,999
3548,13853860,1,0.003780665,0.00495537,0.006787211,-0.2387814,-0.1409098,-9.770765000000001,0,0,45.59921,1,1,755,999
3579,13856562,1,0.001107068,0.003613592,0.006022329,-0.2724694,-0.1644689,-9.756671000000001,0,0,45.59911,1,1,755,999
3583,13858426,1,-0.000985786,0.002839712,0.005002975,-0.2912533,-0.1732666,-9.746373999999999,0,0,45.59911,1,1,755,999
3586,13862212,1,-0.00521714,0.002406188,0.002651537,-0.3027362,-0.181133,-9.724482999999999,0,0,45.59911,1,1,755,999
3589,13863756,1,-0.002937699,0.003562573,0.001659819,-0.3071349,-0.182987,-9.708251000000001,0,0,45.59911,1,1,755,999
3620,13866326,1,0.001186375,0.004330185,0.002648095,-0.3106091,-0.1769562,-9.688463,0,0,45.59903,1,1,755,999
3623,13871110,1,0.003882642,0.009574988,0.005492749,-0.3304898,-0.1886175,-9.702451999999999,0,0,45.59903,1,1,755,999
3626,13874537,1,0.003699464,0.01035429,0.005521588,-0.3256546,-0.1978322,-9.705584999999999,0,0,45.59903,1,1,755,999
3629,13876372,1,0.002300907,0.009734497999999999,0.002309784,-0.3122504,-0.2089163,-9.706965,0,0,45.59894,1,1,755,999
3660,13878749,1,0.0004575845,0.009533295000000001,0.0007047225,-0.303073,-0.2215015,-9.718353,0,0,45.59894,1,1,755,999
3663,13881759,1,-0.00433374,0.01009152,0.0009651408999999999,-0.3050604,-0.2216516,-9.734885999999999,0,0,45.59894,1,1,755,999
3666,13884094,1,-0.003697053,0.01025929,0.002462703,-0.3130969,-0.2142638,-9.754530000000001,0,0,45.59894,1,1,755,999
3669,13886482,1,-0.0002261565,0.008585623000000001,0.004389007,-0.3180408,-0.201334,-9.775021000000001,0,0,45.59894,1,1,755,999
3701,13889494,1,0.001702932,0.007573382,0.004062548,-0.300421,-0.1710977,-9.774265,0,0,45.59885,1,1,755,999
3704,13891534,1,0.002416527,0.006604284,0.004309056,-0.2813177,-0.1561962,-9.768051,0,0,45.59885,1,1,755,999
3707,13894301,1,0.006175319,0.004765463,0.004802769,-0.2665161,-0.1412696,-9.763612,0,0,45.59885,1,1,755,999
3710,13896513,1,0.007602526,0.002720983,0.005022021,-0.2590099,-0.1176896,-9.765515000000001,0,0,45.59885,1,1,755,999
3741,13898984,1,0.007046404,0.0008452456,0.004785509,-0.2606648,-0.1003371,-9.770683,0,0,45.59876,1,1,755,999
3744,13901942,1,0.00720162,0.001690008,0.002651967,-0.2729811,-0.1009616,-9.782804,0,0,45.59876,1,1,755,999
3747,13903956,1,0.007122618,0.0019678,0.001728913,-0.286876,-0.1083822,-9.787585,0,0,45.59876,1,1,755,999
3750,13906297,1,0.006093586,0.002045869,0.0005902997,-0.2949855,-0.125678,-9.794995999999999,0,0,45.59876,1,1,755,999
3782,13909102,1,0.005767238,0.002811873,0.0006515068,-0.3003599,-0.1321698,-9.802541,0,0,45.59876,1,1,755,999
3785,13911848,1,0.005207883,0.004220093,0.002350797,-0.3025011,-0.1439986,-9.799208,0,0,45.59869,1,1,755,999
3788,13914264,1,0.003204031,0.007458116,0.003845831,-0.3108659,-0.154886,-9.785638000000001,0,0,45.59869,1,1,755,999
3791,13916537,1,-8.24415e-05,0.008784804,0.00467168,-0.3157501,-0.182901,-9.755345,0,0,45.59869,1,1,755,999
3822,13918992,1,-0.003673837,0.007020061,0.003677846,-0.3154761,-0.2128437,-9.765867999999999,0,0,45.59869,1,1,755,999
3825,13921423,1,-0.004107956,0.006119041,0.0005362782,-0.3143776,-0.2186603,-9.775407,0,0,45.59862,1,1,755,999
3830,13924316,1,-0.003779005,0.005425585,-0.000916325,-0.3096791,-0.207548,-9.782463999999999,0,0,45.59862,1,1,755,999
3837,13927276,1,-0.001605795,0.0009284036000000001,-0.003319891,-0.3029927,-0.186113,-9.798213000000001,0,0,45.59862,1,1,755,999
3868,13929752,1,0.0002886133,0.002598674,-0.002255452,-0.3057705,-0.1593357,-9.820093999999999,0,0,45.59862,1,1,755,999
3872,13932224,1,0.004063475,0.006558988,-0.001742129,-0.2946144,-0.1260245,-9.862363,0,0,45.59856,1,1,755,999
3875,13935113,1,0.007159578,0.008094657999999999,-0.002513191,-0.2878063,-0.1098852,-9.893508000000001,0,0,45.59856,1,1,755,999
3878,13937838,1,0.007212445,0.007317187,-0.004212732,-0.291954,-0.07879704,-9.913876,0,0,45.59856,1,1,755,999
3909,13940322,1,0.00407667,0.005054314,-0.006220677,-0.293912,-0.05885158,-9.847215,0,0,45.59856,1,1,755,999
3912,13942537,1,0.00133709,0.00182462,-0.006622657,-0.2964162,-0.04801365,-9.780170999999999,0,0,45.59851,1,1,755,999
3915,13945700,1,0.001306605,-0.0008672777,-0.004168309,-0.3166637,-0.04829138,-9.704527000000001,0,0,45.59851,1,1,755,999
3918,13948255,1,0.001456934,-0.0009956812000000001,-0.001842161,-0.3337554,-0.05888148,-9.665570000000001,0,0,45.59851,1,1,755,999
3949,13950925,1,0.001249413,0.0008510142,0.006886872,-0.3634538,-0.05296033,-9.642232999999999,0,0,45.59851,1,1,755,999
3953,13953738,1,0.001992131,0.001968737,0.01042415,-0.3727477,-0.06071779,-9.651629,0,0,45.59848,1,1,755,999
3956,13956115,1,0.003154243,0.003495886,0.01146232,-0.3782069,-0.07267369,-9.662426,0,0,45.59848,1,1,755,999
3959,13958800,1,0.003763163,0.003084389,0.01287209,-0.3820092,-0.09629942,-9.679171999999999,0,0,45.59848,1,1,755,999
3990,13961767,1,0.00245918,0.002899036,0.01142793,-0.3709122,-0.1186396,-9.680634,0,0,45.59848,1,1,755,999
3995,13963959,1,0.002448027,0.003693799,0.008235701,-0.3626932,-0.1266762,-9.687184,0,0,45.59848,1,1,755,999
3998,13966313,1,0.001392226,0.004954903,0.006448015,-0.3389549,-0.1265509,-9.710929,0,0,45.59847,1,1,755,999
4001,13969129,1,0.000582231,0.005895928,0.006636087,-0.318093,-0.125764,-9.723034999999999,0,0,45.59847,1,1,755,999
4032,13977454,1,0.00196378,0.007344529,0.009009062,-0.2448468,-0.1064228,-9.750342,0,0,45.5985,1,1,755,999
4035,13979917,1,0.003631859,0.0066542,0.007699401,-0.2337107,-0.107622,-9.751313,0,0,45.5985,1,1,755,999
4066,13982746,1,0.004411638,0.006323587,0.006315908,-0.238894,-0.1054745,-9.776311,0,0,45.5985,1,1,755,999
4069,13985317,1,0.004093425,0.006176319,0.005328024,-0.2568091,-0.1022575,-9.792795,0,0,45.5985,1,1,755,999
4072,13987484,1,0.001040873,0.007734753,0.002483727,-0.2814898,-0.110274,-9.821365,0,0,45.59857,1,1,755,999
4076,13989928,1,-0.0005123393,0.007866895,0.002601136,-0.2996584,-0.1132778,-9.848079,0,0,45.59857,1,1,755,999
4107,13992229,1,-0.003134862,0.006282995,0.003915629,-0.3137411,-0.1168169,-9.867234,0,0,45.59857,1,1,755,999
4110,13995205,1,-0.003050759,0.005001803,0.004864976,-0.3142168,-0.1212543,-9.868626000000001,0,0,45.59857,1,1,755,999
4113,13998022,1,-5.706303e-06,0.00499077,0.005773824,-0.2983432,-0.1446252,-9.859119,0,0,45.59867,1,1,755,999
4117,13999969,1,0.002511305,0.005550157,0.004470273,-0.2812035,-0.161332,-9.843703,0,0,45.59867,1,1,755,999
4148,14002448,1,0.001189567,0.004902677,0.003598228,-0.2691195,-0.1691042,-9.794931,0,0,45.59867,1,1,755,999
4151,14004806,1,0.001282746,0.001693356,0.002604459,-0.2669519,-0.1728759,-9.761782,0,0,45.59867,1,1,755,999
4154,14007364,1,0.001978283,0.001701643,-0.0004246479,-0.2596528,-0.191734,-9.736496000000001,0,0,45.59867,1,1,755,999
4157,14010486,1,0.001820168,0.003178874,-0.0009438816,-0.2531723,-0.1932167,-9.719640999999999,0,0,45.5988,1,1,755,999
4188,14013179,1,0.002224931,0.006530576,0.001270318,-0.2626761,-0.1826904,-9.699645,0,0,45.5988,1,1,755,999
4191,14015523,1,0.002748547,0.008087509999999999,0.003006628,-0.2890449,-0.1741571,-9.692327000000001,0,0,45.5988,1,1,755,999
4194,14018103,1,0.003048304,0.008310931000000001,0.00415999,-0.3048159,-0.1748082,-9.679373999999999,0,0,45.5988,1,1,755,999
4198,14020707,1,0.004426357,0.007401995,0.004799307,-0.3162334,-0.1742195,-9.687283000000001,0,0,45.59892,1,1,755,999
4229,14023451,1,0.003900752,0.002851018,0.007439501,-0.3356541,-0.1708152,-9.731866,0,0,45.59892,1,1,755,999
4232,14026076,1,0.001940142,0.0005004511,0.008608233,-0.3438738,-0.1694269,-9.755815999999999,0,0,45.59892,1,1,755,999
4236,14027760,1,-0.002095472,-0.001450247,0.007834883000000001,-0.3466376,-0.1744809,-9.769258000000001,0,0,45.59892,1,1,755,999
4243,14030846,1,-0.003018431,-0.001288958,0.005554719,-0.3372002,-0.2043833,-9.766341000000001,0,0,45.59906,1,1,755,999
4276,14033201,1,-0.001682398,-0.0001068594,0.002343264,-0.3192598,-0.2139905,-9.752504999999999,0,0,45.59906,1,1,755,999
4279,14036261,1,0.002680513,0.003562047,0.001556606,-0.304811,-0.2021739,-9.738204,0,0,45.59906,1,1,755,999
4282,14038885,1,0.006237823,0.008445980000000001,0.0003811165,-0.2788402,-0.1682647,-9.716150000000001,0,0,45.59906,1,1,755,999
4285,14040926,1,0.006409334,0.01106679,0.0009785988000000001,-0.2630187,-0.1389784,-9.704138,0,0,45.59906,1,1,755,999
4316,14043441,1,0.004565414,0.009974317,0.001573996,-0.2417156,-0.1096554,-9.703962000000001,0,0,45.59917,1,1,755,999
4319,14046056,1,0.003663262,0.006920727,0.001659206,-0.2328336,-0.101199,-9.730195999999999,0,0,45.59917,1,1,755,999
4322,14048842,1,0.003085082,0.004540782,0.004192796,-0.2322332,-0.1010094,-9.789686,0,0,45.59917,1,1,755,999
4326,14051248,1,0.002685885,0.003514162,0.005438561,-0.2329568,-0.10812,-9.811752,0,0,45.59917,1,1,755,999
4357,14053505,1,0.0007931244,0.001544592,0.008064247,-0.2412005,-0.1239631,-9.812032,0,0,45.59928,1,1,755,999
4361,14055936,1,0.0004642789,0.001470562,0.007068047,-0.2580924,-0.132359,-9.799476,0,0,45.59928,1,1,755,999
4366,14058933,1,0.0008883495,0.001763473,0.004090436,-0.2751326,-0.1477789,-9.789020000000001,0,0,45.59928,1,1,755,999
4369,14061313,1,0.002472969,0.003282981,0.002331733,-0.2708871,-0.1574874,-9.794582,0,0,45.59928,1,1,755,999
4400,14064115,1,0.00244389,0.004868696,0.001693444,-0.2669643,-0.154574,-9.814622,0,0,45.59937,1,1,755,999
4403,14066427,1,0.002693441,0.005598383,0.0007904825,-0.2579134,-0.1486889,-9.822639000000001,0,0,45.59937,1,1,755,999
4406,14068806,1,0.004410504,0.006612993,0.001158784,-0.255249,-0.1471891,-9.815939999999999,0,0,45.59937,1,1,755,999
4410,14071126,1,0.005445778,0.005928827,0.003567463,-0.2753011,-0.1369423,-9.787069000000001,0,0,45.59937,1,1,755,999
4441,14077885,1,0.002838951,0.01201873,0.007541727,-0.336462,-0.126264,-9.798902999999999,0,0,45.59945,1,1,755,999
4444,14079084,1,0.001882569,0.01273547,0.00758742,-0.3551131,-0.1427696,-9.815884,0,0,45.59945,1,1,755,999
4447,14081962,1,0.001134474,0.01167747,0.00782863,-0.3572768,-0.1592143,-9.813631000000001,0,0,45.59945,1,1,755,999
4478,14084918,1,0.001667751,0.009724932,0.00740347,-0.3507786,-0.1808259,-9.815731,0,0,45.59945,1,1,755,999
4481,14086577,1,0.002391173,0.007575971,0.006362699,-0.3337935,-0.1801795,-9.830824,0,0,45.59953,1,1,755,999
4484,14090060,1,0.002174365,0.005278116,0.006406891,-0.3002783,-0.1582382,-9.860998,0,0,45.59953,1,1,755,999
4489,14091937,1,0.00238804,0.004453655,0.006389296,-0.2778824,-0.1523398,-9.878905,0,0,45.59953,1,1,755,999
4520,14094090,1,0.002242333,0.00310564,0.003966137,-0.2505737,-0.1346506,-9.899801,0,0,45.59953,1,1,755,999
4523,14097303,1,0.001133091,0.00293079,0.001746755,-0.2387653,-0.1338643,-9.910223999999999,0,0,45.59959,1,1,755,999
4526,14099119,1,-0.001645952,0.003166042,-0.001944915,-0.2353312,-0.1488615,-9.902979,0,0,45.59959,1,1,755,999
4529,14101738,1,-0.004615497,0.002990151,-0.003690835,-0.2428708,-0.1552573,-9.87143,0,0,45.59959,1,1,755,999
4560,14104728,1,-0.004151935,0.002223969,-0.006350666,-0.2494242,-0.1616156,-9.824869,0,0,45.59959,1,1,755,999
4563,14106723,1,0.0003155722,0.003858441,-0.006462815,-0.2487363,-0.1656054,-9.801226,0,0,45.59959,1,1,755,999
4566,14109541,1,0.005093903,0.00601126,-0.002952176,-0.2397402,-0.1682396,-9.771948,0,0,45.59964,1,1,755,999
4571,14111957,1,0.005965846,0.006473884,-0.000673582,-0.2371012,-0.1703271,-9.756565,0,0,45.59964,1,1,755,999
4602,14114279,1,0.003153483,0.006925591,0.005155907,-0.258541,-0.1545858,-9.749029999999999,0,0,45.59964,1,1,755,999
4605,14117117,1,0.001836346,0.006274624,0.006858237,-0.2794862,-0.1334243,-9.745604999999999,0,0,45.59964,1,1,755,999
4608,14119772,1,6.412005000000001e-05,0.004441943,0.01005264,-0.3094004,-0.1178844,-9.738184,0,0,45.59967,1,1,755,999
4612,14121987,1,-0.001324527,0.004567956,0.01211725,-0.3196132,-0.1095384,-9.734933,0,0,45.59967,1,1,755,999
4643,14124250,1,-0.003960026,0.005613351,0.01138775,-0.3164345,-0.1088253,-9.718665,0,0,45.59967,1,1,755,999
4646,14126716,1,-0.004420714,0.006184659,0.01125206,-0.3091149,-0.117485,-9.711771000000001,0,0,45.59967,1,1,755,999
4649,14129747,1,-0.002698285,0.007933981999999999,0.01256137,-0.3077591,-0.1329141,-9.734512,0,0,45.59969,1,1,755,999
4656,14131937,1,-0.002046886,0.008080899000000001,0.01176411,-0.3171311,-0.1523733,-9.760195,0,0,45.59969,1,1,755,999
4687,14134934,1,-0.003321698,0.004371047,0.00986367,-0.3247575,-0.1760984,-9.805209,0,0,45.59969,1,1,755,999
4690,14136993,1,-0.004523518,0.00268364,0.00880998,-0.3201596,-0.176113,-9.835079,0,0,45.59969,1,1,755,999
4693,14138960,1,-0.005560617,0.006037928,0.004505567,-0.3009153,-0.1647163,-9.858428999999999,0,0,45.59969,1,1,755,999
4697,14142120,1,-0.005237774,0.008565829,0.003603551,-0.28948,-0.1543715,-9.845803,0,0,45.59969,1,1,755,999
4728,14144305,1,-0.00276676,0.01213584,0.001541923,-0.2794647,-0.144062,-9.813738000000001,0,0,45.59969,1,1,755,999
4731,14147534,1,-0.0002999588,0.0107087,0.001817414,-0.2725274,-0.1316217,-9.794221,0,0,45.59969,1,1,755,999
4735,14149582,1,6.753417000000001e-05,0.01009643,0.001741219,-0.2693875,-0.1259761,-9.782624,0,0,45.59969,1,1,755,999
4738,14152095,1,-0.0006704564,0.007985299,0.0002731372,-0.2713653,-0.1300239,-9.784699,0,0,45.59966,1,1,755,999
4769,14154893,1,-0.002409255,0.005202252,4.061791e-05,-0.2798547,-0.1431565,-9.799484,0,0,45.59966,1,1,755,999
4772,14157332,1,-0.001879731,0.00339618,0.002831022,-0.2914637,-0.1585023,-9.830517,0,0,45.59966,1,1,755,999
4775,14160235,1,-0.0003047333,0.001771878,0.006196956,-0.2974147,-0.1582612,-9.843745,0,0,45.59966,1,1,755,999
4779,14161962,1,0.001312206,-0.0002125035,0.006259528,-0.2951889,-0.1623912,-9.869020000000001,0,0,45.59966,1,1,755,999
4810,14164466,1,0.002016874,-0.0004919506,0.004339352,-0.2880812,-0.1662403,-9.861670999999999,0,0,45.59961,1,1,755,999
4813,14167321,1,0.001497001,0.00371866,-0.002325397,-0.2933869,-0.1777261,-9.832420000000001,0,0,45.59961,1,1,755,999
4816,14169899,1,0.0006702598,0.006464623,-0.003639714,-0.304588,-0.1856254,-9.816808999999999,0,0,45.59961,1,1,755,999
4819,14174581,1,-0.0003122065,0.01254757,-0.003254262,-0.3362603,-0.1797211,-9.811109,0,0,45.59953,1,1,755,999
4850,14177328,1,-0.0003516467,0.009630655,0.0006582264,-0.3505537,-0.1828083,-9.772161000000001,0,0,45.59953,1,1,755,999
4853,14180000,1,-0.00352695,0.007268231,0.003660498,-0.3559734,-0.1887308,-9.771119000000001,0,0,45.59953,1,1,755,999
4857,14185347,1,-0.003655701,0.009978605,7.778822e-05,-0.3858308,-0.1947901,-9.805877000000001,0,0,45.59944,1,1,755,999
4888,14187737,1,-0.002098089,0.009749631999999999,0.0002559221,-0.3904101,-0.180868,-9.821365,0,0,45.59944,1,1,755,999
4891,14190641,1,0.0007325151,0.008088059,0.001709035,-0.394996,-0.1569764,-9.848487,0,0,45.59944,1,1,755,999
4895,14192947,1,0.00115767,0.006449494,0.002563597,-0.3959335,-0.1531516,-9.867851,0,0,45.59944,1,1,755,999
4898,14195842,1,-0.002120265,0.004183334,0.002371871,-0.4015442,-0.148977,-9.879987,0,0,45.59933,1,1,755,999
4929,14198509,1,-0.002879208,0.003907333,0.001352029,-0.4021709,-0.155464,-9.862605,0,0,45.59933,1,1,755,999
4932,14200919,1,-0.0008374809,0.004633077,-0.0001715988,-0.4055676,-0.1611219,-9.845133000000001,0,0,45.59933,1,1,755,999
4935,14203392,1,0.0005650988,0.00183482,-0.000804735,-0.4094268,-0.1651923,-9.82856,0,0,45.59933,1,1,755,999
4938,14206061,1,0.001291307,0.001683811,7.598267e-05,-0.411317,-0.1723836,-9.820594,0,0,45.59933,1,1,755,999
4969,14208742,1,0.002145701,0.006686097,0.001063979,-0.3981723,-0.1761861,-9.808149,0,0,45.59922,1,1,755,999
4972,14211404,1,0.00136272,0.007752687,0.0007373638000000001,-0.3763644,-0.1748361,-9.796189999999999,0,0,45.59922,1,1,755,999
4976,14213385,1,0.001249459,0.01062683,0.0001160512,-0.3403826,-0.1748539,-9.769743999999999,0,0,45.59922,1,1,755,999
4979,14216003,1,0.001049902,0.01036894,0.0007757337,-0.3207657,-0.1867218,-9.752746999999999,0,0,45.59922,1,1,755,999
5010,14218488,1,0.0003690909,0.009647855,0.002847543,-0.3125295,-0.2048596,-9.752697,0,0,45.59912,1,1,755,999
5013,14221305,1,0.0007652484,0.009625809000000001,0.003163856,-0.3154009,-0.2166995,-9.742027999999999,0,0,45.59912,1,1,755,999
5016,14223776,1,0.002921056,0.009162859000000001,0.001762729,-0.3278156,-0.233508,-9.698422000000001,0,0,45.59912,1,1,755,999
5019,14226012,1,0.003556543,0.008760762,0.001669458,-0.3424689,-0.2354556,-9.67365,0,0,45.59912,1,1,755,999
5050,14228235,1,0.0003054446,0.007527106,0.004188856,-0.3632775,-0.2144896,-9.663066000000001,0,0,45.59903,1,1,755,999
5053,14231050,1,-0.001193511,0.006882097,0.005668543,-0.3747582,-0.201731,-9.671227,0,0,45.59903,1,1,755,999
5062,14233900,1,-0.004357849,0.004403519,0.005404016,-0.3794244,-0.1932699,-9.709177,0,0,45.59903,1,1,755,999
5065,14236331,1,-0.00351142,0.00347369,0.003867198,-0.3825796,-0.1840146,-9.725111,0,0,45.59903,1,1,755,999
5096,14238772,1,-0.001349216,0.003101041,5.192325e-05,-0.3733596,-0.1695629,-9.731211,0,0,45.59903,1,1,755,999
5099,14241348,1,-0.0006460390000000001,0.002452847,-0.003833075,-0.3423426,-0.1562417,-9.750622999999999,0,0,45.59895,1,1,755,999
5103,14243978,1,0.0004710311,0.002187055,-0.003464438,-0.3187499,-0.1549395,-9.770360999999999,0,0,45.59895,1,1,755,999
5106,14246476,1,0.003608531,0.002710309,-0.000911125,-0.2895018,-0.1581339,-9.81683,0,0,45.59895,1,1,755,999
5137,14249897,1,0.005594536,-0.002242204,0.0005498875000000001,-0.2646166,-0.1522307,-9.857497,0,0,45.59895,1,1,755,999
5140,14252296,1,0.005118914,-0.004623371,0.0003764998,-0.2581326,-0.1446536,-9.889391,0,0,45.59886,1,1,755,999
5144,14254290,1,0.002295116,-0.005013019,0.001331553,-0.2547042,-0.1421972,-9.923598,0,0,45.59886,1,1,755,999
5147,14257028,1,0.001247556,-0.001801178,0.004199378,-0.2576489,-0.1566285,-9.933748,0,0,45.59886,1,1,755,999
5178,14259540,1,0.002483398,0.0005896816,0.006060704,-0.2820983,-0.1833917,-9.931694999999999,0,0,45.59886,1,1,755,999
5183,14262480,1,0.002844862,-0.0005512009,0.007003461,-0.297507,-0.1971056,-9.911702999999999,0,0,45.59878,1,1,755,999
5186,14265001,1,0.001138147,-0.001303226,0.003968619,-0.3213097,-0.1998223,-9.873754,0,0,45.59878,1,1,755,999
5189,14266503,1,-0.0004989486999999999,-0.0006420589,-0.001074411,-0.3313839,-0.1909491,-9.851647,0,0,45.59878,1,1,755,999
5220,14269141,1,-0.0011091,0.0004112138,-0.002643895,-0.343234,-0.1723943,-9.820311,0,0,45.59878,1,1,755,999
5223,14272218,1,-0.001048397,0.0009707305,-0.002438945,-0.3475704,-0.1705022,-9.796701000000001,0,0,45.59878,1,1,755,999
5227,14277550,1,-0.001952209,0.00319418,-0.001694368,-0.3620177,-0.1604793,-9.756608999999999,0,0,45.59871,1,1,755,999
5260,14280085,1,-6.134513e-05,0.004330766,-0.0002906203,-0.3520772,-0.145892,-9.747455,0,0,45.59871,1,1,755,999
5263,14282757,1,0.003551758,0.00399277,0.003825256,-0.3447236,-0.1363094,-9.739044,0,0,45.59871,1,1,755,999
5268,14285583,1,0.00448387,0.0008199426,0.006847104,-0.3312283,-0.1153338,-9.721636999999999,0,0,45.59863,1,1,755,999
5271,14287911,1,0.002690577,-0.0009023508,0.007266148,-0.3135496,-0.1003974,-9.717663,0,0,45.59863,1,1,755,999
5302,14290358,1,-0.001901369,-0.004836887,0.00288464,-0.2818593,-0.08803757,-9.724378,0,0,45.59863,1,1,755,999
5305,14292980,1,-0.001951298,-0.004548416,0.001301888,-0.2605521,-0.09141804000000001,-9.728160000000001,0,0,45.59863,1,1,755,999
5308,14296519,1,-0.0009660563,-0.001006492,0.0007163885,-0.2384678,-0.09916155,-9.744126,0,0,45.59856,1,1,755,999
5311,14298324,1,0.002312479,0.00570911,-0.001086705,-0.2284544,-0.1084788,-9.779574,0,0,45.59856,1,1,755,999
5342,14300984,1,0.003594843,0.006847274,0.001551035,-0.2327568,-0.1200432,-9.809886000000001,0,0,45.59856,1,1,755,999
5345,14303458,1,0.004370205,0.005307155,0.005926055,-0.2457581,-0.1336608,-9.816328,0,0,45.59856,1,1,755,999
5349,14306164,1,0.004091923,0.004590554,0.008212703999999999,-0.2538835,-0.1430515,-9.821128,0,0,45.5985,1,1,755,999
5352,14309114,1,0.001847652,0.004206263,0.01145046,-0.260885,-0.1519902,-9.866493999999999,0,0,45.5985,1,1,755,999
5383,14312064,1,0.001455404,0.003699593,0.009828675,-0.2748598,-0.151796,-9.935974999999999,0,0,45.5985,1,1,755,999
5386,14314331,1,0.0008956393,0.002871383,0.008861081,-0.302608,-0.1552058,-9.987265000000001,0,0,45.5985,1,1,755,999
5389,14317045,1,0.0006906539,0.002227191,0.009207464,-0.3284208,-0.1694268,-9.983532,0,0,45.59845,1,1,755,999
5392,14319613,1,0.001209932,0.00215874,0.01034352,-0.3523252,-0.1921781,-9.936268999999999,0,0,45.59845,1,1,755,999
5423,14322320,1,-0.0005107599,-0.0008083708,0.01189515,-0.3609861,-0.2088545,-9.885351,0,0,45.59845,1,1,755,999
5426,14324983,1,-0.00229981,-0.002250323,0.01262411,-0.3618497,-0.2076612,-9.858358000000001,0,0,45.59845,1,1,755,999
5430,14326985,1,-0.004812636,0.001959188,0.006917672,-0.3628605,-0.2097908,-9.837641,0,0,45.59841,1,1,755,999
5433,14330081,1,-0.004178961,0.00569844,0.003047382,-0.3610832,-0.2012947,-9.826857,0,0,45.59841,1,1,755,999
5464,14332845,1,-0.002641748,0.01191166,-0.00048149,-0.3582074,-0.1792754,-9.818111999999999,0,0,45.59841,1,1,755,999
5467,14334961,1,2.766436e-05,0.01396694,0.003573931,-0.3577141,-0.1712913,-9.816281999999999,0,0,45.59841,1,1,755,999
5475,14338106,1,0.00310681,0.01307874,0.007350489,-0.350047,-0.180686,-9.802447000000001,0,0,45.59841,1,1,755,999
5478,14340007,1,0.004522753,0.01339622,0.008006945999999999,-0.3393353,-0.1861824,-9.80034,0,0,45.59838,1,1,755,999
5509,14342756,1,0.006551796,0.01386596,0.004162711,-0.3369355,-0.150616,-9.812666999999999,0,0,45.59838,1,1,755,999
5512,14344615,1,0.01020199,0.01350282,0.001404668,-0.3410703,-0.1219697,-9.835395,0,0,45.59838,1,1,755,999
5515,14347130,1,0.01151062,0.01136036,0.00370437,-0.3479808,-0.09255843,-9.860922,0,0,45.59838,1,1,755,999
5518,14350433,1,0.01080082,0.009146523,0.005133604,-0.3547798,-0.08048893999999999,-9.849576000000001,0,0,45.59834,1,1,755,999
5549,14352530,1,0.005558237,-9.021916e-05,0.005287727,-0.3685502,-0.06969562,-9.813616,0,0,45.59834,1,1,755,999
5552,14355883,1,0.002773034,-0.004162071,0.005163443,-0.3822511,-0.07491267,-9.772978,0,0,45.59834,1,1,755,999
5556,14357915,1,0.001676496,-0.004041289,0.004664361,-0.3988295,-0.07756153,-9.752515000000001,0,0,45.59834,1,1,755,999
5559,14360989,1,0.002247152,0.002813312,0.004868225,-0.415194,-0.08044638,-9.725835,0,0,45.59828,1,1,755,999
5590,14363341,1,0.00343221,0.009600479,0.005935926,-0.4129141,-0.07893121,-9.706505999999999,0,0,45.59828,1,1,755,999
5595,14366268,1,0.003879264,0.01203648,0.005665436,-0.4071361,-0.07905272000000001,-9.704058,0,0,45.59828,1,1,755,999
5598,14368559,1,0.002167447,0.009001678000000001,0.003245895,-0.3955059,-0.08432259,-9.72132,0,0,45.59828,1,1,755,999
5601,14372068,1,0.0008632103,0.007532154,0.002193987,-0.3875142,-0.08753590999999999,-9.732797,0,0,45.59828,1,1,755,999
5604,14373875,1,-0.0008492644,0.003644305,0.00152408,-0.375401,-0.09506547,-9.737304999999999,0,0,45.59821,1,1,755,999
5635,14376428,1,0.0007350206,-0.005532196,0.0005618862,-0.3537844,-0.1088573,-9.744001000000001,0,0,45.59821,1,1,755,999
5639,14378999,1,0.001497023,-0.006600627,0.0004708764,-0.3332371,-0.1249806,-9.751198,0,0,45.59821,1,1,755,999
5642,14381495,1,0.000818675,-0.005123455,0.002242962,-0.298618,-0.1352334,-9.761611,0,0,45.59821,1,1,755,999
5645,14384990,1,-0.0007624783,-0.0007099853,0.003480937,-0.2771782,-0.1242936,-9.756283,0,0,45.59815,1,1,755,999
5648,14389512,1,0.001299481,0.003270997,-0.002213124,-0.244808,-0.1088501,-9.74428,0,0,45.59815,1,1,755,999
5679,14391900,1,0.002879856,0.0008390105,-0.003037732,-0.2566727,-0.100469,-9.751961,0,0,45.59815,1,1,755,999
5682,14394338,1,0.001645328,-0.001293572,-0.003469907,-0.2639639,-0.1056994,-9.753695,0,0,45.59808,1,1,755,999
5685,14397422,1,-0.001632722,-0.00368597,-0.005696158,-0.2731178,-0.1194184,-9.759478,0,0,45.59808,1,1,755,999
5688,14399960,1,-0.001446814,-0.00230038,-0.005429889,-0.2916084,-0.1587727,-9.759346000000001,0,0,45.59808,1,1,755,999
5719,14402261,1,0.001053242,0.000443367,-0.004249821,-0.2994659,-0.1930244,-9.753431000000001,0,0,45.59808,1,1,755,999
5723,14404918,1,0.00286941,0.002906476,-0.004244422,-0.3048721,-0.2014494,-9.746233999999999,0,0,45.59799,1,1,755,999
5726,14407519,1,0.002209313,0.005271894,-0.005591745,-0.2990959,-0.2055573,-9.728372999999999,0,0,45.59799,1,1,755,999
5729,14410464,1,0.002982669,0.006569615,-0.007417828,-0.293379,-0.2035167,-9.710886,0,0,45.59799,1,1,755,999
5760,14413396,1,0.005341882,0.01078112,-0.008200924,-0.2842611,-0.183093,-9.716882,0,0,45.59799,1,1,755,999
5764,14415566,1,0.004591236,0.01157998,-0.007379856,-0.2824001,-0.173198,-9.734605,0,0,45.59789,1,1,755,999
5767,14418097,1,0.001713782,0.01125834,-0.005218737,-0.2774594,-0.1511481,-9.78093,0,0,45.59789,1,1,755,999
5772,14420950,1,-0.001299344,0.008710175000000001,-0.004471564,-0.2761683,-0.1299194,-9.801536,0,0,45.59789,1,1,755,999
5803,14423734,1,-0.00308132,0.007611656,-0.004463323,-0.2850256,-0.102744,-9.81494,0,0,45.59789,1,1,755,999
5806,14426115,1,-0.004654036,0.00870393,-0.00280956,-0.288193,-0.09172539,-9.826478,0,0,45.59789,1,1,755,999
5809,14428948,1,-0.005518675,0.01022942,-0.0006389063,-0.2945119,-0.09933415,-9.830352,0,0,45.59781,1,1,755,999
5812,14431029,1,-0.003082223,0.01059273,-0.0001725124,-0.3007679,-0.09944765,-9.829226,0,0,45.59781,1,1,755,999
5843,14433527,1,0.0005081596,0.008608012999999999,0.0009135349,-0.317776,-0.1124357,-9.804292,0,0,45.59781,1,1,755,999
5847,14436839,1,0.001546217,0.007087211,0.0005641872,-0.3255885,-0.1327131,-9.788650000000001,0,0,45.59781,1,1,755,999
5850,14438455,1,-0.0003951807,0.004761267,-0.003817336,-0.3249372,-0.1639943,-9.773377,0,0,45.59772,1,1,755,999
5857,14441254,1,-0.002605394,0.004817661,-0.0059726,-0.3237726,-0.1788437,-9.781466999999999,0,0,45.59772,1,1,755,999
5888,14444060,1,-0.005492728,0.007898821,-0.009313273,-0.3251951,-0.1938594,-9.788049000000001,0,0,45.59772,1,1,755,999
5892,14445977,1,-0.007346916,0.01088712,-0.00917978,-0.3306783,-0.2010516,-9.786296999999999,0,0,45.59772,1,1,755,999
5895,14448913,1,-0.007711952,0.009510510999999999,-0.005883268,-0.3306243,-0.1991479,-9.775475,0,0,45.59764,1,1,755,999
5900,14451118,1,-0.005079208,0.005158649,-0.001285187,-0.3219437,-0.194926,-9.774231,0,0,45.59764,1,1,755,999
5931,14454087,1,-0.001392772,0.0007061421999999999,0.002895022,-0.3022378,-0.2002987,-9.785919,0,0,45.59764,1,1,755,999
5934,14456354,1,-0.0004546006,-0.0001994213,0.004178287,-0.2862769,-0.2021932,-9.790331999999999,0,0,45.59764,1,1,755,999
5937,14458259,1,-0.0007069401,-4.487804e-05,0.003614233,-0.2659102,-0.1928131,-9.78867,0,0,45.59764,1,1,755,999
5941,14461360,1,-0.0006595727,0.001071109,0.00291532,-0.2514002,-0.1874091,-9.774800000000001,0,0,45.59756,1,1,755,999
5972,14463529,1,-0.002286235,0.004075698,0.002684001,-0.2367508,-0.1873323,-9.768075,0,0,45.59756,1,1,755,999
5976,14466315,1,-0.0007064540999999999,0.0070198,0.003546009,-0.2347921,-0.179564,-9.787704,0,0,45.59756,1,1,755,999
5979,14468919,1,0.0007715519,0.00714505,0.004835328,-0.2419643,-0.1816486,-9.796851999999999,0,0,45.59756,1,1,755,999
5982,14471687,1,0.002373124,0.00672138,0.009354337000000001,-0.2563418,-0.2035427,-9.790604,0,0,45.59747,1,1,755,999
6013,14474503,1,0.001119389,0.005831144,0.009653293,-0.2761984,-0.2241193,-9.774577000000001,0,0,45.59747,1,1,755,999
6016,14476968,1,-0.0002368975,0.005536222,0.00905834,-0.2829599,-0.2289879,-9.764825999999999,0,0,45.59747,1,1,755,999
6019,14479270,1,-0.003672081,0.007067788,0.005459502,-0.2847217,-0.229046,-9.764825,0,0,45.59747,1,1,755,999
6022,14481574,1,-0.003351436,0.006995343,0.004281776,-0.2816933,-0.2102275,-9.758172,0,0,45.59735,1,1,755,999
6053,14484444,1,-0.001297791,0.005659098,0.003415944,-0.2848576,-0.1789157,-9.749952,0,0,45.59735,1,1,755,999
6058,14489329,1,-0.0005272614,-0.0001655453,0.006054971,-0.2942711,-0.1414575,-9.771191,0,0,45.59735,1,1,755,999
6061,14491517,1,-0.003275861,0.0008546467000000001,0.005713829,-0.3009333,-0.1383484,-9.791086999999999,0,0,45.59735,1,1,755,999
6092,14495529,1,-0.00459846,0.002581261,0.002346153,-0.3130918,-0.1384401,-9.819374,0,0,45.59722,1,1,755,999
6095,14497543,1,-0.003081799,0.004359044,0.0007379194,-0.3130673,-0.1363739,-9.846612,0,0,45.59722,1,1,755,999
6099,14499954,1,-0.003121116,0.007638952,0.001565384,-0.3172974,-0.1333954,-9.861753999999999,0,0,45.59722,1,1,755,999
6102,14502255,1,-0.002860896,0.009985872999999999,0.0005871311,-0.3276669,-0.1292109,-9.873058,0,0,45.59722,1,1,755,999
6133,14504443,1,-0.001600778,0.01034587,0.0008889323,-0.3297332,-0.1280419,-9.8752,0,0,45.59706,1,1,755,999
6136,14507334,1,0.001374621,0.007085424,0.005276507,-0.3157002,-0.1217339,-9.880485999999999,0,0,45.59706,1,1,755,999
6139,14510319,1,0.001049475,0.005956166,0.005437758,-0.3038897,-0.1223233,-9.881245,0,0,45.59706,1,1,755,999
6142,14512132,1,0.002280164,0.003863005,0.005116079,-0.2888181,-0.1370752,-9.852503,0,0,45.59706,1,1,755,999
6173,14514438,1,0.003336044,0.0001638077,0.005252116,-0.2879443,-0.1501375,-9.823410000000001,0,0,45.59689,1,1,755,999
6176,14517233,1,0.003203026,-0.001064335,0.004039227,-0.3009029,-0.1713227,-9.779153000000001,0,0,45.59689,1,1,755,999
6180,14520218,1,0.003934775,0.002550197,0.0007434937,-0.3088948,-0.173406,-9.749369,0,0,45.59689,1,1,755,999
6183,14522472,1,0.003617838,0.004550781,-0.0003036587,-0.3079468,-0.1695113,-9.721166999999999,0,0,45.59689,1,1,755,999
6214,14525484,1,0.0007314582,0.007004471,-0.0004429312,-0.2969911,-0.1580753,-9.682873000000001,0,0,45.59672,1,1,755,999
6217,14526945,1,-0.002050093,0.004062161,0.002666173,-0.2971033,-0.1426159,-9.690365,0,0,45.59672,1,1,755,999
6220,14529801,1,-0.002345882,0.002767617,0.004295838,-0.2958015,-0.1371104,-9.716478,0,0,45.59672,1,1,755,999
6223,14532504,1,0.001032464,-0.0008010785000000001,0.008557689,-0.2928975,-0.1276666,-9.755478999999999,0,0,45.59672,1,1,755,999
6254,14535243,1,0.0006767887,-0.003601822,0.007059334,-0.2912391,-0.1185595,-9.783239999999999,0,0,45.59672,1,1,755,999
6257,14538123,1,-0.0004849813,-0.004609303,0.00599719,-0.2920263,-0.1029232,-9.797046999999999,0,0,45.59653,1,1,755,999
6261,14540284,1,-0.002120013,-0.005504168,0.003650602,-0.2926174,-0.08072240999999999,-9.817981,0,0,45.59653,1,1,755,999
6268,14542674,1,-0.001674439,-0.005579077,0.002498794,-0.2827036,-0.07306187,-9.829071000000001,0,0,45.59653,1,1,755,999
6299,14545910,1,0.0008299823,-0.004003915,0.001417562,-0.2688146,-0.06244767,-9.818484,0,0,45.59653,1,1,755,999
6302,14547535,1,0.003945909,-0.0003509506,0.002672872,-0.2634395,-0.06440888,-9.797439000000001,0,0,45.59632,1,1,755,999
6305,14550573,1,0.005362803,0.002084289,0.003654988,-0.2673623,-0.06931817999999999,-9.779966,0,0,45.59632,1,1,755,999
6308,14552337,1,0.006106447,0.001956433,0.002111513,-0.2888201,-0.07996362,-9.76211,0,0,45.59632,1,1,755,999
6339,14555628,1,0.006224126,0.003156266,-0.0001502002,-0.3207275,-0.09959427,-9.739134999999999,0,0,45.59632,1,1,755,999
6342,14557558,1,0.007632686,0.002702196,-0.0008251441,-0.3593374,-0.1425521,-9.721966999999999,0,0,45.59632,1,1,755,999
6347,14560109,1,0.008022270999999999,0.0008563082,-0.0009326833,-0.3800903,-0.1876679,-9.732756999999999,0,0,45.59612,1,1,755,999
6350,14562917,1,0.007134461,0.0004171897,-0.001254784,-0.3791546,-0.2161865,-9.742084999999999,0,0,45.59612,1,1,755,999
6381,14565327,1,0.0003495936,0.003806772,-0.003192085,-0.362473,-0.2347679,-9.735366000000001,0,0,45.59612,1,1,755,999
6384,14568264,1,-0.001541562,0.006484463,-0.004175424,-0.354813,-0.2310785,-9.712792,0,0,45.59612,1,1,755,999
6388,14570357,1,-0.001729523,0.01011534,-0.004799292,-0.3455177,-0.2270179,-9.676193,0,0,45.59593,1,1,755,999
6391,14572511,1,7.68568e-05,0.01006094,-0.003472151,-0.3346798,-0.2265096,-9.661941000000001,0,0,45.59593,1,1,755,999
6422,14575376,1,0.0008085844,0.01045193,-0.0005870482,-0.3197859,-0.2138633,-9.671256,0,0,45.59593,1,1,755,999
6426,14577762,1,0.001011573,0.01124536,0.002510103,-0.3123063,-0.2080908,-9.696213,0,0,45.59593,1,1,755,999
6429,14580361,1,0.002578931,0.00994257,0.004325821,-0.2981651,-0.1983102,-9.737226,0,0,45.59593,1,1,755,999
6432,14585120,1,0.004598705,0.003720634,0.005068206,-0.2804007,-0.1390202,-9.756544,0,0,45.59576,1,1,755,999
6463,14590899,1,0.003677629,0.005180316,0.006701748,-0.3014798,-0.08052187,-9.788747000000001,0,0,45.59576,1,1,755,999
6467,14593503,1,0.002868831,0.003414453,0.005728083,-0.304583,-0.0760672,-9.798686999999999,0,0,45.59559,1,1,755,999
6470,14595858,1,0.002513276,0.003992103,0.004195006,-0.3001116,-0.08163405999999999,-9.806713,0,0,45.59559,1,1,755,999
6501,14598253,1,0.002038492,0.007261542,-0.0003194256,-0.3036223,-0.08186762,-9.814075000000001,0,0,45.59559,1,1,755,999
6504,14601263,1,0.002592917,0.006753703,-0.001093577,-0.316106,-0.0818885,-9.823375,0,0,45.59559,1,1,755,999
6507,14603237,1,0.004755421,0.005544078,-0.0007010725999999999,-0.3437899,-0.09153188,-9.82654,0,0,45.59543,1,1,755,999
6510,14606074,1,0.005925449,0.004408995,0.0009984712,-0.362863,-0.1102765,-9.834989,0,0,45.59543,1,1,755,999
6541,14608252,1,0.006595077,0.005403081,0.001935179,-0.3814341,-0.1439567,-9.862011000000001,0,0,45.59543,1,1,755,999
6544,14611259,1,0.007228675,0.007450907,0.004125446,-0.3794361,-0.1600048,-9.874162,0,0,45.59543,1,1,755,999
6548,14613583,1,0.005527259,0.007967781,0.00610958,-0.3632138,-0.1873516,-9.880604,0,0,45.59527,1,1,755,999
6551,14616259,1,0.004165622,0.007209783,0.006287986,-0.3530101,-0.2063464,-9.883069000000001,0,0,45.59527,1,1,755,999
6582,14619048,1,0.002160746,0.004729145,0.004587093,-0.3245191,-0.2141145,-9.874668,0,0,45.59527,1,1,755,999
6585,14620950,1,0.002159134,0.005123563,0.004536596,-0.3074005,-0.2006349,-9.855007000000001,0,0,45.59527,1,1,755,999
6589,14624001,1,0.002003185,0.005276115,0.005175652,-0.2879197,-0.1720675,-9.847787,0,0,45.59527,1,1,755,999
6592,14626238,1,0.00164978,0.004759739,0.004027117,-0.2804615,-0.1580499,-9.853852,0,0,45.59509,1,1,755,999
6623,14628333,1,0.0003792159,0.005042173,0.002391396,-0.2780925,-0.1314074,-9.861185000000001,0,0,45.59509,1,1,755,999
6626,14631274,1,-3.450766e-05,0.002516909,0.0003830682,-0.267993,-0.1146602,-9.852802000000001,0,0,45.59509,1,1,755,999
6630,14633917,1,-0.0001073246,-0.002806516,-0.001663525,-0.2552282,-0.08326989,-9.832851,0,0,45.59509,1,1,755,999
6633,14636914,1,-8.179656e-05,-0.004725001,-0.002052774,-0.2550272,-0.07175854,-9.824420999999999,0,0,45.5949,1,1,755,999
6664,14639283,1,0.001543465,-0.008731516999999999,-0.001438458,-0.2668745,-0.06869248,-9.812951999999999,0,0,45.5949,1,1,755,999
6667,14641924,1,0.002197003,-0.006327651,0.0001359063,-0.2763827,-0.07814161,-9.807271999999999,0,0,45.5949,1,1,755,999
6675,14644509,1,0.001587179,-0.0005917489,0.002117376,-0.2942359,-0.09435149,-9.794839,0,0,45.5949,1,1,755,999
6678,14647077,1,0.0004489233,0.003176317,0.003014129,-0.2969332,-0.09636947999999999,-9.791413,0,0,45.59471,1,1,755,999
6709,14650055,1,-0.0001134498,0.004644341,0.002666806,-0.2968634,-0.1039093,-9.792165000000001,0,0,45.59471,1,1,755,999
6712,14651875,1,-0.001897536,0.003590089,0.003311355,-0.3003001,-0.1074754,-9.778536000000001,0,0,45.59471,1,1,755,999
6717,14654570,1,-0.004075064,0.001923834,0.003832248,-0.2937083,-0.1082088,-9.759789,0,0,45.59471,1,1,755,999
6720,14657018,1,-0.004444917,0.000651591,0.003569547,-0.2846654,-0.1189055,-9.730641,0,0,45.59471,1,1,755,999
6751,14660020,1,0.0003348565,-0.0009763109,0.002132102,-0.2733461,-0.1237366,-9.669001,0,0,45.59453,1,1,755,999
6754,14662362,1,0.004714084,-2.210795e-05,0.00206354,-0.260187,-0.138368,-9.620091,0,0,45.59453,1,1,755,999
6758,14664465,1,0.006105747,-2.359408e-05,0.002394129,-0.259723,-0.1528115,-9.608142000000001,0,0,45.59453,1,1,755,999
6761,14666756,1,0.007131722,0.0006384349,0.0034814,-0.2606714,-0.1713914,-9.613955000000001,0,0,45.59453,1,1,755,999
6792,14669118,1,0.006867966,0.003779627,0.00390983,-0.2615029,-0.1784118,-9.641627,0,0,45.59436,1,1,755,999
6795,14672019,1,0.00618434,0.00543535,0.004522521,-0.2629361,-0.1705978,-9.675773,0,0,45.59436,1,1,755,999
6801,14674541,1,0.003785035,0.006076902,0.004920502,-0.2677568,-0.156602,-9.727123000000001,0,0,45.59436,1,1,755,999
6804,14676888,1,0.002323585,0.007295723,0.005229718,-0.2762401,-0.1533824,-9.770856,0,0,45.59436,1,1,755,999
6835,14679071,1,-0.003800489,0.01041621,0.003666039,-0.2977918,-0.1460255,-9.83724,0,0,45.59421,1,1,755,999
6838,14681890,1,-0.005870672,0.01047716,0.002552433,-0.3117178,-0.1439022,-9.854944,0,0,45.59421,1,1,755,999
6841,14688214,1,-0.004968338,0.004640901,0.002062713,-0.3282532,-0.1794089,-9.848488,0,0,45.59421,1,1,755,999
6844,14689884,1,-0.004376684,0.002015334,0.0005793876,-0.3105987,-0.2118273,-9.821996,0,0,45.59421,1,1,755,999
6875,14692314,1,-0.007114672,0.001211025,-0.003735355,-0.3020757,-0.2339713,-9.812618000000001,0,0,45.59409,1,1,755,999
6879,14694506,1,-0.00763724,0.00204686,-0.00457162,-0.3052298,-0.2413147,-9.816611,0,0,45.59409,1,1,755,999
6882,14697774,1,-0.00521012,0.004085043,-0.004030991,-0.3191604,-0.2349541,-9.812998,0,0,45.59409,1,1,755,999
6885,14699962,1,-0.002035128,0.006283806,-0.003246416,-0.3431121,-0.2179495,-9.810556999999999,0,0,45.59409,1,1,755,999
6916,14703049,1,-0.0006502141,0.01023778,-0.001529501,-0.3701759,-0.1915611,-9.792809999999999,0,0,45.59399,1,1,755,999
6919,14704869,1,0.0004897788,0.0125105,0.00124356,-0.3716792,-0.1830726,-9.791542,0,0,45.59399,1,1,755,999
6922,14707119,1,-0.0004383257,0.01459607,0.002516519,-0.3535717,-0.1679627,-9.797231,0,0,45.59399,1,1,755,999
6925,14710266,1,-0.0009634215,0.01529154,0.003717216,-0.3319394,-0.154277,-9.808888,0,0,45.59399,1,1,755,999
6956,14712449,1,0.000256826,0.01287576,0.005492443,-0.3022376,-0.1453525,-9.811888,0,0,45.5939,1,1,755,999
6960,14715544,1,0.0003575598,0.01079269,0.005009535,-0.2828069,-0.1509311,-9.790476,0,0,45.5939,1,1,755,999
6963,14717957,1,-0.001429031,0.009763051,0.003525772,-0.2781132,-0.1581335,-9.779239,0,0,45.5939,1,1,755,999
6966,14720542,1,-0.003723528,0.004701091,-0.001106362,-0.2865164,-0.1659639,-9.775888,0,0,45.5939,1,1,755,999
6997,14722896,1,-0.002201471,0.002090716,-0.001822802,-0.3090461,-0.1794701,-9.790312,0,0,45.59382,1,1,755,999
7000,14725498,1,-0.002031624,0.001556577,-0.001244269,-0.3175732,-0.1956554,-9.799939,0,0,45.59382,1,1,755,999
7003,14728531,1,-0.001696221,0.003429424,0.001146378,-0.3096831,-0.20556,-9.807430999999999,0,0,45.59382,1,1,755,999
7006,14730865,1,-0.0005958338,0.004258048,0.002003601,-0.2988487,-0.208957,-9.811264,0,0,45.59382,1,1,755,999
7037,14733471,1,0.001017916,0.00359228,0.002058049,-0.2916993,-0.2054022,-9.816293,0,0,45.59382,1,1,755,999
7041,14735867,1,0.000905916,0.002965555,0.002112746,-0.2924189,-0.1953196,-9.821868,0,0,45.59375,1,1,755,999
7044,14738091,1,0.00112047,0.0005644394,0.003217994,-0.2989706,-0.1851465,-9.812137,0,0,45.59375,1,1,755,999
7048,14741098,1,0.003651968,-0.001278017,0.003080276,-0.3015387,-0.1881705,-9.808968999999999,0,0,45.59375,1,1,755,999
7079,14743551,1,0.005348258,-0.0001106152,0.00171997,-0.2990134,-0.1738251,-9.806258,0,0,45.59375,1,1,755,999
7086,14746441,1,0.005390245,0.0002509354,0.0008459817,-0.3077349,-0.1579387,-9.81521,0,0,45.59369,1,1,755,999
7089,14748890,1,0.003592169,-0.002268566,-0.0001079512,-0.313059,-0.1464913,-9.830971,0,0,45.59369,1,1,755,999
7092,14751514,1,0.001917696,-0.001766785,0.001073734,-0.3211374,-0.1311099,-9.864618999999999,0,0,45.59369,1,1,755,999
7123,14754095,1,0.0002469153,-0.0002865845,0.001502338,-0.3364766,-0.1297104,-9.891551,0,0,45.59369,1,1,755,999
7127,14756740,1,-0.0007535365,0.0002706386,0.0005604145,-0.3482761,-0.1352111,-9.893205999999999,0,0,45.59363,1,1,755,999
7130,14759726,1,-0.0009404658,0.0006487055,-0.001254616,-0.3637642,-0.1391474,-9.880551000000001,0,0,45.59363,1,1,755,999
7133,14761470,1,-0.0007017744,0.002227858,-0.001545863,-0.3682575,-0.127828,-9.869729,0,0,45.59363,1,1,755,999
7164,14764770,1,-0.002508274,0.00257435,-0.0001659964,-0.3704144,-0.1113482,-9.851001999999999,0,0,45.59363,1,1,755,999
7168,14767118,1,-0.002274341,0.0005767229,9.573496e-06,-0.3751237,-0.1088983,-9.833981,0,0,45.59363,1,1,755,999
7171,14769490,1,0.0009613263,-0.002365411,0.0004725675,-0.3704836,-0.1006484,-9.838106,0,0,45.59359,1,1,755,999
7174,14772534,1,0.002783459,-0.003575001,0.001379878,-0.3512516,-0.0997823,-9.856137,0,0,45.59359,1,1,755,999
7207,14775090,1,0.004513009,-0.001642519,0.003405611,-0.3109407,-0.120793,-9.850151,0,0,45.59359,1,1,755,999
7211,14778015,1,0.003041978,0.0008077705,0.005184571,-0.2868319,-0.1388056,-9.824629,0,0,45.59359,1,1,755,999
7214,14780373,1,-0.001916285,0.001939134,0.004404614,-0.2790696,-0.1535314,-9.768274,0,0,45.59356,1,1,755,999
7217,14783048,1,-0.002900674,0.002619192,0.004332679,-0.274031,-0.1571871,-9.731109999999999,0,0,45.59356,1,1,755,999
7248,14788410,1,-0.004767152,0.001160269,0.004038041,-0.2413913,-0.1487963,-9.698274,0,0,45.59356,1,1,755,999
7252,14790567,1,-0.005468801,-0.0006746008,0.005476315,-0.2354642,-0.1412824,-9.692315000000001,0,0,45.59357,1,1,755,999
7255,14796773,1,0.003033918,8.621774e-05,0.004533397,-0.254189,-0.1071228,-9.667638,0,0,45.59357,1,1,755,999
7286,14799556,1,0.005561393,0.002031181,0.003462145,-0.2643009,-0.1039926,-9.671493999999999,0,0,45.59357,1,1,755,999
7289,14801865,1,0.006441202,0.003136767,0.003008529,-0.2671708,-0.1051467,-9.689228,0,0,45.5936,1,1,755,999
7293,14804551,1,0.004244178,0.001062844,0.00252358,-0.2908807,-0.1128688,-9.738358,0,0,45.5936,1,1,755,999
7296,14807229,1,0.002883915,-0.001587842,0.001326654,-0.3113458,-0.1179333,-9.779093,0,0,45.5936,1,1,755,999
7327,14809887,1,0.003698552,-0.0003170903,0.0008343431,-0.3356569,-0.1306954,-9.836202999999999,0,0,45.5936,1,1,755,999
7331,14812100,1,0.00313246,0.002551649,0.000857915,-0.3364855,-0.1471308,-9.874169,0,0,45.59364,1,1,755,999
7334,14814741,1,0.001522423,0.004794509,0.002189168,-0.3261542,-0.1608888,-9.880065999999999,0,0,45.59364,1,1,755,999
7337,14817311,1,0.00282235,0.005836141,0.003435489,-0.3022743,-0.177684,-9.874771000000001,0,0,45.59364,1,1,755,999
7368,14820352,1,0.004361741,0.008085739999999999,0.00454584,-0.2889693,-0.1831197,-9.867554999999999,0,0,45.59364,1,1,755,999
7372,14822546,1,0.002893484,0.01055785,0.004545602,-0.2753696,-0.186531,-9.859400000000001,0,0,45.59368,1,1,755,999
7375,14824449,1,0.001525803,0.01042273,0.005290291,-0.2652879,-0.1885088,-9.854988000000001,0,0,45.59368,1,1,755,999
7378,14827081,1,-5.686194e-05,0.006218905,0.007606915,-0.264846,-0.1788838,-9.856595,0,0,45.59368,1,1,755,999
7409,14829941,1,0.0002465196,0.004863059,0.007678091,-0.2697702,-0.159038,-9.855024,0,0,45.59368,1,1,755,999
7412,14832520,1,0.00167079,0.002285808,0.006640748,-0.2745204,-0.12221,-9.858606999999999,0,0,45.59368,1,1,755,999
7415,14834975,1,0.00562491,0.0005399276,0.005116004,-0.2666861,-0.1087538,-9.857101999999999,0,0,45.59372,1,1,755,999
7418,14837356,1,0.009834344,0.0005751788,0.00353379,-0.2515564,-0.09627011000000001,-9.832541000000001,0,0,45.59372,1,1,755,999
7449,14840107,1,0.01292296,0.002917745,0.00300594,-0.240834,-0.08442532,-9.811055,0,0,45.59372,1,1,755,999
7453,14842279,1,0.01714951,0.001754405,0.005168652,-0.2244786,-0.07931937999999999,-9.747249999999999,0,0,45.59372,1,1,755,999
7457,14845000,1,0.02031168,0.0003550834,0.005474779,-0.2028943,-0.08559376,-9.689662999999999,0,0,45.59378,1,1,755,999
7460,14847713,1,0.03125362,0.002047765,0.001765793,-0.1410881,-0.1091895,-9.618048999999999,0,0,45.59378,1,1,755,999
7495,14850506,1,0.03825719,0.005233509,1.610993e-05,-0.07366899,-0.158771,-9.564992999999999,0,0,45.59378,1,1,755,999
7498,14852493,1,0.04733765,0.01007763,-0.003283428,-0.02635698,-0.2085184,-9.522734,0,0,45.59378,1,1,755,999
7502,14855490,1,0.05949744,0.01408063,-0.01006207,0.05460551,-0.310245,-9.455539999999999,0,0,45.59384,1,1,755,999
7505,14857884,1,0.06448664,0.01407159,-0.01489372,0.1167685,-0.3989967,-9.418716,0,0,45.59384,1,1,755,999
7538,14861292,1,0.06471106,0.01207041,-0.03181181,0.1741398,-0.5230446,-9.395445,0,0,45.59384,1,1,755,999
7542,14862915,1,0.0610607,0.01254808,-0.03681574,0.1819305,-0.5887926,-9.409554,0,0,45.59384,1,1,755,999
7545,14865231,1,0.0543253,0.01504109,-0.04264313,0.1475751,-0.6597186,-9.463456000000001,0,0,45.59384,1,1,755,999
7548,14868008,1,0.05407234,0.01571481,-0.04433383,0.09242315,-0.6802319999999999,-9.51789,0,0,45.59391,1,1,755,999
7579,14870507,1,0.05574263,0.01421111,-0.0456276,-0.02869177,-0.6669225,-9.605288,0,0,45.59391,1,1,755,999
7582,14873087,1,0.05046366,0.01176963,-0.04492661,-0.1110832,-0.6193241,-9.657094000000001,0,0,45.59391,1,1,755,999
7585,14875315,1,0.04292493,0.007598881,-0.04398404,-0.2363878,-0.4830061,-9.732602,0,0,45.59391,1,1,755,999
7588,14877923,1,0.04289174,0.005922399,-0.04338265,-0.3118527,-0.3713813,-9.771129999999999,0,0,45.59398,1,1,755,999
7619,14881557,1,0.05424599,0.002590919,-0.03521095,-0.3663359,-0.2198437,-9.850395000000001,0,0,45.59398,1,1,755,999
7622,14883550,1,0.0603644,-0.003563707,-0.02794195,-0.3528299,-0.07809840999999999,-9.948499,0,0,45.59398,1,1,755,999
7626,14886044,1,0.06269619999999999,-0.009971443999999999,-0.02437625,-0.3314429,0.01196477,-10.00083,0,0,45.59398,1,1,755,999
7630,14888031,1,0.07041136000000001,-0.01175303,-0.02172448,-0.2756036,0.09481718,-10.05908,0,0,45.59406,1,1,755,999
7661,14890903,1,0.07517383,-0.01163492,-0.01957311,-0.2151825,0.09937066,-10.09335,0,0,45.59406,1,1,755,999
7664,14893960,1,0.07704419,-0.009308701000000001,-0.01674683,-0.1393985,0.03446885,-10.14472,0,0,45.59406,1,1,755,999
7668,14898468,1,0.05086813,-0.000254393,-0.01767456,-0.115032,-0.1184524,-10.15842,0,0,45.59406,1,1,755,999
7699,14900898,1,0.04237908,-0.007554631,-0.01749103,-0.1350486,-0.214116,-10.11075,0,0,45.59414,1,1,755,999
7703,14903899,1,0.03828148,-0.01349214,-0.01601063,-0.1765507,-0.2815539,-10.05995,0,0,45.59414,1,1,755,999
7706,14906899,1,0.0216003,-0.02165643,-0.01244869,-0.2709702,-0.3516588,-9.991813,0,0,45.59414,1,1,755,999
7709,14909722,1,-0.0003804963,-0.02556753,-0.007941583,-0.3151911,-0.3616004,-9.95008,0,0,45.59414,1,1,755,999
7712,14911071,1,-0.0128116,-0.0307133,-0.002225329,-0.3586053,-0.3221245,-9.900271,0,0,45.59423,1,1,755,999
7743,14913468,1,-0.01354887,-0.03353671,0.002567036,-0.3782133,-0.27269,-9.883433,0,0,45.59423,1,1,755,999
7747,14916061,1,-0.009655423999999999,-0.03051861,0.007026282,-0.368507,-0.1931549,-9.872833999999999,0,0,45.59423,1,1,755,999
7750,14919231,1,-0.009072482999999999,-0.02885277,0.008961734000000001,-0.3398235,-0.1432811,-9.861772999999999,0,0,45.59423,1,1,755,999
7753,14921527,1,-0.0182756,-0.02987049,0.009786988,-0.3193088,-0.06439757,-9.837440000000001,0,0,45.59433,1,1,755,999
7784,14923893,1,-0.02451805,-0.02957635,0.007478993,-0.3493253,0.03071658,-9.819986,0,0,45.59433,1,1,755,999
7787,14926467,1,-0.02430414,-0.02783818,0.006783322,-0.3798897,0.08528071,-9.807040000000001,0,0,45.59433,1,1,755,999
7790,14929939,1,-0.02168172,-0.02337421,0.008488102000000001,-0.4194139,0.1075066,-9.785971999999999,0,0,45.59433,1,1,755,999
7793,14931448,1,-0.02504679,-0.02319986,0.01225601,-0.5150036,0.1186188,-9.728433000000001,0,0,45.59433,1,1,755,999
7824,14934366,1,-0.03357978,-0.02322396,0.01677154,-0.6466697,0.1141909,-9.64171,0,0,45.59443,1,1,755,999
7828,14936525,1,-0.03883037,-0.01902138,0.02453782,-0.7296323,0.1029258,-9.592077,0,0,45.59443,1,1,755,999
7831,14939264,1,-0.04191277,-0.01043191,0.03064552,-0.8347867,0.06694143,-9.545814999999999,0,0,45.59443,1,1,755,999
7834,14941945,1,-0.04635737,-0.003647533,0.03679592,-0.8785261,0.05041767,-9.535899000000001,0,0,45.59443,1,1,755,999
7865,14944943,1,-0.05202593,-0.004376378,0.04127316,-0.8877121,0.05349356,-9.531767,0,0,45.59454,1,1,755,999
7869,14947010,1,-0.05437466,-0.004704957,0.04155971,-0.8604946999999999,0.06938867,-9.526832000000001,0,0,45.59454,1,1,755,999
7872,14949510,1,-0.05449304,-0.0008390453,0.0402546,-0.7735298,0.1051836,-9.530544000000001,0,0,45.59454,1,1,755,999
7880,14952991,1,-0.05494326,0.001998852,0.03977506,-0.7116797,0.1327036,-9.526242,0,0,45.59454,1,1,755,999
7883,14954293,1,-0.05743001,0.01440907,0.03954823,-0.6206452,0.1768165,-9.522311999999999,0,0,45.59466,1,1,755,999
7914,14957599,1,-0.05523619,0.01821378,0.0366952,-0.5275068000000001,0.1962222,-9.512513,0,0,45.59466,1,1,755,999
7917,14959290,1,-0.05216077,0.01812699,0.03407701,-0.4772838,0.1825094,-9.499995,0,0,45.59466,1,1,755,999
7920,14962010,1,-0.04742058,0.01577168,0.02910948,-0.4552014,0.1668728,-9.48795,0,0,45.59466,1,1,755,999
7923,14964994,1,-0.04767879,0.01560153,0.02854096,-0.4625432,0.1468307,-9.473255999999999,0,0,45.59466,1,1,755,999
7954,14967215,1,-0.04392911,0.01898403,0.02940133,-0.4774765,0.1175826,-9.505610000000001,0,0,45.59478,1,1,755,999
7958,14970002,1,-0.03986181,0.01732492,0.0264267,-0.5029037,0.08451908,-9.552588,0,0,45.59478,1,1,755,999
7961,14972879,1,-0.04280854,0.01625204,0.02303309,-0.5778731,0.005908646,-9.63808,0,0,45.59478,1,1,755,999
7964,14975533,1,-0.04789793,0.02130705,0.0209165,-0.6228428,-0.04678036,-9.704397,0,0,45.59478,1,1,755,999
7995,14977992,1,-0.04180923,0.02766477,0.01139959,-0.6395456,-0.1254296,-9.829050000000001,0,0,45.59491,1,1,755,999
7998,14980839,1,-0.03890794,0.02574325,0.00693364,-0.6269743,-0.1609848,-9.881361,0,0,45.59491,1,1,755,999
8001,14983220,1,-0.03912146,0.02058697,-0.0006287987,-0.6110654,-0.2064256,-9.95243,0,0,45.59491,1,1,755,999
8004,14985960,1,-0.04533503,0.02411875,-0.003856637,-0.5767312,-0.2822467,-10.1053,0,0,45.59491,1,1,755,999
8035,14989496,1,-0.04583741,0.02921591,-0.003653774,-0.5291566,-0.3474133,-10.26373,0,0,45.59504,1,1,755,999
8039,14990773,1,-0.02448981,0.02836496,-0.003093597,-0.518257,-0.3843126,-10.35662,0,0,45.59504,1,1,755,999
8043,14993461,1,-0.0176123,0.02731361,-0.003154633,-0.5322103,-0.4067212,-10.37376,0,0,45.59504,1,1,755,999
8046,14996019,1,-0.01206864,0.02699506,-0.00655602,-0.5598884,-0.4292007,-10.36001,0,0,45.59504,1,1,755,999
8077,15002205,1,-0.008002215,0.03070871,-0.01175821,-0.731572,-0.4887533,-10.25024,0,0,45.59518,1,1,755,999
8082,15004235,1,0.002334721,0.02891604,-0.01094717,-0.8218487,-0.5416994000000001,-10.17794,0,0,45.59518,1,1,755,999
8085,15006369,1,0.01087307,0.03072737,-0.008930499999999999,-0.8555623999999999,-0.5926934,-10.11776,0,0,45.59518,1,1,755,999
8116,15009761,1,0.01643576,0.03266409,-0.007131333,-0.8547639,-0.6793433,-10.00931,0,0,45.59518,1,1,755,999
8119,15011296,1,0.02292087,0.0327247,-0.006998676,-0.8200457,-0.7584364,-9.928953999999999,0,0,45.59532,1,1,755,999
8122,15014367,1,0.0282009,0.0333546,-0.007227661,-0.7669066,-0.8508154999999999,-9.862135,0,0,45.59532,1,1,755,999
8125,15016758,1,0.02960354,0.0336276,-0.00842071,-0.6573218,-0.9782428,-9.789993000000001,0,0,45.59532,1,1,755,999
8156,15019045,1,0.0301351,0.03352894,-0.01539061,-0.5209916,-1.069082,-9.743220000000001,0,0,45.59532,1,1,755,999
8159,15022104,1,0.02998389,0.03333431,-0.01735301,-0.4340352,-1.121313,-9.730166000000001,0,0,45.59547,1,1,755,999
8163,15024215,1,0.02574618,0.02920546,-0.02035167,-0.3639682,-1.170617,-9.729243,0,0,45.59547,1,1,755,999
8166,15027030,1,0.0217757,0.0293307,-0.02079904,-0.3072748,-1.219925,-9.745528999999999,0,0,45.59547,1,1,755,999
8197,15029272,1,0.011654,0.03238086,-0.02302299,-0.3119829,-1.240729,-9.792203000000001,0,0,45.59547,1,1,755,999
8200,15031755,1,0.00285404,0.03689905,-0.02506787,-0.3429848,-1.231455,-9.837198000000001,0,0,45.59561,1,1,755,999
8203,15034929,1,-0.0005450599,0.03677761,-0.02118415,-0.4302441,-1.206576,-9.911485000000001,0,0,45.59561,1,1,755,999
8206,15037324,1,-0.005474299,0.0325147,-0.01634575,-0.4989519,-1.186769,-9.980181999999999,0,0,45.59561,1,1,755,999
8237,15039928,1,-0.02786021,0.03172243,-0.009006279000000001,-0.6093454,-1.110382,-10.15857,0,0,45.59561,1,1,755,999
8240,15042297,1,-0.03879924,0.03378581,-0.005226332,-0.6467321,-1.034077,-10.26369,0,0,45.59576,1,1,755,999
8244,15045291,1,-0.06147,0.04047354,0.002275642,-0.6632884999999999,-0.9490382000000001,-10.37101,0,0,45.59576,1,1,755,999
8248,15048072,1,-0.07879597000000001,0.04797714,0.008250644999999999,-0.6323547,-0.8271037,-10.5193,0,0,45.59576,1,1,755,999
8279,15051068,1,-0.09309231,0.05089091,0.01344613,-0.5632042,-0.6935403,-10.60824,0,0,45.59576,1,1,755,999
8282,15053118,1,-0.1074538,0.0517969,0.01870875,-0.502656,-0.5512686,-10.63018,0,0,45.59592,1,1,755,999
8290,15056063,1,-0.1240536,0.05183585,0.02567871,-0.4681871,-0.4529551,-10.62254,0,0,45.59592,1,1,755,999
8295,15058507,1,-0.1404127,0.04881436,0.0368812,-0.4491301,-0.3049489,-10.61325,0,0,45.59592,1,1,755,999
8326,15061509,1,-0.1570981,0.04526221,0.05672058,-0.494512,-0.1635934,-10.59084,0,0,45.59592,1,1,755,999
8329,15063510,1,-0.1604145,0.04614841,0.06311414999999999,-0.5433968,-0.08559543,-10.5596,0,0,45.59592,1,1,755,999
8334,15066552,1,-0.167861,0.04995397,0.07409759,-0.5854855,-0.0167669,-10.50403,0,0,45.59608,1,1,755,999
8337,15068647,1,-0.1805067,0.05278747,0.08184028,-0.6192829,0.06496589,-10.37239,0,0,45.59608,1,1,755,999
8368,15071509,1,-0.197485,0.05557126,0.08963678,-0.6066545,0.09733517999999999,-10.17692,0,0,45.59608,1,1,755,999
8371,15073546,1,-0.2140501,0.05882318,0.1002009,-0.5688491,0.08982486000000001,-10.05748,0,0,45.59608,1,1,755,999
8375,15076085,1,-0.2261635,0.0639204,0.1105356,-0.4626927,0.07205934999999999,-9.913266,0,0,45.59628,1,1,755,999
8378,15078458,1,-0.2300992,0.06723548999999999,0.1134007,-0.3538218,0.06540915999999999,-9.84417,0,0,45.59628,1,1,755,999
8409,15080903,1,-0.2409177,0.06734118,0.117883,-0.1542947,0.05526962,-9.778460000000001,0,0,45.59628,1,1,755,999
8412,15083943,1,-0.2467086,0.06498516,0.1192145,-0.01257961,0.05295029,-9.752389000000001,0,0,45.59628,1,1,755,999
8415,15086725,1,-0.2626129,0.06219004,0.1196826,0.1923061,0.0917511,-9.731284,0,0,45.5965,1,1,755,999
8418,15088709,1,-0.2766146,0.0615195,0.1163689,0.3028323,0.1470456,-9.713784,0,0,45.5965,1,1,755,999
8449,15091082,1,-0.2809286,0.06231916,0.1101822,0.4049168,0.2377922,-9.665054,0,0,45.5965,1,1,755,999
8452,15093711,1,-0.2822455,0.05926701,0.1054303,0.4246969,0.2990339,-9.652272,0,0,45.5965,1,1,755,999
8457,15101494,1,-0.2909174,0.06179283,0.09816047999999999,0.281158,0.6977093,-9.915269,0,0,45.59674,1,1,755,999
8489,15104486,1,-0.2784682,0.06445565,0.094543,0.2330285,0.8625993,-10.14333,0,0,45.59674,1,1,755,999
8493,15106848,1,-0.27417,0.06634437999999999,0.09353386,0.2240016,0.9463452,-10.27952,0,0,45.59674,1,1,755,999
8496,15109940,1,-0.2770442,0.07753226000000001,0.08624242,0.2742307,1.029811,-10.42218,0,0,45.59699,1,1,755,999
8499,15112261,1,-0.2781884,0.08168884,0.08263911,0.3475168,1.057701,-10.48729,0,0,45.59699,1,1,755,999
8530,15114449,1,-0.2719756,0.08483557,0.07554253,0.4681352,1.018478,-10.58686,0,0,45.59699,1,1,755,999
8533,15117311,1,-0.263775,0.08117557,0.06474943,0.5469617,0.8970578,-10.71796,0,0,45.59699,1,1,755,999
8536,15119931,1,-0.2680914,0.08233541,0.06273271,0.5626981,0.7956343,-10.7887,0,0,45.59728,1,1,755,999
8539,15122501,1,-0.2882716,0.08291342,0.06323091,0.5222474,0.6480868,-10.87902,0,0,45.59728,1,1,755,999
8570,15125331,1,-0.2973074,0.08045289999999999,0.06472342,0.421398,0.4993888,-10.96705,0,0,45.59728,1,1,755,999
8574,15127204,1,-0.3024192,0.07901295,0.06577634,0.3268328,0.3888,-11.02228,0,0,45.59728,1,1,755,999
8577,15129764,1,-0.317305,0.07879071999999999,0.0688918,0.2217028,0.2912194,-11.06418,0,0,45.59728,1,1,755,999
8581,15132096,1,-0.336828,0.08309262000000001,0.07265471,0.06343496999999999,0.1653582,-11.10158,0,0,45.59761,1,1,755,999
8612,15135096,1,-0.3516847,0.08469581,0.07802808,-0.02265406,0.1090804,-11.10748,0,0,45.59761,1,1,755,999
8615,15137887,1,-0.3626773,0.08231326,0.08437443,-0.1107208,0.0666359,-11.09255,0,0,45.59761,1,1,755,999
8618,15139899,1,-0.3677996,0.08182215,0.08674746999999999,-0.1420897,0.06696898,-11.07876,0,0,45.59761,1,1,755,999
8621,15141972,1,-0.3830996,0.08921390999999999,0.09072751,-0.1465612,0.08991435,-11.06082,0,0,45.59796,1,1,755,999
8652,15144440,1,-0.3883236,0.09226653999999999,0.0920115,-0.1344999,0.1130692,-11.0556,0,0,45.59796,1,1,755,999
8656,15147127,1,-0.3964016,0.09032393,0.09683981999999999,-0.1249724,0.159484,-11.08261,0,0,45.59796,1,1,755,999
8659,15150260,1,-0.4021111,0.07908703,0.1050773,-0.1350607,0.1805898,-11.11404,0,0,45.59796,1,1,755,999
8662,15152300,1,-0.4065156,0.06929581999999999,0.1132066,-0.1692282,0.196213,-11.11966,0,0,45.59796,1,1,755,999
8693,15155087,1,-0.406441,0.06287117,0.1210043,-0.2032853,0.2018902,-11.10498,0,0,45.59832,1,1,755,999
8700,15157835,1,-0.4081394,0.05681919,0.1276888,-0.2990072,0.1860723,-11.07996,0,0,45.59832,1,1,755,999
8703,15159923,1,-0.4177863,0.05504079,0.1328838,-0.3866064,0.1692294,-11.06102,0,0,45.59832,1,1,755,999
8706,15162651,1,-0.4259245,0.05495076,0.1356395,-0.5119816,0.1431085,-11.00589,0,0,45.59832,1,1,755,999
8737,15165447,1,-0.4281631,0.05133381,0.1388619,-0.6285299,0.1060314,-10.93557,0,0,45.59869,1,1,755,999
8741,15167523,1,-0.4357783,0.04715713,0.1441635,-0.7014475,0.08782673000000001,-10.86798,0,0,45.59869,1,1,755,999
8744,15170326,1,-0.4549426,0.04739432,0.1495728,-0.7841392,0.09392294,-10.73826,0,0,45.59869,1,1,755,999
8747,15172438,1,-0.4648368,0.04798815,0.1525307,-0.81942,0.1108339,-10.65248,0,0,45.59869,1,1,755,999
8778,15175561,1,-0.4829937,0.05655545,0.1619736,-0.8708437999999999,0.1520711,-10.54209,0,0,45.59907,1,1,755,999
8781,15178056,1,-0.4854979,0.06259715,0.1639274,-0.8797391,0.2021061,-10.48101,0,0,45.59907,1,1,755,999
8784,15180324,1,-0.4821914,0.06859255,0.1647752,-0.8104505,0.3146307,-10.4232,0,0,45.59907,1,1,755,999
8787,15182475,1,-0.4699577,0.05735441,0.1609753,-0.7340912000000001,0.3869709,-10.3953,0,0,45.59907,1,1,755,999
8818,15184949,1,-0.4597504,0.03933433,0.1565189,-0.6495398,0.4543968,-10.36568,0,0,45.59948,1,1,755,999
8823,15187965,1,-0.4610555,0.03973338,0.1579451,-0.6195299,0.492837,-10.37854,0,0,45.59948,1,1,755,999
8826,15190665,1,-0.4653974,0.05964033,0.1663398,-0.5653771,0.5549622,-10.46355,0,0,45.59948,1,1,755,999
8829,15192449,1,-0.4585988,0.07107268,0.1757165,-0.517481,0.5714386,-10.5514,0,0,45.59948,1,1,755,999
8860,15194932,1,-0.4462559,0.06246474,0.1806722,-0.4882064,0.5315036,-10.63244,0,0,45.59948,1,1,755,999
8864,15197561,1,-0.4424802,0.05726948,0.182468,-0.4806093,0.469826,-10.61478,0,0,45.59991,1,1,755,999
8868,15205838,1,-0.4664566,0.08066362000000001,0.2119077,-0.4230342,0.1812822,-10.56017,0,0,45.59991,1,1,755,999
8899,15208092,1,-0.4640105,0.08009088,0.2322118,-0.4205078,0.1228138,-10.69643,0,0,45.60033,1,1,755,999
8903,15210905,1,-0.4651771,0.08141451,0.2368582,-0.4099503,0.09845893,-10.78117,0,0,45.60033,1,1,755,999
8906,15213574,1,-0.4746282,0.08632607,0.2433922,-0.3581183,0.1128413,-10.81653,0,0,45.60033,1,1,755,999
8909,15216141,1,-0.4800731,0.08178198,0.2467245,-0.2249396,0.2032876,-10.83717,0,0,45.60033,1,1,755,999
8940,15218539,1,-0.4730341,0.07595534,0.2519757,-0.09875442,0.3453785,-10.90025,0,0,45.60075,1,1,755,999
8944,15221256,1,-0.4597043,0.07653008,0.2641798,0.01030862,0.5168073,-10.97453,0,0,45.60075,1,1,755,999
8947,15223502,1,-0.4462043,0.08386159,0.2821573,0.08967875,0.6406114000000001,-11.01398,0,0,45.60075,1,1,755,999
8950,15226936,1,-0.4332831,0.08714329,0.2996663,0.1545465,0.7427986,-11.06437,0,0,45.60075,1,1,755,999
8981,15229839,1,-0.4247381,0.0820796,0.3122602,0.2043549,0.8839073,-11.18913,0,0,45.60117,1,1,755,999
8984,15231922,1,-0.4199754,0.07985936,0.3205675,0.1925618,0.9249711,-11.25675,0,0,45.60117,1,1,755,999
8987,15234269,1,-0.4133815,0.08850338000000001,0.3292916,0.163238,0.9379037,-11.35936,0,0,45.60117,1,1,755,999
8990,15237451,1,-0.4054785,0.09919794,0.340002,0.1448047,0.9167244,-11.41329,0,0,45.60117,1,1,755,999
9021,15240295,1,-0.402147,0.1036939,0.3549514,0.1012267,0.8367808,-11.46008,0,0,45.60117,1,1,755,999
9025,15242321,1,-0.4053907,0.1052383,0.3728337,0.05294492,0.7371239000000001,-11.51367,0,0,45.60158,1,1,755,999
9028,15244954,1,-0.4092764,0.1107381,0.3929799,0.04791913,0.6876428999999999,-11.55823,0,0,45.60158,1,1,755,999
9031,15247752,1,-0.410784,0.1178662,0.4112093,0.07891927999999999,0.6564618,-11.61692,0,0,45.60158,1,1,755,999
9064,15250926,1,-0.4106502,0.1249062,0.4261358,0.1052433,0.6796362,-11.63961,0,0,45.60158,1,1,755,999
9068,15252987,1,-0.4122265,0.1295314,0.438468,0.1184801,0.7192133000000001,-11.64181,0,0,45.60199,1,1,755,999
9071,15255134,1,-0.4145418,0.1318773,0.4444472,0.1362711,0.7717722,-11.63822,0,0,45.60199,1,1,755,999
9074,15257361,1,-0.4156501,0.1440125,0.4667885,0.1628467,0.8745372,-11.64186,0,0,45.60199,1,1,755,999
9109,15260350,1,-0.4104338,0.1480302,0.4759392,0.1746347,0.9564124000000001,-11.63557,0,0,45.60199,1,1,755,999
9112,15262933,1,-0.3958697,0.1520692,0.4964971,0.2063721,1.066623,-11.59605,0,0,45.6024,1,1,755,999
9115,15265366,1,-0.3846843,0.1515308,0.5188552,0.2304065,1.127552,-11.55945,0,0,45.6024,1,1,755,999
9119,15267316,1,-0.3793911,0.1539955,0.5400052,0.2367639,1.205901,-11.50836,0,0,45.6024,1,1,755,999
9152,15270215,1,-0.3722893,0.166718,0.5581194,0.2404055,1.246864,-11.4979,0,0,45.6024,1,1,755,999
9156,15272503,1,-0.3614515,0.1823741,0.571701,0.2660753,1.277077,-11.54339,0,0,45.6024,1,1,755,999
9159,15275292,1,-0.3575812,0.1878791,0.5784119,0.3062582,1.27664,-11.61189,0,0,45.60281,1,1,755,999
9162,15277872,1,-0.3635499,0.1888299,0.5979386,0.3864919,1.24043,-11.72249,0,0,45.60281,1,1,755,999
9193,15280351,1,-0.374258,0.1802053,0.6131386,0.4909589,1.212473,-11.82108,0,0,45.60281,1,1,755,999
9196,15282574,1,-0.3779081,0.1780196,0.6219953,0.5730746,1.177239,-11.86322,0,0,45.60281,1,1,755,999
9199,15285325,1,-0.3813319,0.1901303,0.6515169,0.6864943999999999,1.110615,-11.91839,0,0,45.60321,1,1,755,999
9202,15288226,1,-0.3865957,0.1990698,0.6605259999999999,0.7486561,1.088163,-11.96952,0,0,45.60321,1,1,755,999
9233,15291054,1,-0.4063159,0.2198911,0.6790789,0.8375599,1.136964,-12.0915,0,0,45.60321,1,1,755,999
9237,15293251,1,-0.406758,0.2198728,0.6910166,0.8842133,1.240015,-12.24469,0,0,45.60321,1,1,755,999
9240,15295863,1,-0.4042779,0.2188793,0.6988209,0.8853599,1.327564,-12.3292,0,0,45.60358,1,1,755,999
9243,15298265,1,-0.4000635,0.2254221,0.7258223,0.8701289,1.484177,-12.39316,0,0,45.60358,1,1,755,999
9274,15306851,1,-0.3991169,0.2715316,0.7848724,0.8454846,1.869242,-12.40863,0,0,45.60395,1,1,755,999
9278,15309088,1,-0.3854679,0.2914822,0.8047619,0.8385556,1.957628,-12.44535,0,0,45.60395,1,1,755,999
9311,15311880,1,-0.3793781,0.301376,0.8152754,0.8374198,1.986515,-12.47685,0,0,45.60395,1,1,755,999
9314,15314742,1,-0.3832633,0.3205485,0.8481075,0.8401552,1.980256,-12.52516,0,0,45.60395,1,1,755,999
9317,15317445,1,-0.3878298,0.325524,0.8585313999999999,0.8538751999999999,1.965323,-12.55764,0,0,45.60395,1,1,755,999
9320,15319067,1,-0.3882747,0.3369229,0.8785717,0.9230124,1.957352,-12.61511,0,0,45.60432,1,1,755,999
9351,15321440,1,-0.3756505,0.3551905,0.8991556000000001,0.9984931,1.952965,-12.66055,0,0,45.60432,1,1,755,999
9354,15324246,1,-0.3637181,0.3799456,0.9202074,1.124128,1.945595,-12.71539,0,0,45.60432,1,1,755,999
9357,15327140,1,-0.3668677,0.4017846,0.9384676,1.217989,1.968181,-12.74453,0,0,45.60432,1,1,755,999
9361,15329686,1,-0.3722497,0.4146421,0.9498571,1.360354,2.036121,-12.79666,0,0,45.60467,1,1,755,999
9392,15331878,1,-0.3642587,0.4216796,0.9586512,1.494086,2.082742,-12.87535,0,0,45.60467,1,1,755,999
9395,15334429,1,-0.3468572,0.4328662,0.9704543,1.568006,2.107329,-12.94217,0,0,45.60467,1,1,755,999
9399,15337881,1,-0.331473,0.4483312,0.9857526,1.668513,2.141746,-13.01111,0,0,45.60467,1,1,755,999
9403,15339885,1,-0.3197098,0.4606565,1.00012,1.718193,2.165233,-13.04657,0,0,45.60503,1,1,755,999
9434,15342545,1,-0.3085831,0.4736331,1.013279,1.741324,2.19875,-13.12093,0,0,45.60503,1,1,755,999
9437,15344431,1,-0.3021524,0.4826674,1.01982,1.73429,2.222792,-13.19973,0,0,45.60503,1,1,755,999
9440,15347254,1,-0.2877893,0.5047252,1.031836,1.71242,2.244988,-13.28919,0,0,45.60503,1,1,755,999
9443,15350135,1,-0.2726768,0.5261709,1.040603,1.674965,2.282017,-13.40865,0,0,45.60503,1,1,755,999
9474,15352332,1,-0.2590727,0.5403521999999999,1.04701,1.635446,2.331783,-13.48149,0,0,45.60538,1,1,755,999
9477,15355445,1,-0.2418023,0.5555453,1.065507,1.596246,2.381866,-13.51935,0,0,45.60538,1,1,755,999
9480,15357931,1,-0.2345584,0.5626925,1.072589,1.594003,2.416704,-13.53146,0,0,45.60538,1,1,755,999
9484,15360721,1,-0.2112705,0.577071,1.085366,1.646096,2.441349,-13.53451,0,0,45.60538,1,1,755,999
9519,15363340,1,-0.1710261,0.5838599,1.101084,1.713261,2.424589,-13.54528,0,0,45.60572,1,1,755,999
9522,15365903,1,-0.1608364,0.5843911000000001,1.106498,1.745597,2.419037,-13.57944,0,0,45.60572,1,1,755,999
9525,15368715,1,-0.1415291,0.5915579,1.118747,1.812499,2.426818,-13.65979,0,0,45.60572,1,1,755,999
9528,15370880,1,-0.11742,0.6092706,1.131956,1.882742,2.425833,-13.72409,0,0,45.60572,1,1,755,999
9559,15373552,1,-0.08884942,0.6271631,1.146826,1.964241,2.39856,-13.7916,0,0,45.60608,1,1,755,999
9562,15375763,1,-0.06100405,0.6391678,1.162951,1.995251,2.364465,-13.80411,0,0,45.60608,1,1,755,999
9565,15378472,1,-0.0366365,0.6472381,1.177876,2.017755,2.281527,-13.78578,0,0,45.60608,1,1,755,999
9569,15380547,1,-0.01512404,0.6566130999999999,1.193799,2.01523,2.222421,-13.76924,0,0,45.60608,1,1,755,999
9600,15383290,1,0.008057741,0.6675565,1.211589,1.972764,2.131476,-13.76932,0,0,45.60643,1,1,755,999
9603,15386219,1,0.02185379,0.6715024000000001,1.221368,1.919835,2.065769,-13.78747,0,0,45.60643,1,1,755,999
9606,15387970,1,0.05754353,0.6816946,1.25125,1.840999,1.968448,-13.83816,0,0,45.60643,1,1,755,999
9609,15391027,1,0.06457921,0.6855478,1.26051,1.811349,1.924412,-13.85963,0,0,45.60643,1,1,755,999
9640,15393733,1,0.07704009000000001,0.693952,1.276711,1.791424,1.915883,-13.86438,0,0,45.60643,1,1,755,999
9643,15395775,1,0.1006373,0.7066858,1.288754,1.786498,1.928774,-13.84813,0,0,45.60677,1,1,755,999
9646,15399304,1,0.1378203,0.724679,1.297137,1.80385,1.946629,-13.82912,0,0,45.60677,1,1,755,999
9650,15400673,1,0.1736946,0.7405822,1.305973,1.837816,1.947374,-13.83399,0,0,45.60677,1,1,755,999
9681,15406437,1,0.2293178,0.7628184,1.336252,1.938501,1.977265,-13.91004,0,0,45.60707,1,1,755,999
9684,15409971,1,0.2627701,0.771347,1.35186,1.98239,1.984381,-13.9351,0,0,45.60707,1,1,755,999
9687,15411261,1,0.2964776,0.7812419,1.365935,2.043033,1.958222,-13.96075,0,0,45.60707,1,1,755,999
9718,15413854,1,0.3188627,0.7912841,1.381105,2.083912,1.894424,-13.97704,0,0,45.60707,1,1,755,999
9721,15416320,1,0.3341013,0.8003377,1.397406,2.115554,1.861882,-13.97955,0,0,45.60737,1,1,755,999
9724,15419085,1,0.3439581,0.8038183,1.406342,2.14434,1.835957,-13.98074,0,0,45.60737,1,1,755,999
9727,15421717,1,0.3879353,0.8097383,1.437041,2.185838,1.799884,-13.9919,0,0,45.60737,1,1,755,999
9758,15424492,1,0.4175894,0.8149307,1.458617,2.235739,1.75569,-14.02002,0,0,45.60737,1,1,755,999
9761,15426284,1,0.4295007,0.8179421,1.469141,2.27817,1.72507,-14.05415,0,0,45.60737,1,1,755,999
9765,15428921,1,0.4482895,0.8252209,1.487491,2.326225,1.706631,-14.0973,0,0,45.60766,1,1,755,999
9768,15431419,1,0.4687533,0.8324019,1.502633,2.397682,1.713895,-14.12938,0,0,45.60766,1,1,755,999
9799,15434119,1,0.5006640999999999,0.8365172,1.513882,2.444007,1.736081,-14.11853,0,0,45.60766,1,1,755,999
9803,15436886,1,0.5377355,0.8396263,1.52394,2.512903,1.790134,-14.0648,0,0,45.60766,1,1,755,999
9806,15438866,1,0.5547782,0.8407899,1.529462,2.547149,1.842135,-14.02357,0,0,45.60792,1,1,755,999
9809,15441310,1,0.6013423,0.8401612000000001,1.550798,2.588417,1.947085,-13.9846,0,0,45.60792,1,1,755,999
9840,15443553,1,0.6199147,0.8404069,1.559223,2.611895,2.020369,-13.95925,0,0,45.60792,1,1,755,999
9843,15446867,1,0.6896004999999999,0.8430259,1.580408,2.628522,2.104366,-13.91376,0,0,45.60792,1,1,755,999
9846,15448917,1,0.7141116,0.8433096,1.586103,2.638819,2.136353,-13.87887,0,0,45.60792,1,1,755,999
9850,15451348,1,0.7581668,0.8415757,1.596751,2.667691,2.138052,-13.77578,0,0,45.60815,1,1,755,999
9883,15454434,1,0.7942659,0.8435909,1.604484,2.703083,2.095025,-13.69026,0,0,45.60815,1,1,755,999
9886,15456440,1,0.8282466000000001,0.8518543,1.613148,2.790966,2.001226,-13.55423,0,0,45.60815,1,1,755,999
9889,15459263,1,0.8635613,0.8562164,1.625511,2.865164,1.932267,-13.46444,0,0,45.60815,1,1,755,999
9893,15461442,1,0.8963517,0.8546715,1.641826,2.990742,1.812023,-13.35102,0,0,45.60835,1,1,755,999
9928,15464141,1,0.9098271,0.8529293999999999,1.651046,3.073977,1.716807,-13.29583,0,0,45.60835,1,1,755,999
9931,15466658,1,0.9317888,0.8466208,1.679715,3.206367,1.564094,-13.22257,0,0,45.60835,1,1,755,999
9934,15468774,1,0.9354892,0.8451777,1.68776,3.298327,1.456852,-13.18352,0,0,45.60835,1,1,755,999
9938,15471877,1,0.9422213,0.8432588,1.701008,3.429189,1.300885,-13.12097,0,0,45.60851,1,1,755,999
9969,15474267,1,0.9588506,0.8320792,1.717046,3.549639,1.156541,-13.0646,0,0,45.60851,1,1,755,999
9973,15477128,1,0.9638799,0.8266941,1.722701,3.632441,1.049441,-13.01229,0,0,45.60851,1,1,755,999
9976,15479266,1,0.9666965,0.8149334,1.734402,3.735046,0.8684202,-12.94281,0,0,45.60851,1,1,755,999
9980,15482121,1,0.9618587,0.8046764,1.745567,3.79335,0.7505805,-12.90273,0,0,45.60851,1,1,755,999
10011,15484937,1,0.956236,0.7971836,1.756608,3.874223,0.6129821,-12.85127,0,0,45.60866,1,1,755,999
10014,15487126,1,0.9574932,0.7884712,1.76571,3.93414,0.4796553,-12.8078,0,0,45.60866,1,1,755,999
10017,15489764,1,0.9597006,0.7783471,1.772395,3.957774,0.3732416,-12.77955,0,0,45.60866,1,1,755,999
10020,15491942,1,0.9517496,0.7721065,1.777887,3.971859,0.1894062,-12.73064,0,0,45.60866,1,1,755,999
10051,15495762,1,0.9369747,0.7672233000000001,1.784673,3.979916,0.08691188,-12.6892,0,0,45.60881,1,1,755,999
10054,15497710,1,0.9263339,0.7535903,1.794347,3.969039,-0.05521809,-12.61545,0,0,45.60881,1,1,755,999
10057,15499928,1,0.9231543,0.7422014,1.799869,3.940286,-0.1399645,-12.5625,0,0,45.60881,1,1,755,999
10061,15502079,1,0.9117038,0.7113037,1.820261,3.879793,-0.2186894,-12.4915,0,0,45.60881,1,1,755,999
10092,15504323,1,0.9076228,0.7070935,1.827734,3.841837,-0.2437815,-12.44439,0,0,45.60899,1,1,755,999
10095,15507866,1,0.9092966,0.7041011,1.850892,3.815569,-0.2991969,-12.36109,0,0,45.60899,1,1,755,999
10098,15509951,1,0.9127605,0.7033353,1.858105,3.815708,-0.34153,-12.31192,0,0,45.60899,1,1,755,999
10101,15512869,1,0.9150736,0.6986285,1.871337,3.821629,-0.3767522,-12.2662,0,0,45.60899,1,1,755,999
10132,15515207,1,0.9046178,0.6820631,1.888603,3.843256,-0.4375583,-12.15312,0,0,45.6092,1,1,755,999
10135,15518081,1,0.9029084000000001,0.6759855,1.894565,3.86137,-0.4804227,-12.10084,0,0,45.6092,1,1,755,999
10138,15520511,1,0.9033244,0.6644655,1.907458,3.89695,-0.5643245,-12.0229,0,0,45.6092,1,1,755,999
10142,15523247,1,0.8991805,0.6563968,1.923889,3.911983,-0.6333737,-11.96235,0,0,45.6092,1,1,755,999
10173,15525852,1,0.8872143,0.651896,1.944381,3.926906,-0.7202499999999999,-11.84573,0,0,45.6092,1,1,755,999
10176,15530864,1,0.8665959,0.6284262,1.98769,3.959913,-0.8224023,-11.5218,0,0,45.60942,1,1,755,999
10179,15533465,1,0.8632242,0.6238938000000001,1.995008,3.955673,-0.8391554,-11.39762,0,0,45.60942,1,1,755,999
10210,15536487,1,0.8514014,0.6195173,2.010363,3.937287,-0.8506241,-11.23133,0,0,45.60942,1,1,755,999
10213,15538918,1,0.8370789,0.6188127,2.023548,3.921084,-0.8509312999999999,-11.13125,0,0,45.60964,1,1,755,999
10216,15541249,1,0.8286122,0.6225306,2.034304,3.880298,-0.8451021,-10.99491,0,0,45.60964,1,1,755,999
10220,15543423,1,0.822076,0.6266863,2.047434,3.856677,-0.8542689999999999,-10.90818,0,0,45.60964,1,1,755,999
10251,15545958,1,0.8117856,0.6238615,2.065053,3.860239,-0.8926259,-10.76331,0,0,45.60964,1,1,755,999
10255,15548978,1,0.7956027,0.6143698,2.082849,3.887766,-0.9328828,-10.66081,0,0,45.60987,1,1,755,999
10258,15551492,1,0.777272,0.6041119,2.097568,3.917319,-0.9795553,-10.55251,0,0,45.60987,1,1,755,999
10262,15553344,1,0.7669855,0.6007646,2.104812,3.944096,-1.044692,-10.42218,0,0,45.60987,1,1,755,999
10293,15556140,1,0.7446952,0.5987422,2.121323,3.952321,-1.088803,-10.37296,0,0,45.60987,1,1,755,999
10296,15558369,1,0.7238064,0.5966849,2.13818,3.964839,-1.129111,-10.33401,0,0,45.60987,1,1,755,999
10299,15561459,1,0.7058604000000001,0.591005,2.151624,3.983237,-1.137182,-10.31908,0,0,45.61011,1,1,755,999
10302,15564125,1,0.6885194,0.5827508,2.163315,4.018791,-1.133595,-10.30124,0,0,45.61011,1,1,755,999
10337,15567063,1,0.6715254000000001,0.5726742,2.176233,4.023679,-1.097861,-10.30398,0,0,45.61011,1,1,755,999
10340,15569272,1,0.6574715,0.5655929,2.191721,4.002898,-1.051129,-10.30374,0,0,45.61011,1,1,755,999
10343,15571475,1,0.6481134,0.5569386,2.210629,3.973043,-1.014714,-10.29229,0,0,45.61034,1,1,755,999
10347,15574373,1,0.6441462999999999,0.5480269,2.231592,3.908211,-0.930779,-10.27328,0,0,45.61034,1,1,755,999
10378,15577511,1,0.6422395,0.5436486,2.253694,3.812314,-0.8060035,-10.26182,0,0,45.61034,1,1,755,999
10381,15579038,1,0.641191,0.5426189,2.275362,3.755442,-0.7165829,-10.24617,0,0,45.61034,1,1,755,999
10384,15581583,1,0.6417543999999999,0.5414241,2.285606,3.704567,-0.6238902,-10.2189,0,0,45.61053,1,1,755,999
10387,15584496,1,0.6450655,0.5336617,2.313046,3.627237,-0.4929514,-10.1764,0,0,45.61053,1,1,755,999
10418,15587457,1,0.6467741,0.5306445,2.33181,3.55452,-0.413506,-10.14759,0,0,45.61053,1,1,755,999
10421,15589746,1,0.6480533000000001,0.533544,2.353093,3.513368,-0.3856097,-10.13282,0,0,45.61053,1,1,755,999
10424,15591776,1,0.6504107,0.5387366,2.375497,3.479558,-0.3757392,-10.11354,0,0,45.61069,1,1,755,999
10428,15594348,1,0.651612,0.5401092,2.386719,3.472207,-0.3861192,-10.11938,0,0,45.61069,1,1,755,999
10459,15597356,1,0.6501382999999999,0.5395489,2.421905,3.478468,-0.419135,-10.17089,0,0,45.61069,1,1,755,999
10462,15600214,1,0.646967,0.5383488,2.43371,3.49363,-0.4444086,-10.20913,0,0,45.61069,1,1,755,999
10465,15602113,1,0.638869,0.5370916,2.455204,3.530338,-0.5047724,-10.24437,0,0,45.61069,1,1,755,999
10468,15604362,1,0.6307158,0.5357113,2.474659,3.548635,-0.5419442,-10.25122,0,0,45.61083,1,1,755,999
10499,15606875,1,0.6224081,0.5326368,2.490486,3.562331,-0.5868184,-10.24916,0,0,45.61083,1,1,755,999
10502,15615275,1,0.617926,0.5157555,2.543254,3.50962,-0.6392609,-10.18594,0,0,45.61095,1,1,755,999
10534,15617558,1,0.6207956,0.5154054,2.562197,3.494779,-0.6307374,-10.14895,0,0,45.61095,1,1,755,999
10537,15620497,1,0.6235682,0.5131499,2.580489,3.492175,-0.5869702999999999,-10.08761,0,0,45.61095,1,1,755,999
10540,15623502,1,0.6236313999999999,0.5110593,2.599983,3.497007,-0.5332727,-10.04404,0,0,45.61095,1,1,755,999
10543,15625849,1,0.6283317,0.5087205,2.61775,3.533523,-0.4334733,-9.989259000000001,0,0,45.61106,1,1,755,999
10574,15628044,1,0.6396665,0.5028483,2.630684,3.601774,-0.3448552,-9.95351,0,0,45.61106,1,1,755,999
10578,15630767,1,0.6454796,0.4980577,2.635723,3.652388,-0.3043141,-9.940799,0,0,45.61106,1,1,755,999
10581,15633254,1,0.6569186,0.4771186,2.65006,3.751518,-0.2475854,-9.92671,0,0,45.61106,1,1,755,999
10584,15636476,1,0.6595346,0.4707355,2.655202,3.828509,-0.2229299,-9.924047,0,0,45.61106,1,1,755,999
10615,15639307,1,0.672451,0.4579697,2.672639,3.98346,-0.1787048,-9.918899,0,0,45.61116,1,1,755,999
10618,15641497,1,0.6848383,0.4484386,2.682232,4.040672,-0.1439038,-9.920897999999999,0,0,45.61116,1,1,755,999
10621,15644051,1,0.6906976,0.4417084,2.685917,4.072846,-0.1042015,-9.927754999999999,0,0,45.61116,1,1,755,999
10624,15646891,1,0.7013465,0.4236892,2.691631,4.097088,-0.0243488,-9.942996000000001,0,0,45.61116,1,1,755,999
10655,15649725,1,0.7114083,0.4141592,2.695302,4.110412,0.06363072,-9.956707,0,0,45.61124,1,1,755,999
10659,15651558,1,0.7194437,0.409121,2.69795,4.111375,0.1113475,-9.957992000000001,0,0,45.61124,1,1,755,999
10662,15654473,1,0.7505418,0.398453,2.709269,4.098518,0.1621216,-9.954133000000001,0,0,45.61124,1,1,755,999
10665,15657275,1,0.7611476,0.3949499,2.713664,4.077076,0.1851575,-9.947462,0,0,45.61124,1,1,755,999
10698,15660323,1,0.7823998,0.3848297,2.721296,4.047529,0.1930421,-9.932346000000001,0,0,45.61132,1,1,755,999
10701,15662467,1,0.8135521,0.36685,2.729659,4.017843,0.1774619,-9.898592000000001,0,0,45.61132,1,1,755,999
10704,15664483,1,0.8240464,0.3592754,2.731643,3.997997,0.1640023,-9.873004999999999,0,0,45.61132,1,1,755,999
10707,15667202,1,0.8497837,0.3402841,2.735095,3.981719,0.1426624,-9.842974999999999,0,0,45.61132,1,1,755,999
10742,15670132,1,0.8577888,0.3372211,2.736373,3.950521,0.08178357,-9.794155999999999,0,0,45.6114,1,1,755,999
10746,15672467,1,0.8736946,0.3339,2.739884,3.906774,-0.01906346,-9.740859,0,0,45.6114,1,1,755,999
10749,15674998,1,0.8881273,0.3265078,2.743997,3.8673,-0.1015896,-9.722721999999999,0,0,45.6114,1,1,755,999
10752,15677550,1,0.8962453,0.3156309,2.747301,3.822947,-0.1893281,-9.710457,0,0,45.6114,1,1,755,999
10754,15718476,1,1.171374,0.2061064,2.678342,3.556306,-0.475362,-9.863394,0,0,45.61164,1,1,755,999
10785,15721265,1,1.191695,0.2066879,2.676003,3.51688,-0.5778022,-9.834619999999999,0,0,45.61164,1,1,755,999
10790,15724221,1,1.210172,0.204824,2.673594,3.479549,-0.6452596,-9.806239,0,0,45.61164,1,1,755,999
10793,15726735,1,1.223984,0.2017562,2.670333,3.411718,-0.7460251,-9.752912999999999,0,0,45.6117,1,1,755,999
10796,15728572,1,1.233313,0.1997224,2.665557,3.357786,-0.8156826,-9.712066999999999,0,0,45.6117,1,1,755,999
10827,15731455,1,1.24081,0.1987009,2.659384,3.27013,-0.9019399,-9.650072,0,0,45.6117,1,1,755,999
10830,15733542,1,1.244699,0.1987148,2.655918,3.214877,-0.9613414,-9.616554000000001,0,0,45.6117,1,1,755,999
10833,15736765,1,1.255323,0.1944721,2.644658,3.146529,-1.051205,-9.583482,0,0,45.61179,1,1,755,999
10836,15738924,1,1.257153,0.1924165,2.64046,3.113481,-1.118622,-9.573339000000001,0,0,45.61179,1,1,755,999
10867,15741727,1,1.259406,0.1899414,2.631456,3.077387,-1.226713,-9.556376,0,0,45.61179,1,1,755,999
10871,15743948,1,1.263117,0.186841,2.621858,3.063459,-1.284896,-9.559862000000001,0,0,45.61179,1,1,755,999
10874,15746309,1,1.265805,0.1832972,2.612767,3.066761,-1.382835,-9.593256999999999,0,0,45.61188,1,1,755,999
10877,15749232,1,1.266736,0.1818637,2.603866,3.074652,-1.453229,-9.617644,0,0,45.61188,1,1,755,999
10908,15752002,1,1.267151,0.1811604,2.595045,3.096689,-1.542619,-9.666542,0,0,45.61188,1,1,755,999
10912,15754331,1,1.268713,0.1799753,2.586639,3.114215,-1.614394,-9.713881000000001,0,0,45.61188,1,1,755,999
10915,15756971,1,1.271086,0.1767423,2.580572,3.115496,-1.659727,-9.750908000000001,0,0,45.61188,1,1,755,999
10918,15759907,1,1.273186,0.1741727,2.574305,3.096444,-1.722489,-9.820086,0,0,45.61197,1,1,755,999
10951,15762341,1,1.275553,0.1726369,2.566711,3.060212,-1.745103,-9.877443,0,0,45.61197,1,1,755,999
10954,15765449,1,1.278644,0.1713829,2.55924,3.022387,-1.744522,-9.902072,0,0,45.61197,1,1,755,999
10957,15767975,1,1.284075,0.1698506,2.550442,2.959307,-1.711893,-9.906541000000001,0,0,45.61197,1,1,755,999
10960,15770636,1,1.292684,0.1666906,2.540673,2.912189,-1.659753,-9.898783999999999,0,0,45.61206,1,1,755,999
10995,15773356,1,1.312145,0.1718634,2.529419,2.8136,-1.519125,-9.869145,0,0,45.61206,1,1,755,999
10999,15775895,1,1.320771,0.1750065,2.526519,2.770143,-1.422219,-9.848095000000001,0,0,45.61206,1,1,755,999
11002,15778120,1,1.342403,0.1782089,2.518308,2.720103,-1.248387,-9.811685000000001,0,0,45.61206,1,1,755,999
11005,15781074,1,1.367751,0.1844412,2.507807,2.684883,-1.128585,-9.788969,0,0,45.61216,1,1,755,999
11036,15783978,1,1.393793,0.1919986,2.498956,2.642912,-0.9732743,-9.768103,0,0,45.61216,1,1,755,999
11039,15786346,1,1.420798,0.2001851,2.489432,2.622537,-0.8655939,-9.772838999999999,0,0,45.61216,1,1,755,999
11042,15788564,1,1.446943,0.2064677,2.479746,2.612914,-0.8289076,-9.76404,0,0,45.61216,1,1,755,999
11045,15791459,1,1.470833,0.2087824,2.468441,2.608113,-0.8211662,-9.75432,0,0,45.61226,1,1,755,999
11076,15794281,1,1.495271,0.2108697,2.455301,2.601693,-0.9025351,-9.72115,0,0,45.61226,1,1,755,999
11080,15796510,1,1.516152,0.2142475,2.441954,2.595348,-0.9798988,-9.69796,0,0,45.61226,1,1,755,999
11083,15799045,1,1.523903,0.216161,2.435613,2.591639,-1.073238,-9.67197,0,0,45.61226,1,1,755,999
11086,15801535,1,1.538451,0.2246037,2.41529,2.592508,-1.256525,-9.623352000000001,0,0,45.61237,1,1,755,999
11117,15804297,1,1.538971,0.22813,2.407913,2.587287,-1.402658,-9.607908999999999,0,0,45.61237,1,1,755,999
11120,15807637,1,1.53323,0.2379577,2.3802,2.566967,-1.643914,-9.608537999999999,0,0,45.61237,1,1,755,999
11123,15809541,1,1.528465,0.2445969,2.359234,2.551334,-1.883327,-9.647068000000001,0,0,45.61237,1,1,755,999
11128,15811957,1,1.526827,0.2479295,2.349011,2.547826,-2.040707,-9.700177999999999,0,0,45.61237,1,1,755,999
11160,15815960,1,1.519514,0.2590277,2.316455,2.55313,-2.281602,-9.793265,0,0,45.6125,1,1,755,999
11164,15818124,1,1.507813,0.2648112,2.296131,2.563215,-2.491564,-9.845469,0,0,45.6125,1,1,755,999
11167,15820354,1,1.501125,0.2656573,2.286086,2.572492,-2.60251,-9.858886999999999,0,0,45.6125,1,1,755,999
11170,15822536,1,1.482004,0.2637231,2.256107,2.585456,-2.730277,-9.880300999999999,0,0,45.6125,1,1,755,999
11201,15825460,1,1.469694,0.2640037,2.235864,2.607912,-2.828033,-9.902749999999999,0,0,45.61266,1,1,755,999
11205,15827505,1,1.464723,0.2659453,2.225951,2.619033,-2.872462,-9.916842000000001,0,0,45.61266,1,1,755,999
11208,15830567,1,1.451396,0.2743471,2.196743,2.618789,-2.901741,-9.974365000000001,0,0,45.61266,1,1,755,999
11211,15832611,1,1.446316,0.2786718,2.187189,2.597766,-2.901678,-10.039,0,0,45.61266,1,1,755,999
11242,15835307,1,1.436698,0.2856261,2.166877,2.550868,-2.868932,-10.15916,0,0,45.61285,1,1,755,999
11245,15837749,1,1.43169,0.2889368,2.145675,2.510854,-2.825776,-10.2401,0,0,45.61285,1,1,755,999
11248,15840534,1,1.431906,0.2941217,2.124831,2.438504,-2.719743,-10.3215,0,0,45.61285,1,1,755,999
11251,15842959,1,1.433438,0.298989,2.105858,2.381624,-2.645658,-10.36235,0,0,45.61285,1,1,755,999
11282,15845551,1,1.436424,0.3046832,2.086522,2.299809,-2.533701,-10.38958,0,0,45.61307,1,1,755,999
11287,15847945,1,1.441774,0.3126167,2.070025,2.260454,-2.455386,-10.38936,0,0,45.61307,1,1,755,999
11290,15850756,1,1.450369,0.3193058,2.058466,2.225009,-2.34904,-10.37748,0,0,45.61307,1,1,755,999
11293,15853532,1,1.455921,0.3216312,2.052745,2.208305,-2.279132,-10.35916,0,0,45.61307,1,1,755,999
11324,15856589,1,1.473523,0.330677,2.03177,2.182832,-2.121126,-10.29694,0,0,45.61332,1,1,755,999
11327,15858539,1,1.483727,0.3372988,2.014903,2.193076,-2.046064,-10.28438,0,0,45.61332,1,1,755,999
11330,15860930,1,1.498484,0.3446839,1.997393,2.223587,-1.925811,-10.30665,0,0,45.61332,1,1,755,999
11333,15863420,1,1.516932,0.3538404,1.977646,2.24174,-1.845439,-10.33202,0,0,45.61332,1,1,755,999
11366,15866690,1,1.534247,0.3629958,1.9584,2.252934,-1.75654,-10.37839,0,0,45.61332,1,1,755,999
11370,15868950,1,1.542732,0.3673654,1.950733,2.253654,-1.71131,-10.39513,0,0,45.6136,1,1,755,999
11373,15870891,1,1.572989,0.3786716,1.928436,2.240376,-1.642803,-10.39373,0,0,45.6136,1,1,755,999
11376,15873359,1,1.584092,0.3828045,1.91874,2.225264,-1.603567,-10.37166,0,0,45.6136,1,1,755,999
11411,15876465,1,1.60582,0.3902472,1.899619,2.189695,-1.573179,-10.32956,0,0,45.6136,1,1,755,999
11415,15879084,1,1.623815,0.3956878,1.883026,2.146377,-1.575038,-10.30976,0,0,45.61388,1,1,755,999
11418,15881486,1,1.637974,0.4027789,1.868641,2.073664,-1.598813,-10.26225,0,0,45.61388,1,1,755,999
11421,15883326,1,1.65251,0.4113892,1.852486,2.029289,-1.634679,-10.20101,0,0,45.61388,1,1,755,999
11452,15886512,1,1.66097,0.4162186,1.84343,1.993826,-1.688628,-10.14039,0,0,45.61388,1,1,755,999
11456,15888354,1,1.67862,0.4274007,1.824449,1.948059,-1.799432,-10.06149,0,0,45.61388,1,1,755,999
11459,15891369,1,1.697708,0.4421334,1.795839,1.912358,-1.922819,-9.992126000000001,0,0,45.61415,1,1,755,999
11462,15893911,1,1.701689,0.4468227,1.786604,1.901755,-2.004365,-9.956742,0,0,45.61415,1,1,755,999
11493,15896241,1,1.710792,0.4593577,1.76072,1.911839,-2.128716,-9.931034,0,0,45.61415,1,1,755,999
11497,15899053,1,1.711672,0.4630599,1.752843,1.924895,-2.215655,-9.915634000000001,0,0,45.61415,1,1,755,999
11500,15901526,1,1.712564,0.4698149,1.738663,1.939228,-2.360893,-9.903385,0,0,45.61439,1,1,755,999
11503,15904431,1,1.712085,0.4754589,1.724114,1.949131,-2.460122,-9.904131,0,0,45.61439,1,1,755,999
11534,15907466,1,1.711513,0.4808438,1.708031,1.965678,-2.601624,-9.906154000000001,0,0,45.61439,1,1,755,999
11537,15909472,1,1.708749,0.4884228,1.692724,1.970409,-2.736109,-9.90386,0,0,45.61439,1,1,755,999
11541,15912040,1,1.702946,0.5002761,1.678182,1.958294,-2.801686,-9.896210999999999,0,0,45.6146,1,1,755,999
11544,15914481,1,1.696304,0.5149102,1.665167,1.941748,-2.837414,-9.892701000000001,0,0,45.6146,1,1,755,999
11575,15921209,1,1.696037,0.5422953,1.631693,1.882515,-2.743333,-9.884378999999999,0,0,45.6146,1,1,755,999
11579,15923025,1,1.699405,0.5475958,1.623206,1.872916,-2.686024,-9.868893,0,0,45.6148,1,1,755,999
11582,15925356,1,1.708565,0.5590851999999999,1.606657,1.86726,-2.578684,-9.863666,0,0,45.6148,1,1,755,999
11613,15928293,1,1.720527,0.5694537,1.593624,1.868941,-2.496777,-9.860446,0,0,45.6148,1,1,755,999
11616,15930297,1,1.732103,0.5779407,1.58196,1.876452,-2.392527,-9.846123,0,0,45.6148,1,1,755,999
11619,15933140,1,1.742598,0.5854393,1.573268,1.875939,-2.336981,-9.849181,0,0,45.6148,1,1,755,999
11622,15935229,1,1.753333,0.5916377,1.564268,1.876621,-2.287185,-9.864537,0,0,45.61499,1,1,755,999
11653,15937772,1,1.766556,0.5988822,1.551135,1.877921,-2.281626,-9.889486,0,0,45.61499,1,1,755,999
11656,15940728,1,1.778681,0.6082274,1.535285,1.884724,-2.302459,-9.944564,0,0,45.61499,1,1,755,999
11660,15942497,1,1.783736,0.6134893,1.527726,1.886339,-2.317891,-9.977396000000001,0,0,45.61499,1,1,755,999
11663,15945773,1,1.799751,0.6307549,1.508539,1.881681,-2.327004,-9.993714000000001,0,0,45.61519,1,1,755,999
11694,15948098,1,1.809408,0.6409132,1.49651,1.874402,-2.335299,-9.969860000000001,0,0,45.61519,1,1,755,999
11698,15951113,1,1.814288,0.643923,1.49001,1.884591,-2.327711,-9.932993,0,0,45.61519,1,1,755,999
11702,15953503,1,1.828589,0.6502134000000001,1.465656,1.878737,-2.307643,-9.851303,0,0,45.61519,1,1,755,999
11705,15955946,1,1.833518,0.6523064,1.458055,1.855691,-2.299229,-9.792322,0,0,45.61539,1,1,755,999
11736,15958722,1,1.845334,0.658204,1.446524,1.813536,-2.267353,-9.716324999999999,0,0,45.61539,1,1,755,999
11739,15960890,1,1.860441,0.6680774,1.435101,1.793686,-2.249029,-9.670916999999999,0,0,45.61539,1,1,755,999
11742,15963274,1,1.87534,0.6819566,1.419628,1.782477,-2.233517,-9.591329999999999,0,0,45.61539,1,1,755,999
11745,15966266,1,1.889309,0.694653,1.400766,1.772749,-2.25131,-9.536974000000001,0,0,45.61539,1,1,755,999
11776,15969275,1,1.900445,0.7068145,1.382311,1.75271,-2.340631,-9.449197,0,0,45.61558,1,1,755,999
11779,15971319,1,1.907947,0.7226195,1.365637,1.739543,-2.477658,-9.358295,0,0,45.61558,1,1,755,999
11783,15973543,1,1.913284,0.7392636,1.349387,1.731233,-2.593777,-9.32138,0,0,45.61558,1,1,755,999
11786,15976267,1,1.915578,0.7495566,1.330566,1.720582,-2.803878,-9.246677999999999,0,0,45.61558,1,1,755,999
11821,15979766,1,1.909814,0.7556432,1.310656,1.731667,-2.957029,-9.171498,0,0,45.61577,1,1,755,999
11824,15981858,1,1.898221,0.7631898,1.291464,1.773522,-3.184366,-9.045653,0,0,45.61577,1,1,755,999
11827,15983634,1,1.891225,0.7684166,1.281863,1.806439,-3.326228,-8.958195999999999,0,0,45.61577,1,1,755,999
11830,15986227,1,1.864202,0.7857563,1.251584,1.850252,-3.530934,-8.852278999999999,0,0,45.61577,1,1,755,999
11861,15988575,1,1.853694,0.7917074,1.239582,1.872035,-3.661837,-8.794689,0,0,45.61596,1,1,755,999
11864,15991902,1,1.831458,0.8031815,1.217043,1.903584,-3.834247,-8.744873,0,0,45.61596,1,1,755,999
11868,15994073,1,1.808554,0.8146638,1.198449,1.924763,-3.941438,-8.732314000000001,0,0,45.61596,1,1,755,999
11871,15996375,1,1.785216,0.827003,1.181049,1.93913,-4.053207,-8.730774,0,0,45.61596,1,1,755,999
11902,15998874,1,1.762292,0.8370098,1.161565,1.9285,-4.243884,-8.718273,0,0,45.61614,1,1,755,999
11906,16001330,1,1.739623,0.8421969,1.143511,1.902176,-4.30504,-8.7105,0,0,45.61614,1,1,755,999
11910,16004333,1,1.715718,0.8471184,1.127188,1.87591,-4.348304,-8.694898,0,0,45.61614,1,1,755,999
11913,16006649,1,1.694333,0.8536487,1.1115,1.850441,-4.376787,-8.650568,0,0,45.61614,1,1,755,999
11944,16009703,1,1.678961,0.8620376,1.095965,1.817508,-4.33917,-8.614084,0,0,45.61614,1,1,755,999
11947,16011519,1,1.673148,0.8661311,1.088669,1.797274,-4.282461,-8.592689999999999,0,0,45.6163,1,1,755,999
11950,16014263,1,1.663891,0.8745667,1.07538,1.775108,-4.212037,-8.567449999999999,0,0,45.6163,1,1,755,999
11953,16018007,1,1.655513,0.8846217,1.062825,1.72793,-4.087119,-8.547127,0,0,45.6163,1,1,755,999
11956,16019281,1,1.641869,0.8994075,1.041352,1.668592,-3.964,-8.550345999999999,0,0,45.6163,1,1,755,999
11987,16023336,1,1.637874,0.9085431,1.025698,1.596786,-3.853364,-8.541914,0,0,45.61643,1,1,755,999
11990,16024989,1,1.637915,0.9135367,1.018204,1.548591,-3.79435,-8.525361999999999,0,0,45.61643,1,1,755,999
11994,16028248,1,1.641271,0.9291853,1.000511,1.48101,-3.704917,-8.466331,0,0,45.61643,1,1,755,999
11997,16030211,1,1.641934,0.9334538999999999,0.9953894,1.441278,-3.641433,-8.409685,0,0,45.61643,1,1,755,999
12028,16032885,1,1.643362,0.940478,0.9874105,1.387513,-3.539488,-8.28762,0,0,45.61655,1,1,755,999
12032,16035306,1,1.648503,0.9484398000000001,0.9805579,1.35577,-3.461038,-8.182256000000001,0,0,45.61655,1,1,755,999
12035,16038111,1,1.659801,0.9606177,0.9719096,1.301319,-3.331095,-8.001486,0,0,45.61655,1,1,755,999
12038,16040364,1,1.672535,0.9760756,0.9639617,1.257368,-3.242714,-7.87519,0,0,45.61655,1,1,755,999
12069,16042982,1,1.68254,0.991661,0.9560387,1.188965,-3.115774,-7.692141,0,0,45.61655,1,1,755,999
12073,16045300,1,1.69165,1.007217,0.9470201,1.137233,-2.990348,-7.54933,0,0,45.61667,1,1,755,999
12076,16047885,1,1.70523,1.019033,0.9373709,1.094555,-2.919214,-7.46165,0,0,45.61667,1,1,755,999
12081,16051052,1,1.718773,1.033197,0.9290533,1.026379,-2.863357,-7.336763,0,0,45.61667,1,1,755,999
12112,16053900,1,1.722872,1.052135,0.92291,0.9647002,-2.879476,-7.261332,0,0,45.61667,1,1,755,999
12116,16056276,1,1.717077,1.072224,0.9164772,0.9165583,-2.929458,-7.228313,0,0,45.61678,1,1,755,999
12119,16058937,1,1.715935,1.0889,0.9096485,0.8494526999999999,-3.035297,-7.149714,0,0,45.61678,1,1,755,999
12122,16061066,1,1.720407,1.096155,0.9065813,0.8297169,-3.147423,-7.057133,0,0,45.61678,1,1,755,999
12153,16063358,1,1.729222,1.114107,0.8985707000000001,0.8165866000000001,-3.380972,-6.877814,0,0,45.61678,1,1,755,999
12157,16066534,1,1.720586,1.119162,0.8966762,0.7966493,-3.550066,-6.770165,0,0,45.61687,1,1,755,999
12160,16068288,1,1.66633,1.137779,0.8919538,0.7488264,-3.742246,-6.663557,0,0,45.61687,1,1,755,999
12163,16071098,1,1.651677,1.146822,0.8898547,0.7185839000000001,-3.832134,-6.636099,0,0,45.61687,1,1,755,999
12194,16073933,1,1.639702,1.166327,0.8862562,0.6852652,-3.938547,-6.601654,0,0,45.61687,1,1,755,999
12197,16076136,1,1.633785,1.184287,0.8848509,0.659074,-3.97529,-6.558082,0,0,45.61687,1,1,755,999
12200,16079073,1,1.615823,1.200117,0.8831061,0.6328631,-3.928204,-6.464769,0,0,45.61694,1,1,755,999
12207,16081256,1,1.596259,1.212407,0.8810102,0.6449368,-3.828546,-6.382431,0,0,45.61694,1,1,755,999
12240,16084071,1,1.596037,1.222266,0.8768787,0.6810851,-3.617655,-6.260792,0,0,45.61694,1,1,755,999
12245,16086972,1,1.613874,1.232008,0.8748374,0.6798381999999999,-3.369259,-6.159126,0,0,45.61694,1,1,755,999
12248,16089321,1,1.636209,1.246615,0.8765208,0.6871923,-3.181158,-6.088319,0,0,45.617,1,1,755,999
12251,16091425,1,1.658858,1.261803,0.8797624000000001,0.7422584,-2.905371,-5.983255,0,0,45.617,1,1,755,999
12282,16093702,1,1.671008,1.266309,0.8813144000000001,0.772799,-2.761579,-5.912203,0,0,45.617,1,1,755,999
12286,16096487,1,1.704346,1.275439,0.88075,0.7816582,-2.642319,-5.807111,0,0,45.617,1,1,755,999
12289,16098977,1,1.712712,1.28287,0.8788029000000001,0.7794915,-2.656291,-5.738229,0,0,45.61705,1,1,755,999
12292,16101938,1,1.726231,1.301188,0.8754625,0.8103331,-2.820302,-5.63582,0,0,45.61705,1,1,755,999
12323,16104670,1,1.735943,1.317142,0.8694126,0.8235074999999999,-3.102011,-5.550218,0,0,45.61705,1,1,755,999
12326,16107002,1,1.735358,1.320521,0.8674494,0.8039941,-3.316859,-5.504035,0,0,45.61705,1,1,755,999
12329,16109235,1,1.724284,1.334042,0.8640974,0.7563468,-3.660265,-5.455021,0,0,45.61711,1,1,755,999
12333,16113010,1,1.718257,1.341108,0.8627449,0.7266275,-3.88937,-5.415226,0,0,45.61711,1,1,755,999
12336,16114350,1,1.704934,1.356201,0.8584232000000001,0.6974054,-4.182265,-5.314744,0,0,45.61711,1,1,755,999
12368,16117540,1,1.6843,1.371957,0.847233,0.6767575,-4.396731,-5.154871,0,0,45.61711,1,1,755,999
12371,16120005,1,1.677338,1.376523,0.8438115,0.6691272,-4.491532,-5.023265,0,0,45.61711,1,1,755,999
12374,16122377,1,1.666426,1.388464,0.8399361,0.666454,-4.568118,-4.849536,0,0,45.61717,1,1,755,999
12377,16125530,1,1.663819,1.403148,0.8405538,0.6698238,-4.581718,-4.76564,0,0,45.61717,1,1,755,999
12408,16128120,1,1.669262,1.417029,0.8442311,0.6772861999999999,-4.547241,-4.682913,0,0,45.61717,1,1,755,999
12412,16130616,1,1.675505,1.426719,0.8442937,0.6679134,-4.47006,-4.630175,0,0,45.61717,1,1,755,999
12415,16132928,1,1.678271,1.433988,0.8393744,0.6532945999999999,-4.412091,-4.587759,0,0,45.61723,1,1,755,999
12418,16136088,1,1.680254,1.444578,0.8316373,0.6302179999999999,-4.353292,-4.517433,0,0,45.61723,1,1,755,999
12449,16138951,1,1.684588,1.45941,0.8252381,0.6134304,-4.370239,-4.430398,0,0,45.61723,1,1,755,999
12453,16140912,1,1.68213,1.480952,0.8227985,0.5837169,-4.465101,-4.357477,0,0,45.61723,1,1,755,999
12457,16143850,1,1.677329,1.487573,0.8231933,0.5635538,-4.552206,-4.312286,0,0,45.61729,1,1,755,999
12460,16146321,1,1.661404,1.501998,0.8270543,0.5237228,-4.696504,-4.250697,0,0,45.61729,1,1,755,999
12491,16149344,1,1.641499,1.518171,0.8307299,0.4906611,-4.790923,-4.220705,0,0,45.61729,1,1,755,999
12495,16152509,1,1.625065,1.530146,0.8312727,0.430618,-4.921335,-4.195084,0,0,45.61729,1,1,755,999
12498,16154010,1,1.604306,1.54525,0.8301494,0.3806822,-5.023284,-4.163559,0,0,45.61736,1,1,755,999
12501,16156544,1,1.594268,1.552029,0.8303357,0.3595715,-5.060888,-4.129993,0,0,45.61736,1,1,755,999
12532,16159000,1,1.569749,1.565227,0.8321432,0.3408078,-5.055899,-4.0459,0,0,45.61736,1,1,755,999
12535,16161954,1,1.549818,1.576461,0.83488,0.3430539,-5.024477,-3.976481,0,0,45.61736,1,1,755,999
12538,16164485,1,1.540539,1.590857,0.8368787,0.3542647,-4.961154,-3.875866,0,0,45.61742,1,1,755,999
12541,16166623,1,1.535537,1.609574,0.8391637,0.3710548,-4.917684,-3.828993,0,0,45.61742,1,1,755,999
12572,16168963,1,1.532287,1.626056,0.8424324,0.4012807,-4.851545,-3.760859,0,0,45.61742,1,1,755,999
12576,16171771,1,1.531719,1.632961,0.8438755999999999,0.419045,-4.809469,-3.709075,0,0,45.61742,1,1,755,999
12579,16174451,1,1.534295,1.648027,0.8462151,0.4251961,-4.744489,-3.626725,0,0,45.61742,1,1,755,999
12582,16177116,1,1.534911,1.652306,0.8467007,0.4095385,-4.723881,-3.571439,0,0,45.61747,1,1,755,999
12613,16179729,1,1.534302,1.663576,0.8464648,0.3667071,-4.721296,-3.504526,0,0,45.61747,1,1,755,999
12616,16182234,1,1.526867,1.688575,0.846869,0.3097659,-4.726347,-3.470499,0,0,45.61747,1,1,755,999
12623,16184966,1,1.522123,1.696771,0.8487419,0.2686571,-4.741574,-3.46514,0,0,45.61747,1,1,755,999
12626,16187892,1,1.509868,1.710127,0.8529078,0.2143367,-4.79425,-3.456609,0,0,45.61751,1,1,755,999
12657,16190396,1,1.490287,1.73025,0.8567241,0.1682869,-4.835168,-3.449953,0,0,45.61751,1,1,755,999
12662,16193349,1,1.483151,1.73831,0.8577555,0.1508371,-4.855535,-3.442639,0,0,45.61751,1,1,755,999
12665,16195326,1,1.463876,1.760301,0.8595285,0.1477202,-4.872278,-3.435594,0,0,45.61751,1,1,755,999
12668,16198075,1,1.458986,1.7658,0.8602522,0.1660373,-4.869473,-3.420992,0,0,45.61754,1,1,755,999
12699,16201049,1,1.449842,1.77331,0.8593035999999999,0.2182982,-4.848466,-3.39075,0,0,45.61754,1,1,755,999
12702,16203335,1,1.439285,1.782868,0.8556944,0.2893358,-4.822277,-3.35302,0,0,45.61754,1,1,755,999
12705,16205482,1,1.437196,1.788078,0.8540866,0.3398519,-4.803054,-3.336843,0,0,45.61754,1,1,755,999
12708,16207742,1,1.43528,1.799961,0.849688,0.3832667,-4.799551,-3.327308,0,0,45.61754,1,1,755,999
12739,16210355,1,1.435375,1.814791,0.8470713,0.4332439,-4.825681,-3.310369,0,0,45.61757,1,1,755,999
12743,16213361,1,1.434568,1.821462,0.8469021,0.4674762,-4.861797,-3.29721,0,0,45.61757,1,1,755,999
12746,16215885,1,1.427113,1.836854,0.8458905,0.5030549,-4.933588,-3.260468,0,0,45.61757,1,1,755,999
