LineNo,TimeUS,I,GyrX,GyrY,GyrZ,AccX,AccY,AccZ,EG,EA,T,GH,AH,GHz,AHz
184,12924263,2,-0.0008739542,-0.005969445,-0.002393682,-0.2076738,-0.07860195,-9.878029,0,0,39.23975,1,1,7778,3889
215,12927131,2,-0.0006502771,-0.004901295,-0.002714293,-0.2129843,-0.08046556000000001,-9.882171,0,0,39.23971,1,1,7778,3889
291,12956538,2,0.0007739646,0.001045481,-0.001686267,-0.2231585,-0.06736412999999999,-9.866619999999999,0,0,39.23919,1,1,7772,3886
407,12985344,2,-0.0001346266,0.00185162,-0.0004560536,-0.207146,-0.07559299,-9.842344000000001,0,0,39.23945,1,1,7772,3886
522,13013946,2,-0.0003838282,-0.001344151,0.003886248,-0.2087666,-0.08324752000000001,-9.850241,0,0,39.24022,1,1,7772,3886
525,13015333,2,-0.0007628150999999999,-0.0008645589,0.00381813,-0.2075863,-0.08345105999999999,-9.848826000000001,0,0,39.24028,1,1,7772,3886
636,13035237,2,-0.002945349,-0.0007296698,0.0009450376,-0.1892363,-0.09864429,-9.849819999999999,0,0,39.24074,1,1,7772,3886
753,13057329,2,-0.001352304,-0.002478552,0.002150492,-0.1838254,-0.08816765,-9.856113000000001,0,0,39.24146,1,1,7772,3886
865,13089340,2,-0.002008012,0.0005559628,-0.001697895,-0.1876869,-0.07901762,-9.868848,0,0,39.24356,1,1,7772,3886
980,13119334,2,0.0009952318999999999,0.001128932,-0.002888751,-0.1738625,-0.07751259000000001,-9.847467999999999,0,0,39.24551,1,1,7772,3886
1011,13121997,2,0.002020267,-0.0002758725,-0.003404105,-0.1789118,-0.07756162,-9.845794,0,0,39.24579,1,1,7772,3886
1092,13167693,2,-0.001378092,-0.002965273,-0.0002333308,-0.1923491,-0.08713327999999999,-9.872790999999999,0,0,39.24876,1,1,7772,3886
1123,13170370,2,-0.0006258036,-0.002925705,-0.0006224029,-0.1964448,-0.08493319000000001,-9.87494,0,0,39.24904,1,1,7772,3886
1203,13249127,2,-0.0001014556,0.0004467437,-0.003025854,-0.21062,-0.08970676,-9.844378000000001,0,0,39.2546,1,1,7772,3886
1299,13304111,2,0.0009994466,-0.0004068472,5.827394e-05,-0.199698,-0.08663306,-9.856361,0,0,39.25876,1,1,7772,3886
1386,13318454,2,-0.0001857145,-0.000702851,0.001053678,-0.1921965,-0.09491765000000001,-9.840223999999999,0,0,39.25977,1,1,7772,3886
1478,13334425,2,-0.0001933375,0.0008374118,-0.0002767737,-0.1760843,-0.08091115,-9.849093999999999,0,0,39.26068,1,1,7772,3886
1509,13336947,2,-0.0007691811,0.0009285496,-0.0007755362,-0.1782268,-0.07544202,-9.854305999999999,0,0,39.26087,1,1,7772,3886
1548,13340446,2,0.0009808092000000001,0.001034147,-0.0007563625,-0.180872,-0.07609994,-9.859427,0,0,39.26103,1,1,7772,3886
1551,13342544,2,0.002116103,0.001068977,0.0009955342,-0.1847585,-0.08045061000000001,-9.862695,0,0,39.26115,1,1,7772,3886
1554,13345557,2,0.001581299,0.001040799,0.00153466,-0.187206,-0.08354184000000001,-9.861468,0,0,39.26122,1,1,7772,3886
1585,13347945,2,0.0004381404,0.00145496,0.001950629,-0.1907413,-0.08794122,-9.859560999999999,0,0,39.26138,1,1,7772,3886
1588,13350581,2,-0.0009810273000000001,0.0007169277,0.00161476,-0.1914906,-0.09071527,-9.858722999999999,0,0,39.26149,1,1,7772,3886
1592,13353455,2,-0.002264918,2.199878e-05,0.001344085,-0.1891399,-0.0918011,-9.859007,0,0,39.26156,1,1,7772,3886
1595,13355753,2,-0.002380417,-0.0001675581,0.0004433142,-0.1871885,-0.09226599000000001,-9.859128999999999,0,0,39.26171,1,1,7772,3886
1626,13358477,2,-0.001614353,0.000167452,2.476576e-06,-0.1860083,-0.09285177999999999,-9.859726999999999,0,0,39.26179,1,1,7772,3886
1629,13360750,2,-0.0007684585,0.001337976,-0.0003866253,-0.1844976,-0.09225806,-9.862276,0,0,39.2619,1,1,7772,3886
1632,13363124,2,-0.0004638232,0.001559853,0.0003565874,-0.1836336,-0.08996116,-9.863253,0,0,39.26201,1,1,7772,3886
1635,13366015,2,0.000527926,0.001357983,0.0004133679,-0.1826799,-0.08512575,-9.863181000000001,0,0,39.26215,1,1,7772,3886
1666,13368247,2,0.0002356839,0.0009022372,-0.0009294327,-0.1820017,-0.08176181,-9.858173000000001,0,0,39.26228,1,1,7772,3886
1669,13372298,2,-0.0003432367,0.0004088142,-0.001247029,-0.1828108,-0.08023225,-9.854350999999999,0,0,39.26237,1,1,7772,3886
1673,13373507,2,-0.0004961093,0.000181093,-0.00040889,-0.1851104,-0.08010231,-9.850821,0,0,39.26257,1,1,7772,3886
1679,13377053,2,-0.0005937,0.000204059,0.0004740747,-0.1852281,-0.08080672999999999,-9.850803000000001,0,0,39.26266,1,1,7772,3886
1710,13380716,2,-0.0007518331,4.596643e-05,0.001171104,-0.182428,-0.08052681,-9.850408,0,0,39.2629,1,1,7772,3886
1713,13382891,2,-0.0008771226999999999,-0.0003216503,0.001264487,-0.1804355,-0.08129329,-9.848591000000001,0,0,39.26297,1,1,7772,3886
1717,13384475,2,-0.0008271939,-0.0007389109,0.000473724,-0.1795062,-0.0828286,-9.849356999999999,0,0,39.26309,1,1,7772,3886
1720,13386987,2,-0.001332135,-0.001089298,-0.0001102737,-0.1800498,-0.08410958,-9.852485,0,0,39.26317,1,1,7772,3886
1751,13389488,2,-0.001283758,-0.001529752,0.0001699392,-0.1794495,-0.0853864,-9.853172000000001,0,0,39.26328,1,1,7772,3886
1754,13392250,2,-0.001365343,-0.00190896,3.951842e-05,-0.1783596,-0.08693165,-9.854372,0,0,39.26336,1,1,7772,3886
1757,13394982,2,-0.002671373,-0.002001798,-8.522795e-05,-0.1776968,-0.08828088000000001,-9.85877,0,0,39.26351,1,1,7772,3886
1760,13397892,2,-0.003151222,-0.001964525,0.0004835703,-0.1780819,-0.08780789,-9.860861,0,0,39.26358,1,1,7772,3886
1791,13400313,2,-0.002842773,-0.001985095,0.001211832,-0.1808082,-0.08651171000000001,-9.858971,0,0,39.26369,1,1,7772,3886
1794,13402568,2,-0.001751182,-0.002413727,0.0001249983,-0.1861062,-0.08396749000000001,-9.853745,0,0,39.26379,1,1,7772,3886
1800,13405774,2,-0.001079321,-0.002349732,-0.0009073012,-0.1896061,-0.08258827000000001,-9.847083,0,0,39.26385,1,1,7772,3886
1803,13407907,2,-0.0008798591,-0.002410873,-0.001211285,-0.1914244,-0.07984731,-9.837763000000001,0,0,39.26395,1,1,7772,3886
1834,13410366,2,-0.0004391328,-0.00190712,-0.001961709,-0.1899801,-0.07752331,-9.834028999999999,0,0,39.26402,1,1,7772,3886
1841,13413478,2,-0.0006140535,-0.001720326,-0.002336057,-0.1888455,-0.07590574999999999,-9.835516999999999,0,0,39.26406,1,1,7772,3886
1844,13415585,2,-0.0007417183,-0.002344906,-0.002719549,-0.1888449,-0.07571235,-9.840316,0,0,39.26411,1,1,7772,3886
1847,13418341,2,-0.0009525146,-0.003916421,-0.002763876,-0.1900232,-0.07694528,-9.846015,0,0,39.26415,1,1,7772,3886
1878,13420969,2,-0.001831905,-0.004066628,-0.002631214,-0.1919715,-0.07857849,-9.852009000000001,0,0,39.2642,1,1,7772,3886
1881,13423453,2,-0.00221134,-0.003019305,-0.002652637,-0.1927751,-0.08073749,-9.855691,0,0,39.26424,1,1,7772,3886
1885,13426090,2,-0.001715809,-0.002453355,-0.002721209,-0.1943565,-0.08237153,-9.856731999999999,0,0,39.26427,1,1,7772,3886
1888,13429079,2,-0.0005607,-0.001879604,-0.002216532,-0.1992113,-0.08447406,-9.85506,0,0,39.26435,1,1,7772,3886
1919,13432032,2,-0.000963822,-0.001895429,-0.000165406,-0.205309,-0.08555165000000001,-9.851718,0,0,39.26441,1,1,7772,3886
1922,13434103,2,-0.001204167,-0.002654782,0.0004347164,-0.2079548,-0.08516756,-9.850305000000001,0,0,39.26445,1,1,7772,3886
1925,13436974,2,-0.0005934793,-0.003351837,0.0007552428,-0.2107085,-0.08501744,-9.846994,0,0,39.26452,1,1,7772,3886
1928,13439626,2,-0.0001585044,-0.002927542,-0.0004883534,-0.2130864,-0.08573142,-9.846935,0,0,39.26458,1,1,7772,3886
1959,13442344,2,0.0001601416,-0.001425035,-0.001588253,-0.2162976,-0.08424832,-9.848385,0,0,39.26466,1,1,7772,3886
1962,13444376,2,0.002003982,-0.001601683,-0.002043817,-0.2183574,-0.08276208,-9.850163,0,0,39.26471,1,1,7772,3886
1966,13446955,2,0.002437288,-0.001978377,-0.001215201,-0.2194602,-0.08139732,-9.853265,0,0,39.26473,1,1,7772,3886
1969,13449564,2,0.001590148,-0.002798858,0.0006803859999999999,-0.2206246,-0.07966334999999999,-9.856605999999999,0,0,39.26477,1,1,7772,3886
2000,13452441,2,0.00132432,-0.003100711,0.001187542,-0.2213323,-0.07800896,-9.859579999999999,0,0,39.26478,1,1,7772,3886
2005,13457932,2,-0.0004609633,-0.001060369,1.028901e-05,-0.2195862,-0.07188578,-9.865320000000001,0,0,39.26483,1,1,7772,3886
2008,13460252,2,-0.001102566,0.0001463391,-0.0005494261,-0.2196515,-0.07138749,-9.865335,0,0,39.26485,1,1,7772,3886
2039,13463734,2,-0.0005710432,0.0007505824,-0.0009728948,-0.2214313,-0.07303920999999999,-9.867105,0,0,39.26491,1,1,7772,3886
2042,13465879,2,-0.0009049367,0.0006974925,-0.0006448721,-0.2209361,-0.07562861999999999,-9.869596,0,0,39.26495,1,1,7772,3886
2045,13467778,2,-0.0004162834,-0.0007022122,-0.001094432,-0.2180424,-0.07999717000000001,-9.872228,0,0,39.26501,1,1,7772,3886
2049,13470471,2,0.0005130667,-0.001269901,-0.001173542,-0.214922,-0.0811756,-9.873403,0,0,39.26505,1,1,7772,3886
2080,13472743,2,0.001512177,-0.0005849506,-0.000480267,-0.2101807,-0.08288392,-9.871311,0,0,39.2651,1,1,7772,3886
2083,13475428,2,0.001443729,-0.0003194285,0.0002339293,-0.2084402,-0.08487175,-9.867595,0,0,39.26515,1,1,7772,3886
2086,13478315,2,0.0006862464,0.0005050536,0.0009215131,-0.2059916,-0.0862409,-9.862492,0,0,39.26522,1,1,7772,3886
2090,13480874,2,2.007431e-05,0.0006805665,0.0008120528,-0.2050419,-0.08566472999999999,-9.860353,0,0,39.26529,1,1,7772,3886
2121,13483942,2,-0.0007264782,0.0005135753,0.001427916,-0.2024874,-0.08320571,-9.854336999999999,0,0,39.26535,1,1,7772,3886
2124,13486011,2,-0.0008383992,0.0008689566,0.002192511,-0.2003194,-0.0813503,-9.851044999999999,0,0,39.2654,1,1,7772,3886
2127,13488286,2,-0.000710121,0.000973929,0.002833257,-0.1994151,-0.0808441,-9.850552,0,0,39.26545,1,1,7772,3886
2130,13491315,2,-2.278952e-05,0.0004076808,0.002503692,-0.2004706,-0.08063011,-9.850844,0,0,39.26553,1,1,7772,3886
2161,13493462,2,0.0004494189,0.0004302797,-0.0004796851,-0.2006709,-0.08238405,-9.852667,0,0,39.26564,1,1,7772,3886
2164,13496734,2,0.001312666,0.0009496343,-0.001382009,-0.2005233,-0.08443723,-9.854946999999999,0,0,39.26568,1,1,7772,3886
2167,13498854,2,0.0006559117,0.001779652,-0.001605581,-0.1997813,-0.09013417999999999,-9.858342,0,0,39.26575,1,1,7772,3886
2172,13501551,2,-6.73027e-05,0.002566146,-0.0008692988,-0.1998605,-0.09439235,-9.858826000000001,0,0,39.2658,1,1,7772,3886
2203,13503973,2,-0.0005648315,0.002965561,2.932156e-05,-0.2020984,-0.1005266,-9.856204999999999,0,0,39.2659,1,1,7772,3886
2206,13506559,2,-0.001889104,0.001459182,8.055037000000001e-05,-0.205287,-0.1036309,-9.849678000000001,0,0,39.26598,1,1,7772,3886
2209,13509729,2,-0.002473293,0.001279736,0.0004945227,-0.2081889,-0.1021022,-9.847509000000001,0,0,39.26604,1,1,7772,3886
2213,13511331,2,-0.002314791,0.000930608,0.0007885862,-0.2101772,-0.09939890999999999,-9.847526999999999,0,0,39.26615,1,1,7772,3886
2244,13514350,2,-0.001694713,0.0002350398,0.001190436,-0.2108682,-0.09674616,-9.847348,0,0,39.2662,1,1,7772,3886
2252,13516923,2,-0.002027519,3.72133e-06,0.001726856,-0.2090987,-0.09327409,-9.849059,0,0,39.26632,1,1,7772,3886
2255,13519903,2,-0.002166781,-3.465393e-05,0.002020677,-0.2063462,-0.09144106,-9.85102,0,0,39.2664,1,1,7772,3886
2258,13521309,2,-0.001729975,-3.36236e-05,0.001729076,-0.2036024,-0.09007795,-9.857339,0,0,39.26651,1,1,7772,3886
2289,13524127,2,-0.001384078,0.0005383738,0.0007136061,-0.2024301,-0.09017915,-9.860443,0,0,39.26657,1,1,7772,3886
2292,13527202,2,-0.0007018793,0.001395806,-0.0004636433,-0.2007146,-0.08968555,-9.861687999999999,0,0,39.26662,1,1,7772,3886
2295,13529256,2,-0.0005102056,0.001156206,-0.0005823583,-0.1998662,-0.0892792,-9.861036,0,0,39.26664,1,1,7772,3886
2299,13532127,2,-0.0009829948999999999,0.0007132062,0.0004131184,-0.1974015,-0.08966300000000001,-9.86088,0,0,39.26672,1,1,7772,3886
2330,13534599,2,-0.001240908,0.0005969108,0.001875106,-0.1934012,-0.09163843000000001,-9.860628999999999,0,0,39.26678,1,1,7772,3886
2333,13537559,2,-0.001661849,0.0007317499000000001,0.002638143,-0.1903474,-0.09279801999999999,-9.860559,0,0,39.26682,1,1,7772,3886
2336,13539927,2,-0.001623757,0.0003401115,0.001887,-0.1870515,-0.09269913,-9.861632,0,0,39.2669,1,1,7772,3886
2339,13542224,2,-0.001844451,2.571116e-05,0.002000729,-0.1851346,-0.09099562,-9.865062999999999,0,0,39.26698,1,1,7772,3886
2370,13544996,2,-0.001797164,-0.0008107521,0.001441816,-0.1835187,-0.08611367,-9.868625,0,0,39.26705,1,1,7772,3886
2373,13547228,2,-0.002088287,-0.001601305,0.0008658557,-0.183712,-0.08303629999999999,-9.86839,0,0,39.26708,1,1,7772,3886
2376,13550951,2,-0.002416696,-0.002255901,-0.0001484714,-0.1842472,-0.07776441000000001,-9.868023000000001,0,0,39.26716,1,1,7772,3886
2379,13552163,2,-0.001381273,-0.00161267,-0.0002219961,-0.1860115,-0.07448558,-9.870157000000001,0,0,39.26721,1,1,7772,3886
2411,13555013,2,-0.0001195754,-0.001338058,0.0006187538,-0.1863337,-0.07250582,-9.871702000000001,0,0,39.26723,1,1,7772,3886
2414,13557455,2,0.0005744963,-0.0008501996,0.0003270195,-0.1858624,-0.07192469,-9.872615,0,0,39.26725,1,1,7772,3886
2417,13560934,2,-0.0001179094,-7.768735e-05,0.0004350598,-0.1859457,-0.07167649,-9.870182,0,0,39.26726,1,1,7772,3886
2420,13563603,2,-0.0007770496999999999,0.0006706298,0.0005139071,-0.1880866,-0.06846172,-9.865746,0,0,39.26725,1,1,7772,3886
2423,13565210,2,3.173108e-05,6.073717e-05,0.0005907539,-0.189631,-0.06695245,-9.865926999999999,0,0,39.26725,1,1,7772,3886
2454,13567506,2,5.507687e-05,-0.0004168797,5.747265e-05,-0.1906665,-0.06772918999999999,-9.86702,0,0,39.26723,1,1,7772,3886
2457,13570437,2,-8.033037e-05,-0.0003495936,-0.0003675761,-0.1905774,-0.06918524,-9.866574999999999,0,0,39.26722,1,1,7772,3886
2460,13573239,2,0.0008443097,-2.739949e-05,-0.001312817,-0.1909228,-0.0716383,-9.865543000000001,0,0,39.26719,1,1,7772,3886
2464,13576287,2,0.0009565562,-0.0007144673,-0.00134612,-0.1909338,-0.07492433,-9.863374,0,0,39.26718,1,1,7772,3886
2467,13577846,2,0.0009865430000000001,-0.001241894,-0.001354681,-0.1901825,-0.08040592000000001,-9.858809000000001,0,0,39.26716,1,1,7772,3886
2498,13580363,2,0.001216182,-0.0014624,-0.001801636,-0.1889259,-0.08255288,-9.854575000000001,0,0,39.26715,1,1,7772,3886
2501,13582727,2,0.0002226535,-0.001195144,-0.001597552,-0.1868832,-0.08399238000000001,-9.849254999999999,0,0,39.26714,1,1,7772,3886
2505,13585967,2,-0.00119203,-0.0006017956,-0.002073441,-0.1860913,-0.08463179,-9.847692,0,0,39.26713,1,1,7772,3886
2508,13588336,2,-0.0009596552,0.0001824821,-0.001751218,-0.1842579,-0.08453397999999999,-9.845345,0,0,39.26714,1,1,7772,3886
2539,13590860,2,-0.0004262854,0.0005397639000000001,-0.00181572,-0.1831135,-0.08395547,-9.844749999999999,0,0,39.26716,1,1,7772,3886
2542,13593312,2,0.0001337666,0.0006000009,-0.001083834,-0.1837436,-0.08198669,-9.842627999999999,0,0,39.26719,1,1,7772,3886
2545,13597008,2,0.0003537847,0.000956284,-0.001302184,-0.1832131,-0.08086421000000001,-9.842177,0,0,39.2672,1,1,7772,3886
2548,13598760,2,0.0009169983,0.001724042,-0.001403909,-0.1833391,-0.08151797,-9.844500999999999,0,0,39.26723,1,1,7772,3886
2579,13601340,2,0.0018045,0.00136488,-0.001230921,-0.1853598,-0.08203892,-9.847287,0,0,39.26722,1,1,7772,3886
2584,13603982,2,0.001698955,0.0007978346,-6.773836000000001e-05,-0.1860135,-0.08239172,-9.849325,0,0,39.26721,1,1,7772,3886
2588,13606328,2,0.001271975,0.0002903551,0.0003160404,-0.1879167,-0.08515352,-9.855613999999999,0,0,39.26718,1,1,7772,3886
2591,13609717,2,0.0003605886,-0.0002394065,-0.0004312636,-0.1878462,-0.08744173,-9.857545999999999,0,0,39.26714,1,1,7772,3886
2622,13612362,2,-0.0007468826,-0.0006789443,-0.0004131326,-0.1861277,-0.0904865,-9.860174000000001,0,0,39.26708,1,1,7772,3886
2625,13614444,2,-0.0001640048,-0.0004215936,0.0001147979,-0.1838579,-0.09198966,-9.863144,0,0,39.26704,1,1,7772,3886
2628,13617277,2,4.336471e-05,-0.0006120129,0.0007779414,-0.1826762,-0.09198903,-9.862750999999999,0,0,39.26702,1,1,7772,3886
2636,13620128,2,0.000588953,-0.0007127019,0.001137013,-0.1820279,-0.08958401000000001,-9.862197999999999,0,0,39.26697,1,1,7772,3886
2667,13622923,2,0.0006623409,-0.0005791766,0.001065698,-0.1798815,-0.08708923,-9.862614000000001,0,0,39.26691,1,1,7772,3886
2670,13625498,2,0.001063061,-0.0008589051,0.001088896,-0.1784234,-0.08586748,-9.864148999999999,0,0,39.26688,1,1,7772,3886
2674,13627513,2,0.001756152,-0.0007479901,0.0004735204,-0.1752334,-0.08451652,-9.864061,0,0,39.26682,1,1,7772,3886
2677,13630333,2,0.001672051,-0.0003117509,-0.000468605,-0.1725192,-0.08360653999999999,-9.862081,0,0,39.2668,1,1,7772,3886
2708,13632490,2,0.001930089,4.165604e-05,-0.001240333,-0.1714838,-0.08222189000000001,-9.858783000000001,0,0,39.26675,1,1,7772,3886
2711,13635441,2,0.001686962,-0.0001866921,-0.001446173,-0.1737082,-0.08249989000000001,-9.857101,0,0,39.26672,1,1,7772,3886
2714,13638260,2,0.001014024,-0.001253844,-0.0007115894,-0.1762579,-0.08405032,-9.854754,0,0,39.26666,1,1,7772,3886
2717,13640521,2,0.0008064269,-0.001581564,-0.0003273897,-0.1789205,-0.0869178,-9.853676999999999,0,0,39.26662,1,1,7772,3886
2748,13642994,2,0.0006369529,-0.001727931,0.0001924317,-0.182474,-0.09090637999999999,-9.853944,0,0,39.26653,1,1,7772,3886
2751,13645766,2,0.001425211,-0.001810643,-0.0001409566,-0.1853462,-0.09539781999999999,-9.854127999999999,0,0,39.26645,1,1,7772,3886
2755,13648471,2,0.001017925,-0.001824572,0.000710336,-0.1865712,-0.09725060000000001,-9.854775,0,0,39.26641,1,1,7772,3886
2758,13651047,2,-4.919887e-05,-0.00119198,0.00118817,-0.188499,-0.09713677,-9.85807,0,0,39.26632,1,1,7772,3886
2789,13653295,2,-0.0005942389,-0.0004078691,0.001589974,-0.1896907,-0.0954043,-9.864538,0,0,39.26625,1,1,7772,3886
2792,13656248,2,-0.0009508067,0.0005016383,0.001960604,-0.1905162,-0.09384895,-9.86913,0,0,39.26621,1,1,7772,3886
2796,13658333,2,-0.001966299,0.0006374503,0.001354807,-0.194494,-0.09061271999999999,-9.874362,0,0,39.26615,1,1,7772,3886
2801,13667119,2,-0.001696719,-0.002714026,0.0005526096,-0.2030825,-0.08449771,-9.869685,0,0,39.26598,1,1,7772,3886
2832,13669739,2,-0.0006724708,-0.002817088,0.00143646,-0.203648,-0.0823778,-9.863246,0,0,39.26593,1,1,7772,3886
2835,13672453,2,-0.0007339077,-0.002511322,0.001565365,-0.20491,-0.0810409,-9.858561999999999,0,0,39.2659,1,1,7772,3886
2838,13675121,2,-0.0003741924,-0.001529766,0.00177992,-0.2060516,-0.08064013,-9.854376,0,0,39.26587,1,1,7772,3886
2841,13677263,2,-0.0003617122,-0.000905029,0.0009328875,-0.2074753,-0.08078533,-9.853445000000001,0,0,39.26585,1,1,7772,3886
2872,13679728,2,-0.0006356418,0.0002174067,-0.0003550102,-0.2101457,-0.08171324000000001,-9.853460999999999,0,0,39.26582,1,1,7772,3886
2877,13682243,2,-0.001226039,0.0006952949,-0.001273658,-0.2116464,-0.08346567000000001,-9.856133,0,0,39.26581,1,1,7772,3886
2880,13685014,2,-0.001170797,-0.0006662593,-0.001241759,-0.2124914,-0.08569626,-9.860696000000001,0,0,39.26577,1,1,7772,3886
2883,13687537,2,-0.0003865648,-0.002415624,-0.0008644749,-0.2114943,-0.08622188,-9.860588,0,0,39.26574,1,1,7772,3886
2914,13690341,2,-0.0003894645,-0.003700451,-0.0002648905,-0.2094704,-0.08604865,-9.862638,0,0,39.26574,1,1,7772,3886
2917,13692582,2,-0.0006829463,-0.002675968,0.001426885,-0.2082236,-0.08353569,-9.867837,0,0,39.26573,1,1,7772,3886
2920,13695442,2,-0.0007529547,-0.002063817,0.001539009,-0.2065105,-0.08266033,-9.870507,0,0,39.26573,1,1,7772,3886
2923,13697499,2,-0.0007001988999999999,-0.001346563,0.001345012,-0.2050753,-0.08342949,-9.870882,0,0,39.26574,1,1,7772,3886
2954,13700484,2,-0.0008154553,-0.001180931,0.001120264,-0.203956,-0.0841653,-9.869638,0,0,39.26574,1,1,7772,3886
2958,13702308,2,-0.001283974,-0.001216631,-5.28255e-05,-0.2017111,-0.084553,-9.866680000000001,0,0,39.26573,1,1,7772,3886
2961,13705250,2,-0.001030723,-0.0009905876,-0.0008462191,-0.1998013,-0.08448114,-9.864414999999999,0,0,39.26573,1,1,7772,3886
2964,13708253,2,-0.0001776597,-0.00117149,-0.0002371668,-0.1984513,-0.08297781999999999,-9.860659,0,0,39.26572,1,1,7772,3886
2995,13710506,2,-0.0001078179,-0.001933322,-0.0002338181,-0.1962189,-0.07986548,-9.852942000000001,0,0,39.26573,1,1,7772,3886
3000,13713348,2,-0.0006458764,-0.001467492,0.0004588186,-0.1954276,-0.07882018,-9.848981,0,0,39.26574,1,1,7772,3886
3003,13715532,2,-0.002229978,-0.00119595,-0.000219142,-0.1944701,-0.07761981,-9.844620000000001,0,0,39.26576,1,1,7772,3886
3006,13718493,2,-0.003097013,-0.001010702,-0.0007134944,-0.1945095,-0.07684887,-9.842796999999999,0,0,39.26578,1,1,7772,3886
3037,13720874,2,-0.003018225,-0.001032525,-0.001559168,-0.1967319,-0.07723352999999999,-9.842043,0,0,39.2658,1,1,7772,3886
3044,13723879,2,-0.002223557,-0.001491668,-0.002092045,-0.2001414,-0.07551005,-9.842430999999999,0,0,39.26582,1,1,7772,3886
3047,13726352,2,-0.001419044,-0.001651324,-0.002094517,-0.2012383,-0.07374098,-9.842767,0,0,39.26583,1,1,7772,3886
3051,13729281,2,-0.0007557892000000001,-0.002225539,-0.001087284,-0.2003942,-0.07239494,-9.842898,0,0,39.26584,1,1,7772,3886
3082,13732220,2,-0.0005562936,-0.002179551,-0.0003285939,-0.1971823,-0.07140605999999999,-9.845962999999999,0,0,39.26583,1,1,7772,3886
3086,13734244,2,-0.001107519,-0.001831314,-0.0004365843,-0.1948968,-0.07154430000000001,-9.848027,0,0,39.2658,1,1,7772,3886
3089,13736894,2,-0.001457272,-0.001315991,-0.0009310588,-0.1927987,-0.07337212999999999,-9.852157,0,0,39.26577,1,1,7772,3886
3092,13739112,2,-0.001388889,-0.0008883269,-0.002112118,-0.191247,-0.0755902,-9.855176,0,0,39.26575,1,1,7772,3886
3123,13742286,2,-0.00140898,-0.0006593093,-0.001719706,-0.1900935,-0.0798229,-9.861777,0,0,39.26573,1,1,7772,3886
3126,13744331,2,-0.001718667,-0.0007795553999999999,-0.001266389,-0.1901592,-0.08227389,-9.86605,0,0,39.26571,1,1,7772,3886
3129,13747099,2,-0.001150578,-0.001116858,-0.0009568157,-0.1921718,-0.08373074,-9.872476000000001,0,0,39.26571,1,1,7772,3886
3132,13749536,2,-0.0003541002,-0.001006775,-0.0008385075,-0.1930383,-0.08363348,-9.875818000000001,0,0,39.2657,1,1,7772,3886
3163,13751872,2,0.0006640187,0.0001621072,-0.0009125675,-0.1936076,-0.08300042000000001,-9.875851000000001,0,0,39.26571,1,1,7772,3886
3167,13755486,2,0.0009346726,0.0002594144,-0.001413504,-0.1942592,-0.08330812,-9.874719000000001,0,0,39.26571,1,1,7772,3886
3170,13756938,2,0.0007580137,-0.0005926365,-0.002569871,-0.1955089,-0.08270443,-9.873125,0,0,39.26574,1,1,7772,3886
3173,13759861,2,0.001253511,-0.001079426,-0.002154144,-0.1966064,-0.08205129999999999,-9.872979000000001,0,0,39.26575,1,1,7772,3886
3204,13762206,2,0.001086269,-0.001130479,-0.001446205,-0.1986637,-0.08057445000000001,-9.872047999999999,0,0,39.26578,1,1,7772,3886
3207,13765837,2,-0.0001718463,-0.001049917,-0.001081693,-0.2029153,-0.07801804,-9.868466,0,0,39.26579,1,1,7772,3886
3210,13767116,2,-0.0002884129,-0.0008315054,-0.0003193701,-0.2046657,-0.07746105,-9.865565999999999,0,0,39.26581,1,1,7772,3886
3213,13772907,2,0.001620439,-0.0005461356,0.0004484785,-0.2040192,-0.08114749,-9.855752000000001,0,0,39.26579,1,1,7772,3886
3245,13775291,2,0.002591779,-0.0003556451,0.0005955586,-0.2032495,-0.08267643,-9.848269999999999,0,0,39.26577,1,1,7772,3886
3248,13778356,2,0.002513533,6.163501e-05,0.0004187841,-0.2038943,-0.08387619,-9.843869,0,0,39.26575,1,1,7772,3886
3251,13780273,2,0.001694593,-0.0001104142,0.0009304512,-0.2047268,-0.08601364,-9.841041000000001,0,0,39.26574,1,1,7772,3886
3254,13782990,2,-0.0001748392,-0.0007991569,0.001572451,-0.2047084,-0.08982037,-9.837607,0,0,39.26572,1,1,7772,3886
3287,13785432,2,-0.000746467,-0.0007276391,0.001161493,-0.2048445,-0.09292534,-9.835735,0,0,39.26572,1,1,7772,3886
3291,13788512,2,1.152521e-05,-0.0006842845,0.0005013741,-0.2053648,-0.09483823,-9.836148,0,0,39.26572,1,1,7772,3886
3294,13790761,2,-0.0001100395,4.664946e-05,-0.0007218037,-0.2060337,-0.09687575,-9.837457000000001,0,0,39.26574,1,1,7772,3886
3297,13793320,2,-0.0006396892,0.0003778649,-0.0005579474,-0.2058791,-0.09710079000000001,-9.837915000000001,0,0,39.26576,1,1,7772,3886
3328,13796484,2,-0.0005600278,0.0005555334,0.0001992884,-0.20636,-0.09597050999999999,-9.841836000000001,0,0,39.2658,1,1,7772,3886
3331,13798366,2,-5.349402e-05,0.0008674917,0.0008988423,-0.2081087,-0.09429093,-9.845969999999999,0,0,39.26583,1,1,7772,3886
3334,13801114,2,0.001373137,0.001449343,0.001225917,-0.209189,-0.0912704,-9.850133,0,0,39.26587,1,1,7772,3886
3337,13802921,2,0.0009125631,0.0009564498,0.001590593,-0.2089034,-0.09029034,-9.849741,0,0,39.26593,1,1,7772,3886
3368,13805473,2,-0.0005806412,-0.0001671743,0.001707152,-0.2074155,-0.08946986,-9.850493,0,0,39.266,1,1,7772,3886
3372,13808431,2,-0.001383122,-0.000713935,0.001752551,-0.2058264,-0.08772146,-9.851649999999999,0,0,39.26606,1,1,7772,3886
3376,13810536,2,-0.001174565,-2.293375e-05,0.001894187,-0.2038723,-0.08526839,-9.853992,0,0,39.26619,1,1,7772,3886
3379,13813477,2,-0.001131328,0.0002732851,0.001341597,-0.2023347,-0.08640749,-9.856339,0,0,39.26625,1,1,7772,3886
3410,13815869,2,-0.001126052,6.155137000000001e-05,0.0002326696,-0.2001698,-0.09113722,-9.860708000000001,0,0,39.26639,1,1,7772,3886
3413,13818427,2,-0.001555969,0.0001665908,0.000207553,-0.1993337,-0.09192790000000001,-9.863184,0,0,39.26649,1,1,7772,3886
3416,13821075,2,-0.002305522,-0.000127625,0.0005272717,-0.1970919,-0.09019873,-9.863556000000001,0,0,39.26659,1,1,7772,3886
3420,13822888,2,-0.002684477,-0.0003281704,0.001225026,-0.1954025,-0.08957932,-9.859012,0,0,39.26662,1,1,7772,3886
3455,13826260,2,-0.002717254,-0.0008017495,0.001527585,-0.193484,-0.08921076,-9.853560999999999,0,0,39.26666,1,1,7772,3886
3459,13828131,2,-0.002431913,-0.0008946873,0.001731613,-0.192769,-0.08801819,-9.847390000000001,0,0,39.26667,1,1,7772,3886
3462,13830566,2,-0.001296773,-0.0005223213,0.001986448,-0.1946918,-0.08673142,-9.838488999999999,0,0,39.26671,1,1,7772,3886
3465,13833464,2,-0.0009976577999999999,-0.0001386878,0.002280696,-0.1953989,-0.08652318000000001,-9.835051,0,0,39.26672,1,1,7772,3886
3496,13836281,2,-0.001090091,0.000403101,0.001312388,-0.1944854,-0.08501093,-9.836062999999999,0,0,39.26673,1,1,7772,3886
3500,13838272,2,-0.0007556926,0.0007428162000000001,0.001002378,-0.1923995,-0.08288947000000001,-9.839183,0,0,39.26672,1,1,7772,3886
3503,13840884,2,-0.001162943,0.0008805455,0.0006381118,-0.1914978,-0.08220279,-9.841984,0,0,39.2667,1,1,7772,3886
3507,13843572,2,-0.001944133,0.001219722,0.000631625,-0.1903044,-0.08200178,-9.846640000000001,0,0,39.26669,1,1,7772,3886
3538,13846120,2,-0.002766176,0.00128258,0.001639351,-0.1877008,-0.08221935,-9.857981000000001,0,0,39.26667,1,1,7772,3886
3541,13849238,2,-0.003261792,0.0006216957,0.002180253,-0.1853161,-0.08301528,-9.866174000000001,0,0,39.26665,1,1,7772,3886
3544,13851306,2,-0.003439551,-1.128263e-05,0.002335674,-0.184397,-0.08252701,-9.868078000000001,0,0,39.26664,1,1,7772,3886
3549,13853860,2,-0.003025423,-0.001208541,0.002211394,-0.183594,-0.08034640999999999,-9.870889,0,0,39.26662,1,1,7772,3886
3580,13856562,2,-0.002769809,-0.001173345,0.001472727,-0.1834888,-0.07986507,-9.872239,0,0,39.26661,1,1,7772,3886
3584,13858426,2,-0.002559342,-0.0003606566,0.0003273361,-0.1842465,-0.07832989999999999,-9.875443000000001,0,0,39.26661,1,1,7772,3886
3587,13862212,2,-0.001998315,0.0003640413,-0.00117832,-0.1848799,-0.07682841,-9.875207,0,0,39.26661,1,1,7772,3886
3590,13863756,2,-0.0005576165,8.610436e-06,-0.002479917,-0.1853678,-0.07375742,-9.870645,0,0,39.26662,1,1,7772,3886
3621,13866326,2,-0.0001987888,-0.001037723,-0.001535468,-0.1847241,-0.06970853,-9.869194999999999,0,0,39.26663,1,1,7772,3886
3624,13871110,2,-0.001583434,-0.001299902,0.0007802998,-0.1833,-0.06133777,-9.873697999999999,0,0,39.26665,1,1,7772,3886
3627,13874537,2,-0.0008107582,-0.00171196,0.001585372,-0.1829766,-0.06003659,-9.873563000000001,0,0,39.26667,1,1,7772,3886
3630,13876372,2,-0.000202451,-0.002109752,0.00151645,-0.1832139,-0.05999326,-9.874408000000001,0,0,39.2667,1,1,7772,3886
3661,13878749,2,-0.0003963743,-0.002491299,-0.0005306185,-0.183927,-0.06238902,-9.877057000000001,0,0,39.26672,1,1,7772,3886
3664,13881759,2,-0.001318631,-0.002338812,-0.002128682,-0.1851123,-0.06562243,-9.876707,0,0,39.26674,1,1,7772,3886
3667,13884094,2,-0.001222026,-0.002527203,-0.003157181,-0.1875836,-0.06874096,-9.876683,0,0,39.26674,1,1,7772,3886
3670,13886482,2,-0.0001270691,-0.002302006,-0.003507977,-0.1913259,-0.07286105,-9.877046,0,0,39.26671,1,1,7772,3886
3702,13889494,2,0.0006944721,-0.002029827,-0.003092434,-0.1925598,-0.07593369,-9.875992999999999,0,0,39.26666,1,1,7772,3886
3705,13891534,2,0.0005640202,-0.001538109,-0.002035159,-0.1940214,-0.08051456999999999,-9.874084,0,0,39.26661,1,1,7772,3886
3708,13894301,2,-7.21286e-06,-0.001594434,-0.001627517,-0.1947164,-0.08253552,-9.870760000000001,0,0,39.26656,1,1,7772,3886
3711,13896513,2,-8.249367e-05,-0.001348588,-0.001799574,-0.1945028,-0.08397871,-9.866222,0,0,39.26651,1,1,7772,3886
3742,13898984,2,0.0001273449,-0.001383755,-0.002381992,-0.1938354,-0.08612796,-9.861264,0,0,39.26648,1,1,7772,3886
3745,13901942,2,-0.0004460234,-0.001231643,-0.003268551,-0.1928673,-0.08710701,-9.859102,0,0,39.26648,1,1,7772,3886
3748,13903956,2,-0.0007061999,-0.001054508,-0.003709699,-0.1922683,-0.08684812,-9.856889000000001,0,0,39.26649,1,1,7772,3886
3751,13906297,2,-5.696564e-05,-0.0005490011,-0.004025592,-0.1918611,-0.08643017,-9.855219999999999,0,0,39.26653,1,1,7772,3886
3783,13909102,2,0.001061281,0.0004483686,-0.003918767,-0.1921931,-0.08591417,-9.851967999999999,0,0,39.26658,1,1,7772,3886
3786,13911848,2,0.001263007,0.0008258156999999999,-0.002840611,-0.1928718,-0.08421379,-9.847735999999999,0,0,39.26665,1,1,7772,3886
3789,13914264,2,-3.931196e-06,0.0003032492,-0.0008618826,-0.1933737,-0.07961072,-9.84465,0,0,39.26672,1,1,7772,3886
3792,13916537,2,-0.001103948,0.0003290555,-0.0002443416,-0.1934128,-0.07793538,-9.846919,0,0,39.26679,1,1,7772,3886
3823,13918992,2,-0.00190784,0.0001094611,-0.0009071845,-0.1931689,-0.07683927,-9.849690000000001,0,0,39.26687,1,1,7772,3886
3826,13921423,2,-0.001400384,-0.0005597441,-0.001881001,-0.1924831,-0.07616178999999999,-9.850555999999999,0,0,39.26692,1,1,7772,3886
3831,13924316,2,-0.0006549987,-0.0009781498,-0.002198218,-0.1911697,-0.07749461000000001,-9.852535,0,0,39.267,1,1,7772,3886
3838,13927276,2,1.351816e-05,0.0001939856,-0.001778561,-0.1906353,-0.07925566000000001,-9.852708,0,0,39.26708,1,1,7772,3886
3869,13929752,2,0.0005918248,0.001605689,-0.002155728,-0.1866728,-0.07968847,-9.850683999999999,0,0,39.26719,1,1,7772,3886
3873,13932224,2,0.0001866027,0.001559077,-0.002199353,-0.1847833,-0.07915112000000001,-9.852655,0,0,39.26724,1,1,7772,3886
3876,13935113,2,0.0006946611,0.0002292936,-0.001328213,-0.1843939,-0.07975135999999999,-9.857096,0,0,39.26733,1,1,7766,3883
3879,13937838,2,0.0004233016,-0.0001269561,-0.001257006,-0.1858245,-0.08008777,-9.858522000000001,0,0,39.26738,1,1,7766,3883
3910,13940322,2,0.0002894224,0.0002972959,-0.0006084498,-0.1876148,-0.07857637000000001,-9.858865,0,0,39.26749,1,1,7766,3883
3913,13942537,2,0.0009524323,0.0002494342,-2.673911e-05,-0.1895489,-0.07502929,-9.857027,0,0,39.26759,1,1,7766,3883
3916,13945700,2,0.001140859,0.000577114,-0.0005948666,-0.19211,-0.07308503,-9.855847000000001,0,0,39.26766,1,1,7766,3883
3919,13948255,2,0.001090294,0.001348529,-6.732037e-05,-0.1949291,-0.07175344,-9.854545,0,0,39.26776,1,1,7766,3883
3950,13950925,2,0.0001855475,0.001291138,-0.0003446939,-0.1979215,-0.0716036,-9.853507,0,0,39.26788,1,1,7766,3883
3954,13953738,2,0.000243126,0.0009816232999999999,0.000145795,-0.2013258,-0.07234556,-9.850899,0,0,39.268,1,1,7766,3883
3957,13956115,2,0.0003684955,0.0004705483,0.0002791279,-0.2040714,-0.0736295,-9.847490000000001,0,0,39.26808,1,1,7766,3883
3960,13958800,2,-0.001081837,-0.0001825006,-0.0003022691,-0.2062561,-0.07646759,-9.844951999999999,0,0,39.2682,1,1,7766,3883
3991,13961767,2,-0.002162724,-0.0008957071,8.036805e-05,-0.2055829,-0.07837406,-9.845492999999999,0,0,39.2683,1,1,7766,3883
3996,13963959,2,-0.002206214,-0.0007270606,0.0007808235,-0.2028647,-0.08111894,-9.849387999999999,0,0,39.26836,1,1,7766,3883
3999,13966313,2,-0.001729806,7.736956e-05,0.0001367933,-0.2000297,-0.08391630999999999,-9.854574,0,0,39.26847,1,1,7766,3883
4002,13969129,2,-0.001675758,4.332588e-05,-9.981425999999999e-05,-0.1976184,-0.08532183,-9.85773,0,0,39.26858,1,1,7766,3883
4033,13977454,2,-0.001887638,0.0008644122,0.0005036727,-0.1914487,-0.08094276,-9.85962,0,0,39.26901,1,1,7766,3883
4036,13979917,2,-0.001578197,0.0002293368,0.0007538435,-0.1900102,-0.07724882,-9.857873,0,0,39.2691,1,1,7766,3883
4067,13982746,2,-0.0008334839,-0.0005551006,0.001115741,-0.1883077,-0.07471807,-9.854676,0,0,39.26918,1,1,7766,3883
4070,13985317,2,-0.0001614445,-0.001084961,0.001548471,-0.1858587,-0.07120286000000001,-9.849859,0,0,39.26932,1,1,7766,3883
4073,13987484,2,-5.951532e-06,-0.001400674,0.001659956,-0.1850019,-0.06898572,-9.848285000000001,0,0,39.26941,1,1,7766,3883
4077,13989928,2,-0.0006099836,-0.001744543,0.002244865,-0.183508,-0.06887362,-9.847453,0,0,39.26959,1,1,7766,3883
4108,13992229,2,-0.001039749,-0.001921188,0.001751515,-0.1824319,-0.07039898999999999,-9.846278,0,0,39.26975,1,1,7766,3883
4111,13995205,2,-0.001101673,-0.0022148,-0.0003444216,-0.1816648,-0.0713995,-9.841616,0,0,39.26985,1,1,7766,3883
4114,13998022,2,-0.001265112,-0.001906432,-0.0005336157,-0.1821456,-0.07273106,-9.838727,0,0,39.26995,1,1,7766,3883
4118,13999969,2,-0.001657861,-0.002686486,0.0008940912,-0.1853494,-0.07569600999999999,-9.838737,0,0,39.27011,1,1,7766,3883
4149,14002448,2,-0.0002976668,-0.002355852,0.001706992,-0.1883577,-0.07747621,-9.838794,0,0,39.27026,1,1,7766,3883
4152,14004806,2,0.000848618,-0.002095654,0.001773733,-0.1901052,-0.07978162,-9.839171,0,0,39.27037,1,1,7766,3883
4155,14007364,2,0.001594102,-0.001813605,0.0008125473,-0.1919556,-0.08185601000000001,-9.839442,0,0,39.27048,1,1,7766,3883
4158,14010486,2,0.0006329323,-0.001552502,0.0002917202,-0.1955734,-0.08286417,-9.839407,0,0,39.27065,1,1,7766,3883
4189,14013179,2,-0.0003468147,-0.002216275,0.001559217,-0.1982402,-0.08278634,-9.84023,0,0,39.27086,1,1,7766,3883
4192,14015523,2,-0.0003607972,-0.002795512,0.002150225,-0.2008033,-0.08279117,-9.840964,0,0,39.27097,1,1,7766,3883
4195,14018103,2,-0.0002725729,-0.002699692,0.001913757,-0.2036353,-0.0814327,-9.841262,0,0,39.27115,1,1,7766,3883
4199,14020707,2,0.0001295124,-0.001605123,0.001916502,-0.2049673,-0.07783142,-9.840628000000001,0,0,39.27126,1,1,7766,3883
4230,14023451,2,-5.656792e-05,-0.001060417,0.0027979,-0.2058844,-0.07490355999999999,-9.840555,0,0,39.27145,1,1,7766,3883
4233,14026076,2,0.0004903291,-0.001194629,0.003313269,-0.2065831,-0.07164221,-9.841331,0,0,39.27158,1,1,7766,3883
4237,14027760,2,0.0007779136,-0.0009808003999999999,0.002342682,-0.2059142,-0.06884957,-9.842649,0,0,39.27179,1,1,7766,3883
4244,14030846,2,0.0005175141,-0.0007535279,0.002012186,-0.205536,-0.06936136,-9.843595000000001,0,0,39.27191,1,1,7766,3883
4277,14033201,2,0.0002078276,-0.001042366,0.001478504,-0.2041859,-0.07174943,-9.847265999999999,0,0,39.27217,1,1,7766,3883
4280,14036261,2,8.962753e-05,-0.001314222,0.0009027367,-0.2017739,-0.07376648,-9.850346,0,0,39.2723,1,1,7766,3883
4283,14038885,2,0.0001108025,-0.001639317,0.0002551701,-0.1985983,-0.07687563,-9.854336,0,0,39.27244,1,1,7766,3883
4286,14040926,2,-0.0008942536,-0.00156177,-0.0006271943,-0.1961741,-0.08060306,-9.858478,0,0,39.27272,1,1,7766,3883
4317,14043441,2,-0.0009405686,-0.0008967773,-0.0009451028999999999,-0.1944291,-0.08448422999999999,-9.862022,0,0,39.273,1,1,7766,3883
4320,14046056,2,-0.0007229501,-0.0003201636,-0.00189893,-0.194406,-0.08504539,-9.864943999999999,0,0,39.27314,1,1,7766,3883
4323,14048842,2,-0.0004104598,-0.0003273357,-0.00224742,-0.1955685,-0.08505952999999999,-9.865836,0,0,39.27327,1,1,7766,3883
4327,14051248,2,2.536133e-05,0.000233683,-0.002342108,-0.1992418,-0.08558343,-9.866033,0,0,39.27348,1,1,7766,3883
4358,14053505,2,-0.0004327377,0.0002233825,-0.002375774,-0.2024388,-0.08357687,-9.867718999999999,0,0,39.27367,1,1,7766,3883
4362,14055936,2,-0.0004846165,0.0002242675,-0.001217146,-0.2035355,-0.08222481,-9.866315,0,0,39.2738,1,1,7766,3883
4367,14058933,2,-0.0002447991,0.0002453906,-0.0003211181,-0.2044335,-0.08197024999999999,-9.863530000000001,0,0,39.27393,1,1,7766,3883
4370,14061313,2,0.0001315647,0.0006938006,-3.508135e-05,-0.2051885,-0.08223613,-9.858708999999999,0,0,39.27415,1,1,7766,3883
4401,14064115,2,0.000737166,0.0004488258,-0.0002444789,-0.2057318,-0.08335975,-9.85042,0,0,39.27444,1,1,7766,3883
4404,14066427,2,0.001092093,0.0008490703,-0.0006009032,-0.2048919,-0.08438659,-9.844327,0,0,39.27459,1,1,7766,3883
4407,14068806,2,0.001506285,0.002071566,-0.001069977,-0.202574,-0.08805312,-9.837099,0,0,39.27488,1,1,7766,3883
4411,14071126,2,0.001086454,0.001671911,-0.001269889,-0.2004281,-0.08952541999999999,-9.832511999999999,0,0,39.27504,1,1,7766,3883
4442,14077885,2,-0.001826099,-0.001028416,-0.00111243,-0.1971999,-0.09072842,-9.825303999999999,0,0,39.27553,1,1,7766,3883
4445,14079084,2,-0.00185533,-0.001160031,-0.0002326279,-0.1959452,-0.08988395,-9.828777000000001,0,0,39.27575,1,1,7766,3883
4448,14081962,2,-0.001366973,-0.0005262012,-0.0005293635,-0.1958699,-0.08889983999999999,-9.831908,0,0,39.2759,1,1,7766,3883
4479,14084918,2,-0.001002219,8.713414000000001e-05,-0.000726598,-0.1968369,-0.08836797,-9.836748999999999,0,0,39.27612,1,1,7766,3883
4482,14086577,2,-0.001018203,0.0005982474999999999,-0.0007360528,-0.199068,-0.08856938,-9.844137999999999,0,0,39.27634,1,1,7766,3883
4485,14090060,2,-0.0008636648,0.0007546688,-0.001130801,-0.2002621,-0.08938202000000001,-9.847262000000001,0,0,39.27649,1,1,7766,3883
4490,14091937,2,-0.001110972,0.0008436696,-0.00207382,-0.2018075,-0.08923068000000001,-9.850872000000001,0,0,39.27671,1,1,7766,3883
4521,14094090,2,-0.0007500643,0.0009660556,-0.003642347,-0.201347,-0.08743904,-9.852558,0,0,39.27692,1,1,7766,3883
4524,14097303,2,-0.0004443113,0.000993949,-0.003949626,-0.1992642,-0.08608093999999999,-9.854298,0,0,39.27706,1,1,7766,3883
4527,14099119,2,-0.001148857,0.0009492906,-0.003535677,-0.1967684,-0.08525268,-9.856014999999999,0,0,39.27728,1,1,7766,3883
4530,14101738,2,-0.002545717,0.001066394,-0.002244082,-0.1934145,-0.08297749,-9.856752,0,0,39.27748,1,1,7766,3883
4561,14104728,2,-0.001928659,0.000848046,-0.002642105,-0.1922921,-0.08168697,-9.857257000000001,0,0,39.27768,1,1,7766,3883
4564,14106723,2,-0.0009295423,0.0001091323,-0.002465688,-0.1916979,-0.08128854000000001,-9.857877,0,0,39.2779,1,1,7766,3883
4567,14109541,2,-0.0008507501,-3.060352e-06,-0.002603689,-0.1911867,-0.08099442,-9.85866,0,0,39.27804,1,1,7766,3883
4572,14111957,2,-0.001039756,0.0002207041,-0.003262949,-0.1880928,-0.0800821,-9.858521,0,0,39.27826,1,1,7766,3883
4603,14114279,2,0.0007945779,0.0005734544,-0.0016061,-0.1834831,-0.07792098,-9.852634,0,0,39.27845,1,1,7766,3883
4606,14117117,2,0.001430595,3.478291e-05,0.0002195194,-0.1814659,-0.07727017,-9.847170999999999,0,0,39.27858,1,1,7766,3883
4609,14119772,2,0.00172593,-0.0003953323,0.001471602,-0.1807354,-0.07832878,-9.842115,0,0,39.27876,1,1,7766,3883
4613,14121987,2,0.001130996,-0.0005637259,0.001283351,-0.1808864,-0.08047794,-9.836264999999999,0,0,39.27893,1,1,7766,3883
4644,14124250,2,0.0002351533,-0.0006403698,0.002137773,-0.1845363,-0.0834498,-9.834621,0,0,39.2791,1,1,7766,3883
4647,14126716,2,0.0006552833,-0.001036947,0.003045741,-0.1885394,-0.08417582999999999,-9.834751000000001,0,0,39.27921,1,1,7766,3883
4650,14129747,2,0.001259907,-0.001233103,0.002837754,-0.1931935,-0.08295698,-9.834083,0,0,39.27932,1,1,7766,3883
4657,14131937,2,0.0008454884,-0.002124273,0.001072774,-0.1989643,-0.0779292,-9.83315,0,0,39.27947,1,1,7766,3883
4688,14134934,2,-0.0002263138,-0.002563844,-8.281504e-05,-0.2014518,-0.07301588000000001,-9.836066000000001,0,0,39.27961,1,1,7766,3883
4691,14136993,2,-0.0004271706,-0.002315438,0.0004574447,-0.2017296,-0.07204711,-9.837426000000001,0,0,39.2797,1,1,7766,3883
4694,14138960,2,-0.0004012155,-0.002097331,0.0007822904,-0.2022019,-0.0711804,-9.840915000000001,0,0,39.27979,1,1,7766,3883
4698,14142120,2,-0.0007298201,-0.001573748,0.001178386,-0.2032084,-0.07069868999999999,-9.846648,0,0,39.27991,1,1,7766,3883
4729,14144305,2,-0.0002546455,-0.0007902636,0.001673761,-0.2017221,-0.07069726,-9.849739,0,0,39.28004,1,1,7766,3883
4732,14147534,2,-0.0003651032,-0.0007080984999999999,0.00111964,-0.1998684,-0.07146295,-9.850830999999999,0,0,39.28014,1,1,7766,3883
4736,14149582,2,-0.001113122,-0.001902643,0.001174398,-0.1970718,-0.07280648000000001,-9.851614,0,0,39.28027,1,1,7766,3883
4739,14152095,2,-0.001841894,-0.001933638,0.00139309,-0.1958103,-0.07333315999999999,-9.853284,0,0,39.28036,1,1,7766,3883
4770,14154893,2,-0.00225703,-0.001802751,0.002293714,-0.1936648,-0.07405005000000001,-9.853579999999999,0,0,39.28053,1,1,7766,3883
4773,14157332,2,-0.0024624,-0.001102901,0.001409422,-0.1930969,-0.07351745,-9.851762000000001,0,0,39.28062,1,1,7766,3883
4776,14160235,2,-0.001421375,-0.001196384,0.0007883128000000001,-0.1925464,-0.07105098999999999,-9.848796999999999,0,0,39.2808,1,1,7766,3883
4780,14161962,2,-0.0002770541,-0.001273226,0.0009220054,-0.192407,-0.0694652,-9.849330999999999,0,0,39.28089,1,1,7766,3883
4811,14164466,2,-0.0004006826,-0.001578979,0.001496459,-0.1925069,-0.06921168,-9.853092,0,0,39.28107,1,1,7766,3883
4814,14167321,2,-0.0002682702,-0.001264404,0.001209613,-0.1928997,-0.06917494,-9.856847999999999,0,0,39.28115,1,1,7766,3883
4817,14169899,2,0.0002059697,-0.0006039887,0.001265177,-0.192974,-0.06838718000000001,-9.859513,0,0,39.28124,1,1,7766,3883
4820,14174581,2,-0.0008041486,0.0002231989,0.0008008243,-0.1930917,-0.06730317,-9.861585,0,0,39.28142,1,1,7766,3883
4851,14177328,2,-0.001035108,0.0004672332,0.0009665699,-0.1912272,-0.06840715,-9.861953,0,0,39.28148,1,1,7766,3883
4854,14180000,2,-0.00115302,0.0002877449,0.001065458,-0.1878758,-0.06786795,-9.861048,0,0,39.28158,1,1,7766,3883
4858,14185347,2,-0.001278173,0.0002058463,0.002960607,-0.1832959,-0.06724606,-9.854378000000001,0,0,39.28187,1,1,7766,3883
4889,14187737,2,-0.0002956275,0.0009180733,0.001663623,-0.1854215,-0.06871316,-9.849712,0,0,39.282,1,1,7766,3883
4892,14190641,2,0.0005088519,0.001434057,0.001033567,-0.187971,-0.07012953,-9.846723000000001,0,0,39.28208,1,1,7766,3883
4896,14192947,2,0.0006777487,0.001115782,7.08001e-06,-0.1929866,-0.07306728999999999,-9.845762000000001,0,0,39.2822,1,1,7766,3883
4899,14195842,2,0.0006101415,0.000909068,-4.876867e-05,-0.1965707,-0.07451869999999999,-9.846901000000001,0,0,39.28231,1,1,7766,3883
4930,14198509,2,0.0009655424,0.0002100014,0.0004071901,-0.2015408,-0.07790792000000001,-9.851896999999999,0,0,39.28241,1,1,7766,3883
4933,14200919,2,0.0004325704,-0.0007599315,0.0005317237,-0.2032533,-0.08067806,-9.854729000000001,0,0,39.28251,1,1,7766,3883
4936,14203392,2,0.0001285941,-0.0004813978,0.0005884159,-0.2043881,-0.08326142,-9.856952,0,0,39.28257,1,1,7766,3883
4939,14206061,2,0.000546784,-9.893233e-05,0.00141004,-0.205155,-0.08498563000000001,-9.858366999999999,0,0,39.28265,1,1,7766,3883
4970,14208742,2,0.001168601,-0.0004072048,0.0009333885,-0.2036582,-0.08671841,-9.857376,0,0,39.28274,1,1,7766,3883
4973,14211404,2,0.001406101,-0.0002314652,0.00102013,-0.2014755,-0.08725131999999999,-9.856794000000001,0,0,39.2828,1,1,7766,3883
4977,14213385,2,0.001188335,-5.839453e-05,7.226368e-05,-0.1988099,-0.0872964,-9.856795,0,0,39.28288,1,1,7766,3883
4980,14216003,2,0.0004350001,-0.0009309192,-0.0004805606,-0.1964427,-0.08876581,-9.858328999999999,0,0,39.28294,1,1,7766,3883
5011,14218488,2,1.406489e-05,-0.001171979,-0.001237684,-0.1958573,-0.09033138,-9.860326000000001,0,0,39.28304,1,1,7766,3883
5014,14221305,2,0.0001798836,-0.001600585,-0.001412187,-0.1952206,-0.08977226000000001,-9.8606,0,0,39.28312,1,1,7766,3883
5017,14223776,2,0.0003751611,-0.001806194,-0.001139809,-0.1940053,-0.0877988,-9.860329999999999,0,0,39.28322,1,1,7766,3883
5020,14226012,2,0.0008786838,-0.001470672,-0.0008981458,-0.1918557,-0.08443969,-9.860972,0,0,39.28333,1,1,7766,3883
5051,14228235,2,-0.0003992283,-0.0009821045000000001,-0.0001135105,-0.1909039,-0.08230663000000001,-9.860548,0,0,39.28342,1,1,7766,3883
5054,14231050,2,-0.001352996,-0.0006726797000000001,-0.000883685,-0.1900778,-0.08036894999999999,-9.858636000000001,0,0,39.28348,1,1,7766,3883
5063,14233900,2,-0.00123294,-0.0008066848,-0.001452836,-0.1882696,-0.07910208000000001,-9.856778,0,0,39.28357,1,1,7766,3883
5066,14236331,2,-0.0004924212,-0.001078141,-0.002103585,-0.1848047,-0.07659999000000001,-9.852155,0,0,39.28365,1,1,7766,3883
5097,14238772,2,0.0006044331,-0.001323789,-0.002016466,-0.1808534,-0.07483919999999999,-9.847656000000001,0,0,39.28373,1,1,7766,3883
5100,14241348,2,0.0009179115,-0.002616113,-0.001317294,-0.1775905,-0.07492733,-9.844982999999999,0,0,39.28377,1,1,7766,3883
5104,14243978,2,0.0004454363,-0.003029936,-0.00128878,-0.1754461,-0.07671321,-9.846857999999999,0,0,39.28384,1,1,7766,3883
5107,14246476,2,0.0001757273,-0.002904825,-0.001071483,-0.1727366,-0.08063016000000001,-9.851312999999999,0,0,39.28393,1,1,7766,3883
5138,14249897,2,-0.0009216755,-0.002808396,-0.003644019,-0.1698423,-0.08647501,-9.855461999999999,0,0,39.28407,1,1,7766,3883
5141,14252296,2,-0.001510084,-0.002900973,-0.003702956,-0.1669674,-0.09000575,-9.854570000000001,0,0,39.28413,1,1,7766,3883
5145,14254290,2,-0.001575453,-0.002991532,-0.003209321,-0.166728,-0.09110704999999999,-9.851485,0,0,39.28423,1,1,7766,3883
5148,14257028,2,-0.00104606,-0.002801148,-0.003148294,-0.1706549,-0.09151856999999999,-9.84745,0,0,39.28433,1,1,7766,3883
5179,14259540,2,-0.0009267402,-0.002893915,-0.002766201,-0.1743876,-0.09205646000000001,-9.847239,0,0,39.28445,1,1,7766,3883
5184,14262480,2,-0.000728595,-0.003649468,-0.002174721,-0.1782255,-0.09226099,-9.849484,0,0,39.28452,1,1,7766,3883
5187,14265001,2,-0.0002372677,-0.004108963,-0.001972594,-0.1817763,-0.09174590000000001,-9.854554,0,0,39.28458,1,1,7766,3883
5190,14266503,2,-0.0002397732,-0.004529831,-0.002435184,-0.1853634,-0.09047998,-9.860027000000001,0,0,39.28466,1,1,7766,3883
5221,14269141,2,-0.0002752435,-0.004110864,-0.00266919,-0.1861906,-0.09011009,-9.859733,0,0,39.28473,1,1,7766,3883
5224,14272218,2,-0.0004008433,-0.002323376,-0.002194508,-0.1868756,-0.08800651,-9.858387,0,0,39.28482,1,1,7766,3883
5228,14277550,2,-0.001196777,-0.001606827,-0.001637994,-0.1890209,-0.08048179,-9.857236,0,0,39.28504,1,1,7766,3883
5261,14280085,2,-0.001934331,-0.001307039,-0.0002672434,-0.1902315,-0.08029465,-9.859056000000001,0,0,39.28515,1,1,7766,3883
5264,14282757,2,-0.001114597,-0.002133043,-0.000856769,-0.1902771,-0.08364099999999999,-9.862453,0,0,39.28529,1,1,7766,3883
5269,14285583,2,-0.0004791319,-0.001957577,-0.00208055,-0.1909212,-0.08568572000000001,-9.86736,0,0,39.28536,1,1,7766,3883
5272,14287911,2,-0.000481425,-0.001510197,-0.002429608,-0.1912847,-0.08740956,-9.872197999999999,0,0,39.28547,1,1,7766,3883
5303,14290358,2,-0.0003449674,-0.0009613833,-0.001853591,-0.1916741,-0.08864982,-9.878887000000001,0,0,39.28561,1,1,7766,3883
5306,14292980,2,0.0001916353,-0.0006999772,-0.001382997,-0.1918565,-0.08848805,-9.878696,0,0,39.2857,1,1,7766,3883
5309,14296519,2,0.0004315102,5.092583e-05,-0.0002707302,-0.1916706,-0.08782160999999999,-9.878415,0,0,39.28578,1,1,7766,3883
5312,14298324,2,0.0008344312999999999,0.0002927892,0.0004850885,-0.1905939,-0.08655255000000001,-9.877772999999999,0,0,39.28593,1,1,7766,3883
5343,14300984,2,0.0009011824,-0.0005453573,0.0004139021,-0.1907025,-0.08565462,-9.877642,0,0,39.28611,1,1,7766,3883
5346,14303458,2,0.0002581599,-0.0002288157,0.001326875,-0.1907953,-0.08501026,-9.879289999999999,0,0,39.28623,1,1,7766,3883
5350,14306164,2,-6.787098e-06,-0.0003861811,0.002006914,-0.1906455,-0.08414032,-9.881696,0,0,39.28635,1,1,7766,3883
5353,14309114,2,0.0006105718,0.0001986511,0.001966425,-0.1919226,-0.08223039,-9.885781,0,0,39.28646,1,1,7766,3883
5384,14312064,2,0.001304583,0.001920937,0.001737458,-0.195059,-0.07729324999999999,-9.888432999999999,0,0,39.28663,1,1,7766,3883
5387,14314331,2,0.001635187,0.002564849,0.001746545,-0.1983063,-0.07311086999999999,-9.887865,0,0,39.28674,1,1,7766,3883
5390,14317045,2,0.002292558,0.002540411,0.001690168,-0.2034386,-0.06797659,-9.886291,0,0,39.28692,1,1,7766,3883
5393,14319613,2,0.002171787,0.002087663,0.002149957,-0.2075893,-0.06644332999999999,-9.885159,0,0,39.28703,1,1,7766,3883
5424,14322320,2,0.001953413,0.002102736,0.002334337,-0.2131832,-0.06808134,-9.882028999999999,0,0,39.28712,1,1,7766,3883
5427,14324983,2,0.002251901,0.002716274,0.002158285,-0.2158859,-0.07058775,-9.880461,0,0,39.28722,1,1,7766,3883
5431,14326985,2,0.00239557,0.00212072,0.002321421,-0.2186032,-0.07411541000000001,-9.879827000000001,0,0,39.28727,1,1,7766,3883
5434,14330081,2,0.002110457,0.001437608,0.002651756,-0.2201202,-0.08029504,-9.880649999999999,0,0,39.28733,1,1,7766,3883
5465,14332845,2,0.001041221,0.00158799,0.002884804,-0.217164,-0.08560684,-9.877625,0,0,39.2874,1,1,7766,3883
5468,14334961,2,0.0004339599,0.001915099,0.003564061,-0.2144052,-0.08785287999999999,-9.872953000000001,0,0,39.28743,1,1,7766,3883
5476,14338106,2,0.0004659418,0.001857572,0.003002805,-0.2106792,-0.08944567,-9.869451,0,0,39.28745,1,1,7766,3883
5479,14340007,2,-0.0002190525,0.001458791,0.002881559,-0.203248,-0.09160195,-9.865080000000001,0,0,39.28749,1,1,7766,3883
5510,14342756,2,-0.0008427959,0.001166557,0.002539992,-0.1972964,-0.09146566,-9.861644,0,0,39.28756,1,1,7766,3883
5513,14344615,2,-0.0005233014999999999,0.001083423,0.003101037,-0.194085,-0.09134326,-9.862807999999999,0,0,39.2876,1,1,7766,3883
5516,14347130,2,-0.0001691913,0.001288059,0.003254105,-0.1922653,-0.09201431,-9.865129,0,0,39.28761,1,1,7766,3883
5519,14350433,2,-0.0003511152,0.0009203866999999999,0.003543165,-0.1926452,-0.09155872,-9.864966000000001,0,0,39.28762,1,1,7766,3883
5550,14352530,2,-0.0001512455,0.0004893697,0.002721554,-0.194464,-0.08588266999999999,-9.857742,0,0,39.28765,1,1,7766,3883
5553,14355883,2,0.0007243811,0.0005429071,0.002248579,-0.1961138,-0.08161568,-9.851322,0,0,39.28767,1,1,7766,3883
5557,14357915,2,0.0009715044,0.0004482115,0.001264634,-0.1982315,-0.07925785,-9.845027,0,0,39.28771,1,1,7766,3883
5560,14360989,2,0.0009930729999999999,0.000573153,0.001141199,-0.2001732,-0.07774079,-9.838782,0,0,39.28773,1,1,7766,3883
5591,14363341,2,0.001634131,0.0007550682,0.0005242921999999999,-0.2058219,-0.07795898,-9.825955,0,0,39.28783,1,1,7766,3883
5596,14366268,2,0.00115763,-0.0002624167,-0.0005382829,-0.2090545,-0.07839734,-9.821358,0,0,39.28789,1,1,7766,3883
5599,14368559,2,0.00124054,-0.002261259,-0.0003332136,-0.2129203,-0.07959202,-9.820435,0,0,39.28796,1,1,7766,3883
5602,14372068,2,0.001538831,-0.002441978,0.0005269398,-0.2145887,-0.08197532,-9.823639,0,0,39.28801,1,1,7766,3883
5605,14373875,2,0.001411528,-0.001492226,0.0004850102,-0.2151196,-0.08683115,-9.829575999999999,0,0,39.28806,1,1,7766,3883
5636,14376428,2,0.001024283,-0.001705104,-0.0006698692,-0.2124703,-0.08800611999999999,-9.833144000000001,0,0,39.28813,1,1,7766,3883
5640,14378999,2,0.0004064603,-0.001890963,-0.001615969,-0.2090611,-0.08684485,-9.832196,0,0,39.28815,1,1,7766,3883
5643,14381495,2,-0.0009291219,-0.002329869,-0.001290778,-0.2041571,-0.08398285,-9.830626000000001,0,0,39.28818,1,1,7766,3883
5646,14384990,2,-0.001073131,-0.002212565,-0.001380789,-0.2029318,-0.08326712999999999,-9.830652000000001,0,0,39.28819,1,1,7766,3883
5649,14389512,2,0.0003866613,-0.0003092442,-0.001092079,-0.1997008,-0.0772171,-9.828334,0,0,39.28815,1,1,7766,3883
5680,14391900,2,0.0002067785,0.0001947844,-0.0005235452,-0.1999583,-0.07614285,-9.826976,0,0,39.28814,1,1,7766,3883
5683,14394338,2,-0.0005741086,0.0002575706,3.595416e-05,-0.2008752,-0.07743814,-9.827337,0,0,39.28811,1,1,7766,3883
5686,14397422,2,-0.001216057,-3.971488e-05,-0.0001759959,-0.2029157,-0.08032468,-9.828011,0,0,39.28807,1,1,7766,3883
5689,14399960,2,-0.0005885118,-0.0003082963,-0.0005021013,-0.2038894,-0.08109088,-9.828531,0,0,39.28802,1,1,7766,3883
5720,14402261,2,0.000611376,0.0004085377,-0.0021865,-0.2009102,-0.07898102999999999,-9.833570999999999,0,0,39.28794,1,1,7766,3883
5724,14404918,2,-0.0003327975,0.001248877,-0.002566417,-0.1977209,-0.07637935999999999,-9.838063,0,0,39.28791,1,1,7766,3883
5727,14407519,2,-0.001760426,0.002347844,-0.002266823,-0.1943634,-0.07459728,-9.841924000000001,0,0,39.28788,1,1,7766,3883
5730,14410464,2,-0.001251254,0.002215627,-0.002128782,-0.1914183,-0.07454002,-9.846881,0,0,39.28786,1,1,7766,3883
5761,14413396,2,-0.0007949024,0.001896139,-0.00239826,-0.19101,-0.07775881,-9.849779,0,0,39.28786,1,1,7766,3883
5765,14415566,2,-0.001507333,0.002120818,-0.002446715,-0.1908471,-0.07982776,-9.852148,0,0,39.28788,1,1,7766,3883
5768,14418097,2,-0.001654082,0.001578727,-0.002672104,-0.1909511,-0.08050752,-9.854233000000001,0,0,39.2879,1,1,7766,3883
5773,14420950,2,-0.001222298,0.001166783,-0.002750902,-0.19026,-0.08068681,-9.856081,0,0,39.28798,1,1,7766,3883
5804,14423734,2,-0.001476659,0.0004076197,-0.002480997,-0.1905017,-0.07947012000000001,-9.856854,0,0,39.28806,1,1,7766,3883
5807,14426115,2,-0.001519755,0.0006445835,-0.002945362,-0.1912344,-0.07823626,-9.856541999999999,0,0,39.2881,1,1,7766,3883
5810,14428948,2,-0.001456006,0.00122526,-0.002991048,-0.1903221,-0.07954264,-9.854774000000001,0,0,39.28815,1,1,7766,3883
5813,14431029,2,-0.0009726956,0.001487699,-0.002843389,-0.1895946,-0.08137944,-9.854412,0,0,39.28819,1,1,7766,3883
5844,14433527,2,-0.0005081885,0.0007941364,-0.003030725,-0.1875871,-0.08295742,-9.857206,0,0,39.28823,1,1,7766,3883
5848,14436839,2,-0.0004254643,0.0002116345,-0.002943362,-0.1855436,-0.08386832,-9.861098999999999,0,0,39.28826,1,1,7766,3883
5851,14438455,2,-0.0006210342,-2.109021e-05,-0.002175085,-0.1843841,-0.08352939,-9.867272,0,0,39.28831,1,1,7766,3883
5858,14441254,2,-0.0008788956,0.0001033129,-0.0009205103,-0.1855547,-0.08323617,-9.870430000000001,0,0,39.28835,1,1,7766,3883
5889,14444060,2,-0.0007760058999999999,0.0003156782,8.821032999999999e-05,-0.1868942,-0.08170689,-9.873571,0,0,39.28842,1,1,7766,3883
5893,14445977,2,-0.0004897722,0.0007571599,-0.0008172454,-0.1888157,-0.0801753,-9.8727,0,0,39.28845,1,1,7766,3883
5896,14448913,2,-0.0004439065,0.0008330117,-0.001207683,-0.1911574,-0.07836092,-9.867578999999999,0,0,39.28849,1,1,7766,3883
5901,14451118,2,-0.001511884,0.0002546738,-0.0006576136999999999,-0.1935114,-0.07578398,-9.859946000000001,0,0,39.28855,1,1,7766,3883
5932,14454087,2,-0.0018345,-0.0002688,3.840955e-05,-0.1954259,-0.07342234,-9.84915,0,0,39.28859,1,1,7766,3883
5935,14456354,2,-0.001684231,-0.0003814252,0.0001737723,-0.1956473,-0.07322983,-9.846045,0,0,39.28861,1,1,7766,3883
5938,14458259,2,-0.001359827,-7.045684e-05,0.001243317,-0.194641,-0.07172486,-9.846484999999999,0,0,39.28865,1,1,7766,3883
5942,14461360,2,-0.0007844759,0.0008857943,0.0009960391,-0.1925268,-0.06993765,-9.848998999999999,0,0,39.28866,1,1,7766,3883
5973,14463529,2,-0.0006396509000000001,0.001783303,0.0004886573,-0.1878206,-0.06810557,-9.851549,0,0,39.28865,1,1,7766,3883
5977,14466315,2,-0.00125024,0.001949683,-0.0007842679,-0.1844175,-0.06794465,-9.850386,0,0,39.28864,1,1,7766,3883
5980,14468919,2,-0.0001617623,0.002231557,-0.001998385,-0.1800021,-0.07012744999999999,-9.846792000000001,0,0,39.28862,1,1,7766,3883
5983,14471687,2,0.0001385286,0.002326083,-0.00122232,-0.1783275,-0.07274849,-9.844768,0,0,39.28857,1,1,7766,3883
6014,14474503,2,-0.0005366315,0.001821729,0.0008794084,-0.1763633,-0.07805809,-9.841849,0,0,39.28851,1,1,7766,3883
6017,14476968,2,-0.001713115,0.0006881499,0.001837673,-0.1726975,-0.08354187,-9.842414,0,0,39.28844,1,1,7766,3883
6020,14479270,2,-0.002031755,0.000428479,0.002387032,-0.1697883,-0.08651238,-9.843957,0,0,39.2884,1,1,7766,3883
6023,14481574,2,-0.002298366,-0.0003722787,0.002282089,-0.1682587,-0.08807477,-9.845056,0,0,39.2883,1,1,7766,3883
6054,14484444,2,-0.002448994,-0.0005385142,0.002403636,-0.1674208,-0.08938633999999999,-9.846536,0,0,39.28825,1,1,7766,3883
6059,14489329,2,-0.003945349,-0.001489392,0.002662418,-0.1641886,-0.09109965,-9.847279,0,0,39.28805,1,1,7766,3883
6062,14491517,2,-0.003928786,-0.002347295,0.002231773,-0.1623319,-0.09027404,-9.847481999999999,0,0,39.28798,1,1,7766,3883
6093,14495529,2,-0.003454384,-0.002779596,0.001399325,-0.1610958,-0.08933453,-9.848333999999999,0,0,39.28791,1,1,7766,3883
6096,14497543,2,-0.001839497,-0.001436905,0.000871747,-0.1594052,-0.08767663000000001,-9.85162,0,0,39.28782,1,1,7766,3883
6100,14499954,2,-0.0008452724999999999,-0.0008805183,0.0008100793,-0.1611121,-0.08640137000000001,-9.858257,0,0,39.28772,1,1,7766,3883
6103,14502255,2,-0.0005524742,-0.0008366334,0.000668727,-0.163518,-0.08573732000000001,-9.861501000000001,0,0,39.28766,1,1,7766,3883
6134,14504443,2,-4.958535e-05,-0.001419419,0.001003103,-0.1690018,-0.082681,-9.863605,0,0,39.28752,1,1,7766,3883
6137,14507334,2,-0.0003881017,-0.001689122,0.001861597,-0.173417,-0.08004,-9.862409,0,0,39.28745,1,1,7766,3883
6140,14510319,2,-0.00206801,-0.0009912460000000001,0.002974191,-0.1797708,-0.07621656,-9.857901999999999,0,0,39.28736,1,1,7766,3883
6143,14512132,2,-0.002337239,-0.0004491159,0.002298708,-0.1813342,-0.07545619000000001,-9.856211,0,0,39.28731,1,1,7766,3883
6174,14514438,2,-0.00203229,3.622782e-05,0.001347852,-0.183922,-0.07572634,-9.852326,0,0,39.28724,1,1,7766,3883
6177,14517233,2,-0.002218675,0.0003688224,0.001336473,-0.1849962,-0.07758656,-9.852911000000001,0,0,39.2872,1,1,7766,3883
6181,14520218,2,-0.002577354,0.001119733,0.001588612,-0.1867153,-0.0815058,-9.856636,0,0,39.28712,1,1,7766,3883
6184,14522472,2,-0.003108683,0.0007608959999999999,0.001369902,-0.1876274,-0.08410159,-9.858131999999999,0,0,39.28709,1,1,7766,3883
6215,14525484,2,-0.002982355,-0.0006046579,0.0003881815,-0.1888999,-0.08628508,-9.861814000000001,0,0,39.28703,1,1,7766,3883
6218,14526945,2,-0.00245866,-0.001584696,-0.0001709121,-0.1888233,-0.087857,-9.863174000000001,0,0,39.287,1,1,7766,3883
6221,14529801,2,-0.00176776,-0.002943914,-0.0009888962,-0.186696,-0.08853253,-9.864623,0,0,39.28696,1,1,7766,3883
6224,14532504,2,-0.001250052,-0.002548837,-0.0009428792000000001,-0.1863043,-0.08735643,-9.865634,0,0,39.28692,1,1,7766,3883
6255,14535243,2,-0.0009907498,-0.001944841,-0.000464682,-0.1885482,-0.08518302,-9.862916999999999,0,0,39.28684,1,1,7766,3883
6258,14538123,2,1.083601e-05,-0.002492612,-0.0006881458,-0.1899977,-0.08252269,-9.856113000000001,0,0,39.28678,1,1,7766,3883
6262,14540284,2,0.000305406,-0.002472357,-0.001333536,-0.1908681,-0.08019403999999999,-9.853146000000001,0,0,39.28669,1,1,7766,3883
6269,14542674,2,0.0001089122,-0.001977481,-0.001544383,-0.192336,-0.07748462,-9.852078000000001,0,0,39.28659,1,1,7766,3883
6300,14545910,2,0.0001365844,-0.001496749,-0.000641253,-0.1926064,-0.07714888,-9.85225,0,0,39.28654,1,1,7766,3883
6303,14547535,2,0.0003971126,-0.00105055,0.000515411,-0.1927123,-0.07813505,-9.854478,0,0,39.28646,1,1,7766,3883
6306,14550573,2,0.000589166,-0.0007008467,0.0007863863,-0.1924325,-0.07979985000000001,-9.857142,0,0,39.28642,1,1,7766,3883
6309,14552337,2,0.0002642088,-0.0004667243,0.0007127647,-0.1913765,-0.08188204,-9.861617000000001,0,0,39.28633,1,1,7766,3883
6340,14555628,2,-0.0001762878,0.000433784,-0.0005035872,-0.1916985,-0.08318610999999999,-9.865977000000001,0,0,39.28628,1,1,7766,3883
6343,14557558,2,-0.0008593435,0.0008612352,-0.002390517,-0.1945587,-0.08590323,-9.873343,0,0,39.28622,1,1,7766,3883
6348,14560109,2,-0.001236324,0.0002781332,-0.002642296,-0.1971023,-0.08739748999999999,-9.876984999999999,0,0,39.28618,1,1,7766,3883
6351,14562917,2,-0.00105724,-0.0001783791,-0.003098802,-0.201912,-0.08799586,-9.877058,0,0,39.28612,1,1,7766,3883
6382,14565327,2,-0.0008942737,0.0002933461,-0.002076994,-0.2067986,-0.08706701999999999,-9.872508,0,0,39.28604,1,1,7766,3883
6385,14568264,2,-0.00191406,-0.0004349464,-0.002048478,-0.2089768,-0.08600461,-9.867972999999999,0,0,39.28599,1,1,7766,3883
6389,14570357,2,-0.001940805,-0.0008178547,-0.001938836,-0.2110994,-0.08427484,-9.864758999999999,0,0,39.28592,1,1,7766,3883
6392,14572511,2,-0.0005115502,-0.0003684321,-0.001303803,-0.213194,-0.08157929,-9.862686,0,0,39.28584,1,1,7766,3883
6423,14575376,2,0.0001965936,-0.0001540075,-0.0008304023,-0.2146485,-0.07851363,-9.861763,0,0,39.28578,1,1,7766,3883
6427,14577762,2,0.0002767105,0.0001307383,5.644118e-05,-0.2153514,-0.07339304000000001,-9.862375,0,0,39.28573,1,1,7766,3883
6430,14580361,2,6.600098000000001e-05,0.000195728,0.0001286107,-0.21559,-0.06887467,-9.862569000000001,0,0,39.28569,1,1,7766,3883
6433,14585120,2,-0.0002189231,0.0008513934,-0.000459607,-0.2096692,-0.06091385,-9.860484,0,0,39.28561,1,1,7766,3883
6464,14590899,2,0.00021996,0.001270781,0.001590035,-0.2060935,-0.05954988,-9.853662999999999,0,0,39.2855,1,1,7766,3883
6468,14593503,2,0.001074811,0.0009933354000000001,0.001166071,-0.2062109,-0.06105521,-9.853871,0,0,39.28544,1,1,7766,3883
6471,14595858,2,0.000938692,0.0001217391,3.514074e-05,-0.204346,-0.06253967000000001,-9.855793999999999,0,0,39.28534,1,1,7766,3883
6502,14598253,2,5.58979e-05,-0.0002379791,-0.0001134387,-0.2016276,-0.06247254,-9.856064,0,0,39.2853,1,1,7766,3883
6505,14601263,2,0.0007541023,-0.0001998169,-0.0003675856,-0.1975641,-0.06338868,-9.856598999999999,0,0,39.28522,1,1,7766,3883
6508,14603237,2,0.000916343,-0.0002144052,0.000436946,-0.1954329,-0.06433403,-9.856089000000001,0,0,39.28516,1,1,7766,3883
6511,14606074,2,0.0007014023000000001,-4.78539e-05,-1.305109e-05,-0.1941304,-0.06542683000000001,-9.853572,0,0,39.28509,1,1,7766,3883
6542,14608252,2,0.0002643396,0.000270257,-0.0005206235,-0.1934717,-0.0650994,-9.849430999999999,0,0,39.28502,1,1,7766,3883
6545,14611259,2,-0.0005787726,0.0005794724,-0.0008290611,-0.1940569,-0.06419250999999999,-9.844946,0,0,39.28498,1,1,7766,3883
6549,14613583,2,-0.001478115,-0.0005623542,-0.0006599081,-0.1963201,-0.06391959,-9.840528000000001,0,0,39.28494,1,1,7766,3883
6552,14616259,2,-0.001731801,-0.001823545,0.0004462195,-0.1984178,-0.06530175000000001,-9.840558,0,0,39.28491,1,1,7766,3883
6583,14619048,2,-0.001970601,-0.003082482,0.001186943,-0.2006874,-0.06999236,-9.841089999999999,0,0,39.28488,1,1,7766,3883
6586,14620950,2,-0.002608078,-0.002689956,0.001735085,-0.2008321,-0.07365354,-9.842936999999999,0,0,39.28487,1,1,7766,3883
6590,14624001,2,-0.001237198,-0.00104344,0.001578084,-0.1993732,-0.07981903,-9.847061999999999,0,0,39.28487,1,1,7766,3883
6593,14626238,2,0.0002746002,-0.0001398528,0.001460598,-0.1998184,-0.08298419,-9.849818000000001,0,0,39.28488,1,1,7766,3883
6624,14628333,2,0.001675314,-0.0001355309,0.00142214,-0.2007724,-0.08668329,-9.851062000000001,0,0,39.2849,1,1,7766,3883
6627,14631274,2,0.002161139,-0.0004681654,0.001017031,-0.1999946,-0.08724870999999999,-9.851053,0,0,39.28493,1,1,7766,3883
6631,14633917,2,0.00108451,-0.0004748696,-0.000251853,-0.1960796,-0.08758655999999999,-9.850268,0,0,39.28499,1,1,7766,3883
6634,14636914,2,0.0005550445,-0.0002992931,-4.915696e-05,-0.1936786,-0.08660674,-9.848507,0,0,39.28503,1,1,7766,3883
6665,14639283,2,-0.0004593856,-0.0004543649,0.0002661844,-0.1917496,-0.08503022,-9.846793,0,0,39.28509,1,1,7766,3883
6668,14641924,2,-0.0007277285,-0.0008539135,0.0002748694,-0.188354,-0.08364220999999999,-9.850554000000001,0,0,39.28514,1,1,7766,3883
6676,14644509,2,-0.00076194,-0.001037861,0.0007030331,-0.18621,-0.08258918,-9.854260999999999,0,0,39.28518,1,1,7766,3883
6679,14647077,2,-0.001062027,-0.001421675,0.0006180585,-0.1834307,-0.08090606,-9.855252,0,0,39.28523,1,1,7766,3883
6710,14650055,2,-0.001669754,-0.001466345,0.0002093919,-0.1827837,-0.08057427,-9.852494,0,0,39.28529,1,1,7766,3883
6713,14651875,2,-0.001799233,-0.0009962230000000001,0.0004212744,-0.1846928,-0.08113728000000001,-9.851775999999999,0,0,39.28533,1,1,7766,3883
6718,14654570,2,-0.001456198,-0.0004831845,0.0006391647,-0.1867914,-0.08137371,-9.851896999999999,0,0,39.28537,1,1,7766,3883
6721,14657018,2,0.0004707005,-0.000116436,0.0001315904,-0.1887953,-0.08203594,-9.853013000000001,0,0,39.28545,1,1,7766,3883
6752,14660020,2,0.001248394,-0.0003588944,0.0001394994,-0.1881993,-0.08408042,-9.853071999999999,0,0,39.28551,1,1,7766,3883
6755,14662362,2,0.0004410213,-0.0005089085,0.0008558342,-0.1866316,-0.08499987000000001,-9.852895,0,0,39.28555,1,1,7766,3883
6759,14664465,2,-0.0006928322,-0.0009739288,0.00157797,-0.1855523,-0.08563057,-9.852214999999999,0,0,39.2856,1,1,7766,3883
6762,14666756,2,-0.0017247,-0.001415577,0.0009287836,-0.1853863,-0.08833251,-9.850080999999999,0,0,39.28567,1,1,7766,3883
6793,14669118,2,-0.002155441,-0.001694724,0.0009821503000000001,-0.1855904,-0.08954962,-9.848898999999999,0,0,39.28572,1,1,7766,3883
6796,14672019,2,-0.001486197,-0.00107954,0.0007611776,-0.1857273,-0.093544,-9.846265000000001,0,0,39.28578,1,1,7766,3883
6802,14674541,2,-0.001143099,-0.0009491429999999999,0.0004019732,-0.1855263,-0.09534582,-9.846498,0,0,39.28583,1,1,7766,3883
6805,14676888,2,9.99953e-05,-0.001036266,-0.0004249194,-0.1864621,-0.0978541,-9.847075999999999,0,0,39.28588,1,1,7766,3883
6836,14679071,2,0.0005966778,-0.002334163,4.151298e-05,-0.1871459,-0.09847996000000001,-9.848971000000001,0,0,39.28593,1,1,7766,3883
6839,14681890,2,-0.0006383247,-0.003021789,0.0009770117000000001,-0.1870615,-0.09731097,-9.852257,0,0,39.28598,1,1,7766,3883
6842,14688214,2,-0.001629425,-0.001472462,0.002308899,-0.1872985,-0.09054702000000001,-9.853980999999999,0,0,39.28612,1,1,7766,3883
6845,14689884,2,-0.00173233,-0.0005068842,0.001965685,-0.1857591,-0.08517534,-9.854082999999999,0,0,39.28619,1,1,7766,3883
6876,14692314,2,-0.001834819,-0.000129731,0.0006464687,-0.1859207,-0.08229997999999999,-9.856263,0,0,39.28627,1,1,7766,3883
6880,14694506,2,-0.00183239,-7.047531e-05,0.0001453164,-0.1878625,-0.08090827,-9.857666999999999,0,0,39.28633,1,1,7766,3883
6883,14697774,2,-0.001510754,-0.0003372017,0.0002328405,-0.1895957,-0.0799868,-9.858558,0,0,39.2864,1,1,7766,3883
6886,14699962,2,-0.001263954,-7.05073e-05,-0.0002325185,-0.1922641,-0.08150969,-9.860008000000001,0,0,39.2865,1,1,7766,3883
6917,14703049,2,-0.001586847,-0.0002532267,-0.0009347463,-0.1933954,-0.08335452,-9.862142,0,0,39.2866,1,1,7766,3883
6920,14704869,2,-0.001489165,-0.000282873,-0.0006440998,-0.1932047,-0.08588899999999999,-9.862634999999999,0,0,39.28668,1,1,7766,3883
6923,14707119,2,-0.001054055,-0.0001070367,-1.302485e-05,-0.1912569,-0.08800034,-9.862781999999999,0,0,39.28676,1,1,7766,3883
6926,14710266,2,-0.001245279,-4.990834e-05,0.0009815939000000001,-0.1868234,-0.08846759,-9.862881,0,0,39.28689,1,1,7766,3883
6957,14712449,2,-0.001353701,-0.00107173,0.0003741896,-0.1825508,-0.08551697,-9.864091,0,0,39.28705,1,1,7766,3883
6961,14715544,2,-0.001356942,-0.001363283,-0.0004853385,-0.1802987,-0.08281861,-9.864468,0,0,39.28712,1,1,7766,3883
6964,14717957,2,-0.002572612,-0.0005991301000000001,-0.001746137,-0.177881,-0.07975321,-9.862947,0,0,39.28724,1,1,7766,3883
6967,14720542,2,-0.002761145,-0.0002587542,-0.002614298,-0.1762269,-0.07945821,-9.860272,0,0,39.28732,1,1,7766,3883
6998,14722896,2,-0.001951705,-6.624799000000001e-05,-0.002959644,-0.1747109,-0.08081355,-9.856938,0,0,39.28745,1,1,7766,3883
7001,14725498,2,-0.0007735449,2.817082e-05,-0.003848661,-0.1737647,-0.08280434,-9.856183,0,0,39.28757,1,1,7766,3883
7004,14728531,2,-0.001068063,-4.829307e-05,-0.003372411,-0.1738174,-0.08482755,-9.854367999999999,0,0,39.28764,1,1,7766,3883
7007,14730865,2,-0.00197759,0.0002929498,-0.002177141,-0.1743105,-0.08748839999999999,-9.854924,0,0,39.28773,1,1,7766,3883
7038,14733471,2,-0.001625152,0.0008021572,-0.001411358,-0.1738509,-0.08776359,-9.85627,0,0,39.28779,1,1,7766,3883
7042,14735867,2,-0.0006644361000000001,0.0004319796,-0.0002465004,-0.1728713,-0.08793829,-9.860785,0,0,39.28786,1,1,7766,3883
7045,14738091,2,-0.0005619616999999999,0.000289543,-2.017885e-06,-0.1738606,-0.08834007000000001,-9.862287999999999,0,0,39.28791,1,1,7766,3883
7049,14741098,2,-0.0008113059,0.0002070671,0.0005524055,-0.1758003,-0.08801392,-9.863467,0,0,39.28801,1,1,7766,3883
7080,14743551,2,-0.002727887,-0.0007437371,-0.002117248,-0.1753146,-0.08763746,-9.863868999999999,0,0,39.28809,1,1,7766,3883
7087,14746441,2,-0.003786771,-0.001731235,-0.002494526,-0.1750249,-0.0864273,-9.863143000000001,0,0,39.28814,1,1,7766,3883
7090,14748890,2,-0.003571905,-0.001942905,-0.001726651,-0.1755569,-0.08362316,-9.863922000000001,0,0,39.28825,1,1,7766,3883
7093,14751514,2,-0.002186175,-0.002136831,-0.0009561250000000001,-0.1766101,-0.08179609,-9.862182000000001,0,0,39.28831,1,1,7766,3883
7124,14754095,2,-0.0005205619,-0.00184482,0.0003331658,-0.1796517,-0.07752058000000001,-9.855810999999999,0,0,39.28849,1,1,7766,3883
7128,14756740,2,-0.0001062548,-0.001860539,0.001084128,-0.1821491,-0.07259778,-9.847391,0,0,39.28864,1,1,7766,3883
7131,14759726,2,0.0002221534,-0.001498547,0.001398978,-0.1842654,-0.06979997,-9.842031,0,0,39.28873,1,1,7766,3883
7134,14761470,2,-0.0003367328,-0.00154763,0.001324228,-0.1869502,-0.06730132,-9.839387,0,0,39.28883,1,1,7766,3883
7165,14764770,2,-0.000800533,-0.002627866,0.001432486,-0.1916682,-0.06293785,-9.838609999999999,0,0,39.28897,1,1,7766,3883
7169,14767118,2,-0.001014775,-0.003079351,0.001466258,-0.1955175,-0.06053741,-9.838317999999999,0,0,39.28903,1,1,7766,3883
7172,14769490,2,-0.000679219,-0.003348945,0.0003677985,-0.2003458,-0.05751335,-9.841004,0,0,39.28916,1,1,7766,3883
7175,14772534,2,-0.0001568752,-0.002529188,-8.892158e-05,-0.2011547,-0.05793858,-9.839352,0,0,39.28922,1,1,7766,3883
7208,14775090,2,-0.0002020452,-0.0008671918,-0.0007871657,-0.1981951,-0.06229576,-9.835267999999999,0,0,39.28935,1,1,7766,3883
7212,14778015,2,0.0002283275,-0.000566203,-0.0008641621,-0.1956258,-0.06724792,-9.829062,0,0,39.28946,1,1,7766,3883
7215,14780373,2,0.0006390518,-0.001472594,-0.0008155361,-0.1957155,-0.06823666,-9.826900999999999,0,0,39.28957,1,1,7766,3883
7218,14783048,2,0.0005178705,-0.002207762,0.0004683953,-0.1981827,-0.06893423,-9.826276999999999,0,0,39.28971,1,1,7766,3883
7249,14788410,2,0.0004136189,-0.002653734,0.002513733,-0.2047237,-0.0747367,-9.831629,0,0,39.28993,1,1,7766,3883
7253,14790567,2,0.0005036241,-0.002174193,0.001986099,-0.2074859,-0.07772606999999999,-9.833729,0,0,39.29002,1,1,7766,3883
7256,14796773,2,0.001677316,0.0007591958,0.001129163,-0.2107112,-0.07586574,-9.839382000000001,0,0,39.29021,1,1,7766,3883
7287,14799556,2,0.002520009,0.001028711,0.000331221,-0.2132441,-0.07174084999999999,-9.845694,0,0,39.29031,1,1,7766,3883
7290,14801865,2,0.003278039,4.932823e-05,-0.0002026693,-0.213025,-0.0680658,-9.850947,0,0,39.29042,1,1,7766,3883
7294,14804551,2,0.002897279,-0.0003971322,-0.0008451964,-0.21154,-0.06778414000000001,-9.854411000000001,0,0,39.29048,1,1,7766,3883
7297,14807229,2,0.002228138,-0.0007752789,-0.001799485,-0.2094729,-0.06726217,-9.861485,0,0,39.2906,1,1,7766,3883
7328,14809887,2,0.002287487,-0.001191789,-0.0002869059,-0.2079385,-0.06736968,-9.866771999999999,0,0,39.29071,1,1,7766,3883
7332,14812100,2,0.002260337,-0.001220761,0.0002769257,-0.207096,-0.06829067,-9.869965000000001,0,0,39.29079,1,1,7766,3883
7335,14814741,2,0.00148726,-0.0002766318,0.0007659086,-0.205952,-0.07079199,-9.871242000000001,0,0,39.29091,1,1,7766,3883
7338,14817311,2,0.001635857,-0.0003721807,0.0007024801,-0.2050394,-0.07309852999999999,-9.870122,0,0,39.29097,1,1,7766,3883
7369,14820352,2,0.002231987,-0.0009662221,0.0006457788,-0.2030028,-0.07632586,-9.865231,0,0,39.2911,1,1,7766,3883
7373,14822546,2,0.002447887,-0.001173839,0.001094575,-0.2011418,-0.07847295999999999,-9.861226,0,0,39.29115,1,1,7766,3883
7376,14824449,2,0.002050846,-0.0008722974,0.0006913761,-0.1999183,-0.07869147,-9.858145,0,0,39.29124,1,1,7766,3883
7379,14827081,2,0.001870582,-0.001112026,-3.996227e-05,-0.1994217,-0.07771778,-9.856496,0,0,39.29128,1,1,7766,3883
7410,14829941,2,0.001459775,-0.001389691,-0.0001481364,-0.1990943,-0.07650371,-9.854898,0,0,39.2914,1,1,7766,3883
7413,14832520,2,0.001661799,-0.001514522,0.0001196325,-0.1998574,-0.07586913000000001,-9.85416,0,0,39.29146,1,1,7766,3883
7416,14834975,2,0.003552784,-0.0009706388,-0.0003119101,-0.201116,-0.07605720000000001,-9.850031,0,0,39.2916,1,1,7766,3883
7419,14837356,2,0.004988579,-0.001072295,-0.0003271303,-0.1995009,-0.07654423,-9.840572999999999,0,0,39.29167,1,1,7766,3883
7450,14840107,2,0.009645028,-0.002037553,-0.00119259,-0.1883928,-0.07823977999999999,-9.809362999999999,0,0,39.29185,1,1,7766,3883
7454,14842279,2,0.01583554,-0.002562468,-0.002588266,-0.1708748,-0.08160137000000001,-9.773580000000001,0,0,39.29196,1,1,7766,3883
7458,14845000,2,0.02739384,-0.00362971,-0.004420422,-0.1242999,-0.09563573,-9.704599,0,0,39.29212,1,1,7766,3883
7461,14847713,2,0.03281529,-0.00382044,-0.005522494,-0.07833703,-0.1135076,-9.657519000000001,0,0,39.29222,1,1,7766,3883
7496,14850506,2,0.03937747,-0.003236111,-0.007087294,0.01033433,-0.1545596,-9.594408,0,0,39.2924,1,1,7766,3883
7499,14852493,2,0.05011918,0.001314138,-0.01088928,0.1131027,-0.2184663,-9.543936,0,0,39.29253,1,1,7766,3883
7503,14855490,2,0.05555226,0.002626484,-0.01511166,0.1825785,-0.272738,-9.520683999999999,0,0,39.29261,1,1,7766,3883
7506,14857884,2,0.0567684,0.002908049,-0.02212104,0.2440998,-0.3353921,-9.509368,0,0,39.29274,1,1,7766,3883
7539,14861292,2,0.05265116,0.004444847,-0.02620022,0.2916343,-0.4041729,-9.513308,0,0,39.29284,1,1,7766,3883
7543,14862915,2,0.04768926,0.005073976,-0.03005487,0.3242834,-0.5070183,-9.551595000000001,0,0,39.29298,1,1,7766,3883
7546,14865231,2,0.04578582,0.003458701,-0.03257793,0.3139508,-0.5646349000000001,-9.594810000000001,0,0,39.29307,1,1,7766,3883
7549,14868008,2,0.04685245,0.0005356998,-0.03469463,0.2509237,-0.6196631,-9.669847000000001,0,0,39.29321,1,1,7766,3883
7580,14870507,2,0.0434478,-0.0002701609,-0.03680089,0.1450517,-0.621865,-9.737854,0,0,39.29336,1,1,7766,3883
7583,14873087,2,0.03906946,-0.002872711,-0.03700841,0.05916073,-0.5894428,-9.774715,0,0,39.29346,1,1,7766,3883
7586,14875315,2,0.03841223,-0.005577994,-0.03648506,-0.03111448,-0.5312907,-9.80748,0,0,39.29359,1,1,7766,3883
7589,14877923,2,0.04790934,-0.00579169,-0.03447619,-0.1541718,-0.4052362,-9.854153999999999,0,0,39.29384,1,1,7766,3883
7620,14881557,2,0.05652602,-0.007202234,-0.03248245,-0.236996,-0.2543802,-9.920161,0,0,39.29412,1,1,7766,3883
7623,14883550,2,0.0573878,-0.009952748000000001,-0.02955089,-0.263988,-0.1541048,-9.975091000000001,0,0,39.29425,1,1,7766,3883
7627,14886044,2,0.06232942,-0.01263185,-0.02608198,-0.2557299,-0.02817279,-10.05172,0,0,39.29443,1,1,7766,3883
7631,14888031,2,0.06972449,-0.01365801,-0.02488536,-0.2218049,0.02827193,-10.09437,0,0,39.29462,1,1,7766,3883
7662,14890903,2,0.07508421999999999,-0.01630118,-0.02269612,-0.1755491,0.05972036,-10.13735,0,0,39.2949,1,1,7766,3883
7665,14893960,2,0.07264357,-0.01667567,-0.02161636,-0.1282111,0.06746815,-10.18273,0,0,39.29506,1,1,7766,3883
7669,14898468,2,0.04526499,-0.01978153,-0.01643995,-0.04398452,-0.03224749,-10.27197,0,0,39.29539,1,1,7766,3883
7700,14900898,2,0.04120266,-0.02372465,-0.01349951,-0.05063335,-0.08783541,-10.27125,0,0,39.2955,1,1,7766,3883
7704,14903899,2,0.0285762,-0.02605039,-0.009979310999999999,-0.09671494,-0.1666684,-10.24838,0,0,39.29567,1,1,7766,3883
7707,14906899,2,0.01446785,-0.02705978,-0.008430042,-0.1403073,-0.2091685,-10.21852,0,0,39.29578,1,1,7766,3883
7710,14909722,2,-0.003187979,-0.03340353,-0.004852583,-0.2111386,-0.2449502,-10.16652,0,0,39.29594,1,1,7766,3883
7713,14911071,2,-0.007946740000000001,-0.0367168,-0.0019163,-0.2539738,-0.2445753,-10.139,0,0,39.29604,1,1,7766,3883
7744,14913468,2,-0.007241863,-0.03427936,0.0009837184999999999,-0.2911769,-0.2109874,-10.1053,0,0,39.2962,1,1,7766,3883
7748,14916061,2,-0.006690433,-0.03116965,0.002143041,-0.2941155,-0.168845,-10.08069,0,0,39.29631,1,1,7766,3883
7751,14919231,2,-0.01233397,-0.03142669,0.005338798,-0.2762977,-0.08468974,-10.04587,0,0,39.29648,1,1,7766,3883
7754,14921527,2,-0.01838236,-0.03328948,0.007681924,-0.2675651,-0.05407839,-10.03682,0,0,39.29665,1,1,7766,3883
7785,14923893,2,-0.02324745,-0.03236317,0.01064603,-0.2424656,0.0349659,-10.01154,0,0,39.29691,1,1,7766,3883
7788,14926467,2,-0.02180287,-0.03067047,0.0125083,-0.2413473,0.1067803,-9.985514999999999,0,0,39.29711,1,1,7766,3883
7791,14929939,2,-0.02144704,-0.02862253,0.01494315,-0.2664943,0.1414974,-9.965961999999999,0,0,39.29724,1,1,7766,3883
7794,14931448,2,-0.02708863,-0.02761654,0.0176631,-0.3449949,0.1750377,-9.915298,0,0,39.2975,1,1,7766,3883
7825,14934366,2,-0.03125885,-0.02741925,0.01890031,-0.4193094,0.1848156,-9.8634,0,0,39.29762,1,1,7761,3880
7829,14936525,2,-0.03427608,-0.02473924,0.02342344,-0.5495903,0.1854208,-9.771570000000001,0,0,39.29786,1,1,7761,3880
7832,14939264,2,-0.03550428,-0.022311,0.02811549,-0.6320414,0.1802386,-9.712374000000001,0,0,39.29797,1,1,7761,3880
7835,14941945,2,-0.03825836,-0.01952509,0.03362479,-0.7222657,0.1706215,-9.633964000000001,0,0,39.29818,1,1,7761,3880
7866,14944943,2,-0.0401244,-0.0152275,0.03596722,-0.7520149,0.1635064,-9.567776,0,0,39.29838,1,1,7761,3880
7870,14947010,2,-0.04071397,-0.0122336,0.03707674,-0.7324715000000001,0.1616602,-9.534280000000001,0,0,39.29848,1,1,7761,3880
7873,14949510,2,-0.0457401,-0.007310198,0.03658346,-0.6851152,0.1630515,-9.516757,0,0,39.29868,1,1,7761,3880
7881,14952991,2,-0.049194,-0.001790851,0.03570584,-0.6172307,0.1679851,-9.515787,0,0,39.29878,1,1,7761,3880
7884,14954293,2,-0.04982528,0.003336631,0.0346803,-0.4942784,0.1782408,-9.527604,0,0,39.29899,1,1,7761,3880
7915,14957599,2,-0.04702925,0.004351983,0.03387924,-0.4116592,0.1840066,-9.537419999999999,0,0,39.2991,1,1,7761,3880
7918,14959290,2,-0.0420678,0.002103869,0.03156101,-0.3124147,0.1903511,-9.558296,0,0,39.2993,1,1,7761,3880
7921,14962010,2,-0.04136725,0.002690069,0.0284002,-0.2712928,0.1927477,-9.576186999999999,0,0,39.2994,1,1,7761,3880
7924,14964994,2,-0.04113909,0.006305357,0.02506978,-0.2509178,0.1909609,-9.591272,0,0,39.29954,1,1,7761,3880
7955,14967215,2,-0.03717306,0.01097835,0.01922662,-0.2707853,0.1688936,-9.618881999999999,0,0,39.29972,1,1,7761,3880
7959,14970002,2,-0.03627026,0.009859089,0.01626049,-0.3045345,0.150016,-9.651275,0,0,39.2998,1,1,7761,3880
7962,14972879,2,-0.03887979,0.01114715,0.01199403,-0.3620193,0.111302,-9.729882,0,0,39.29995,1,1,7761,3880
7965,14975533,2,-0.0383408,0.01372074,0.009439826,-0.3928077,0.07735085,-9.788672999999999,0,0,39.30005,1,1,7761,3880
7996,14977992,2,-0.03214254,0.01474211,0.005877045,-0.4210838,0.01773989,-9.881387,0,0,39.30027,1,1,7761,3880
7999,14980839,2,-0.02990896,0.01362187,0.000794579,-0.425943,-0.02517924,-9.956491,0,0,39.30043,1,1,7761,3880
8002,14983220,2,-0.03438877,0.01489074,-0.003177272,-0.4153715,-0.09136735999999999,-10.08906,0,0,39.30059,1,1,7761,3880
8005,14985960,2,-0.03969873,0.01729587,-0.006653439,-0.4026217,-0.1365318,-10.18209,0,0,39.30077,1,1,7761,3880
8036,14989496,2,-0.03850755,0.02086817,-0.009916935999999999,-0.3878578,-0.2047234,-10.3032,0,0,39.30088,1,1,7761,3880
8040,14990773,2,-0.02981232,0.02276386,-0.01135541,-0.3872063,-0.2514465,-10.35767,0,0,39.30095,1,1,7761,3880
8044,14993461,2,-0.02144691,0.02438415,-0.01259382,-0.3980321,-0.2988067,-10.38658,0,0,39.30103,1,1,7761,3880
8047,14996019,2,-0.01801527,0.02718586,-0.01211483,-0.4414291,-0.370686,-10.38237,0,0,39.30114,1,1,7761,3880
8078,15002205,2,-0.009299198999999999,0.02565051,-0.01094704,-0.6039306,-0.5171669,-10.26453,0,0,39.30133,1,1,7761,3880
8083,15004235,2,-0.0008882498,0.02616591,-0.01097407,-0.6549,-0.5699419,-10.21564,0,0,39.3014,1,1,7761,3880
8086,15006369,2,0.01051004,0.02882024,-0.009934385,-0.6992794,-0.654548,-10.12377,0,0,39.30149,1,1,7761,3880
8117,15009761,2,0.016211,0.02959637,-0.01012287,-0.6981298,-0.7169648,-10.04723,0,0,39.30156,1,1,7761,3880
8120,15011296,2,0.02045762,0.0283166,-0.01203035,-0.6478737,-0.818258,-9.926473,0,0,39.30169,1,1,7761,3880
8123,15014367,2,0.02132626,0.02692236,-0.01372039,-0.6203336,-0.8519192,-9.891044000000001,0,0,39.30176,1,1,7761,3880
8126,15016758,2,0.02213373,0.02621815,-0.01518152,-0.5154436999999999,-0.9505442,-9.812512999999999,0,0,39.30189,1,1,7761,3880
8157,15019045,2,0.02293868,0.02582573,-0.0167616,-0.4347654,-1.013948,-9.783139,0,0,39.30198,1,1,7761,3880
8160,15022104,2,0.02289489,0.02438066,-0.01841203,-0.3188942,-1.100999,-9.763609000000001,0,0,39.30206,1,1,7761,3880
8164,15024215,2,0.02013082,0.02341078,-0.01943848,-0.2575819,-1.151544,-9.763388000000001,0,0,39.30211,1,1,7761,3880
8167,15027030,2,0.01131542,0.02382256,-0.02254811,-0.203851,-1.210109,-9.782887000000001,0,0,39.30222,1,1,7761,3880
8198,15029272,2,0.004618221,0.02488498,-0.02448872,-0.2020517,-1.233381,-9.808908000000001,0,0,39.30231,1,1,7761,3880
8201,15031755,2,-0.002656702,0.02660364,-0.02467576,-0.2499791,-1.240632,-9.862386000000001,0,0,39.30236,1,1,7761,3880
8204,15034929,2,-0.005765289,0.02647405,-0.02239343,-0.3073584,-1.224084,-9.906314999999999,0,0,39.30242,1,1,7761,3880
8207,15037324,2,-0.01348295,0.02343567,-0.0170978,-0.4108737,-1.165677,-9.996560000000001,0,0,39.30249,1,1,7761,3880
8238,15039928,2,-0.02991072,0.01989317,-0.0106111,-0.5079429,-1.068339,-10.13036,0,0,39.30257,1,1,7761,3880
8241,15042297,2,-0.05188165,0.02180848,-0.00469019,-0.5685019,-0.942847,-10.29642,0,0,39.30267,1,1,7761,3880
8245,15045291,2,-0.06562903,0.02503396,-0.001516049,-0.577034,-0.8963616,-10.35486,0,0,39.30273,1,1,7761,3880
8249,15048072,2,-0.08258846,0.02972626,0.003233019,-0.5690584,-0.7461395,-10.51707,0,0,39.30286,1,1,7761,3880
8280,15051068,2,-0.09273735,0.03296427,0.007392024,-0.5211471,-0.5869575,-10.63175,0,0,39.30294,1,1,7761,3880
8283,15053118,2,-0.1043528,0.03473442,0.01348997,-0.4754181,-0.4784177,-10.66844,0,0,39.30299,1,1,7761,3880
8291,15056063,2,-0.1249163,0.03520869,0.02605919,-0.4094088,-0.3121695,-10.66382,0,0,39.3031,1,1,7761,3880
8296,15058507,2,-0.1388845,0.03489643,0.03610762,-0.3792116,-0.2034623,-10.63693,0,0,39.30315,1,1,7761,3880
8327,15061509,2,-0.1526973,0.03371845,0.04993103,-0.3642423,-0.05229998,-10.58663,0,0,39.30323,1,1,7761,3880
8330,15063510,2,-0.1623287,0.03497823,0.0606166,-0.3805389,0.07414579,-10.51662,0,0,39.30329,1,1,7761,3880
8335,15066552,2,-0.1696813,0.03646831,0.06767824,-0.3978245,0.1404274,-10.44371,0,0,39.30332,1,1,7761,3880
8338,15068647,2,-0.1843931,0.0382406,0.07577900999999999,-0.4105571,0.2110308,-10.29603,0,0,39.30337,1,1,7761,3880
8369,15071509,2,-0.1960848,0.03924583,0.08044832,-0.3983033,0.2368445,-10.18654,0,0,39.30338,1,1,7761,3880
8372,15073546,2,-0.2128947,0.04125592,0.08800110999999999,-0.3385254,0.2505819,-10.03026,0,0,39.30337,1,1,7761,3880
8376,15076085,2,-0.2205902,0.04258522,0.09375129,-0.2669684,0.2457874,-9.942182000000001,0,0,39.30336,1,1,7761,3880
8379,15078458,2,-0.2272587,0.04263267,0.100114,-0.1704295,0.2339977,-9.869605999999999,0,0,39.30334,1,1,7761,3880
8410,15080903,2,-0.2301756,0.04188335,0.1017983,-0.05517105,0.2200378,-9.815989,0,0,39.3033,1,1,7761,3880
8413,15083943,2,-0.2446354,0.0400496,0.1039574,0.133238,0.2094701,-9.77247,0,0,39.30326,1,1,7761,3880
8416,15086725,2,-0.2567867,0.04159386,0.1026584,0.2554415,0.2179576,-9.75944,0,0,39.30323,1,1,7761,3880
8419,15088709,2,-0.2692107,0.04551253,0.09780335,0.4104482,0.2570765,-9.745364,0,0,39.3032,1,1,7761,3880
8450,15091082,2,-0.2714247,0.04678486,0.09481247,0.4803126,0.3021556,-9.742352,0,0,39.30317,1,1,7761,3880
8453,15093711,2,-0.2760498,0.04917164,0.09144600999999999,0.523729,0.3992558,-9.762905999999999,0,0,39.30312,1,1,7761,3880
8458,15101494,2,-0.2783346,0.0524746,0.08375191999999999,0.411714,0.746308,-9.99105,0,0,39.303,1,1,7761,3880
8490,15104486,2,-0.2708715,0.05081532,0.0801231,0.387013,0.8314777,-10.10173,0,0,39.30297,1,1,7761,3880
8494,15106848,2,-0.2696371,0.05244177,0.07431166,0.3904113,0.94336,-10.27732,0,0,39.30292,1,1,7761,3880
8497,15109940,2,-0.2703067,0.05362775,0.07226595,0.4042548,0.973429,-10.33068,0,0,39.30289,1,1,7761,3880
8500,15112261,2,-0.2696539,0.05719553,0.06503452999999999,0.4782196,1.035843,-10.46877,0,0,39.30284,1,1,7761,3880
8531,15114449,2,-0.265677,0.06282973,0.05793009,0.575129,1.048818,-10.59327,0,0,39.3028,1,1,7761,3880
8534,15117311,2,-0.2684814,0.0676481,0.05461486,0.6317059,1.025381,-10.67882,0,0,39.30275,1,1,7761,3880
8537,15119931,2,-0.2816356,0.07476642999999999,0.05139173,0.6755077,0.941728,-10.80642,0,0,39.30267,1,1,7761,3880
8540,15122501,2,-0.2894048,0.07681101999999999,0.04986788,0.6664757,0.8568226,-10.885,0,0,39.30264,1,1,7761,3880
8571,15125331,2,-0.2984635,0.07483231,0.04935683,0.5913737,0.6978939,-10.99372,0,0,39.30263,1,1,7761,3880
8575,15127204,2,-0.3064213,0.07234624000000001,0.0510511,0.5078214,0.584492,-11.0558,0,0,39.30263,1,1,7761,3880
8578,15129764,2,-0.3227255,0.07138680999999999,0.05607053,0.3552797,0.4237463,-11.1169,0,0,39.30264,1,1,7761,3880
8582,15132096,2,-0.3342762,0.07149135,0.06033627,0.2531729,0.3326879,-11.12838,0,0,39.30264,1,1,7761,3880
8613,15135096,2,-0.3485463,0.06814503,0.0656747,0.1227755,0.2347547,-11.11301,0,0,39.30266,1,1,7761,3880
8616,15137887,2,-0.356615,0.06628681,0.06810943999999999,0.08835532,0.2133756,-11.10493,0,0,39.30268,1,1,7761,3880
8619,15139899,2,-0.370826,0.06935746,0.07031761,0.003711885,0.183081,-11.08756,0,0,39.30273,1,1,7761,3880
8622,15141972,2,-0.3756957,0.07120591,0.07152753000000001,-0.00497921,0.1882903,-11.08783,0,0,39.30276,1,1,7761,3880
8653,15144440,2,-0.3880011,0.07290931,0.07694671,-0.01289345,0.2256511,-11.09734,0,0,39.30282,1,1,7761,3880
8657,15147127,2,-0.3941593,0.06853972999999999,0.08117902,-0.01360764,0.2616923,-11.11184,0,0,39.30286,1,1,7761,3880
8660,15150260,2,-0.4011663,0.05833681,0.08716570999999999,-0.02320666,0.3182072,-11.13308,0,0,39.30293,1,1,7761,3880
8663,15152300,2,-0.4034858,0.05163563,0.09216659000000001,-0.04024027,0.3494678,-11.13226,0,0,39.303,1,1,7761,3880
8694,15155087,2,-0.4039526,0.04412037,0.1003452,-0.08982080000000001,0.374934,-11.10728,0,0,39.30312,1,1,7761,3880
8701,15157835,2,-0.4095089,0.04178407,0.1051766,-0.1432903,0.3763362,-11.08186,0,0,39.30317,1,1,7761,3880
8704,15159923,2,-0.4223173,0.04160447,0.1115806,-0.2515131,0.3587127,-11.03475,0,0,39.30328,1,1,7761,3880
8707,15162651,2,-0.4271721,0.03915714,0.1165766,-0.3351861,0.3359407,-10.99782,0,0,39.30333,1,1,7761,3880
8738,15165447,2,-0.4316406,0.03294608,0.1239255,-0.4673353,0.297161,-10.93554,0,0,39.30343,1,1,7761,3880
8742,15167523,2,-0.4454961,0.02810499,0.1297878,-0.5838950000000001,0.2700126,-10.86199,0,0,39.30351,1,1,7761,3880
8745,15170326,2,-0.4564953,0.0254644,0.1327233,-0.6147133,0.2655316,-10.8367,0,0,39.30357,1,1,7761,3880
8748,15172438,2,-0.465468,0.02567806,0.1351943,-0.6852013,0.2662332,-10.77103,0,0,39.3037,1,1,7761,3880
8779,15175561,2,-0.4745291,0.03824161,0.1381237,-0.7220704999999999,0.2973417,-10.71491,0,0,39.3038,1,1,7761,3880
8782,15178056,2,-0.4727323,0.0470246,0.1386632,-0.7221774,0.3370904,-10.66338,0,0,39.30387,1,1,7761,3880
8785,15180324,2,-0.4638502,0.0460052,0.1379654,-0.7028261,0.3890347,-10.60043,0,0,39.30394,1,1,7761,3880
8788,15182475,2,-0.4508149,0.02842679,0.1363392,-0.6474273,0.4852814,-10.51201,0,0,39.30407,1,1,7761,3880
8819,15184949,2,-0.4500638,0.02136142,0.1378065,-0.6007276,0.5561864,-10.47934,0,0,39.30416,1,1,7761,3880
8824,15187965,2,-0.4569698,0.03456043,0.146509,-0.5313065,0.6501983,-10.47959,0,0,39.3043,1,1,7761,3880
8827,15190665,2,-0.4569179,0.04955925,0.1534479,-0.4934563,0.6914732,-10.50446,0,0,39.3044,1,1,7761,3880
8830,15192449,2,-0.4496135,0.05492587,0.1593215,-0.4565264,0.7070017,-10.57245,0,0,39.30456,1,1,7761,3880
8861,15194932,2,-0.4442089,0.04975036,0.1605105,-0.4398645,0.6897393000000001,-10.59648,0,0,39.30464,1,1,7761,3880
8865,15197561,2,-0.4429715,0.04541223,0.1644824,-0.423284,0.6282904,-10.59379,0,0,39.30476,1,1,7761,3880
8869,15205838,2,-0.4664802,0.06027173,0.1972744,-0.3977715,0.4428926,-10.56007,0,0,39.30512,1,1,7761,3880
8900,15208092,2,-0.4647007,0.06018506,0.2083263,-0.3866009,0.4098989,-10.62359,0,0,39.30519,1,1,7761,3880
8904,15210905,2,-0.4698865,0.06326216,0.221779,-0.340048,0.4011268,-10.74121,0,0,39.30529,1,1,7761,3880
8907,15213574,2,-0.47238,0.06292298,0.2276124,-0.2838939,0.4225407,-10.7973,0,0,39.30539,1,1,7761,3880
8910,15216141,2,-0.4697591,0.06055196,0.2344104,-0.1735714,0.4983953,-10.8609,0,0,39.30555,1,1,7761,3880
8941,15218539,2,-0.4598067,0.0652981,0.244688,-0.04577748,0.6235535,-10.91474,0,0,39.30569,1,1,7761,3880
8945,15221256,2,-0.4499961,0.07070481000000001,0.2553287,0.03749223,0.7221304,-10.95282,0,0,39.3058,1,1,7761,3880
8948,15223502,2,-0.4357697,0.07807376000000001,0.274728,0.1436884,0.8684104,-11.01644,0,0,39.30603,1,1,7761,3880
8951,15226936,2,-0.4288321,0.07952471,0.2863669,0.1975107,0.9546421,-11.06016,0,0,39.30614,1,1,7761,3880
8982,15229839,2,-0.4193142,0.07671541,0.2991835,0.2451388,1.054009,-11.14297,0,0,39.30631,1,1,7761,3880
8985,15231922,2,-0.4104307,0.08188308,0.3094671,0.2551538,1.104169,-11.24681,0,0,39.30647,1,1,7761,3880
8988,15234269,2,-0.4048405,0.08769934,0.317064,0.2533552,1.109363,-11.27877,0,0,39.30658,1,1,7761,3880
8991,15237451,2,-0.4005999,0.09027861,0.3269734,0.2342245,1.093395,-11.35877,0,0,39.30673,1,1,7761,3880
9022,15240295,2,-0.401812,0.09168113,0.3474552,0.2026257,1.042358,-11.43189,0,0,39.30692,1,1,7761,3880
9026,15242321,2,-0.4062968,0.09460336,0.3641329,0.1858361,0.9992874,-11.47978,0,0,39.30701,1,1,7761,3880
9029,15244954,2,-0.4092508,0.1008515,0.387514,0.1787251,0.9357714,-11.55076,0,0,39.30714,1,1,7761,3880
9032,15247752,2,-0.4079775,0.1051532,0.4009824,0.187593,0.9055608000000001,-11.59598,0,0,39.30729,1,1,7761,3880
9065,15250926,2,-0.4051161,0.1137175,0.4171904,0.218369,0.8894642,-11.65298,0,0,39.30743,1,1,7761,3880
9069,15252987,2,-0.4083274,0.1216938,0.4313745,0.2625711,0.9160036,-11.69818,0,0,39.30759,1,1,7761,3880
9072,15255134,2,-0.4109527,0.1271999,0.4431392,0.2899229,0.9584754,-11.72309,0,0,39.30769,1,1,7761,3880
9075,15257361,2,-0.407059,0.1344783,0.4572712,0.3132103,1.015097,-11.74276,0,0,39.30779,1,1,7761,3880
9110,15260350,2,-0.3917371,0.1418175,0.4821638,0.3416687,1.114683,-11.75822,0,0,39.30795,1,1,7761,3880
9113,15262933,2,-0.3817973,0.1412506,0.4983985,0.3556489,1.185426,-11.76068,0,0,39.30805,1,1,7761,3880
9116,15265366,2,-0.3738545,0.1395136,0.5184535,0.3664694,1.254432,-11.75989,0,0,39.3082,1,1,7761,3880
9120,15267316,2,-0.3710414,0.1455894,0.5314329,0.3762306,1.319004,-11.75761,0,0,39.30831,1,1,7761,3880
9153,15270215,2,-0.3663024,0.1583905,0.5444844,0.3952159,1.398472,-11.75113,0,0,39.30847,1,1,7761,3880
9157,15272503,2,-0.3576354,0.1770597,0.5626138000000001,0.4123338,1.435585,-11.74938,0,0,39.30859,1,1,7761,3880
9160,15275292,2,-0.3575441,0.1803291,0.5749311,0.4486263,1.46712,-11.75889,0,0,39.30876,1,1,7761,3880
9163,15277872,2,-0.3640011,0.1763339,0.5872236,0.4855883,1.4716,-11.77676,0,0,39.30886,1,1,7761,3880
9194,15280351,2,-0.3757865,0.1666223,0.6077249,0.5666538,1.464851,-11.81089,0,0,39.30901,1,1,7761,3880
9197,15282574,2,-0.3770932,0.1649653,0.6305685,0.6721476,1.453994,-11.85458,0,0,39.30916,1,1,7761,3880
9200,15285325,2,-0.3809142,0.1730555,0.6463948,0.7457395999999999,1.451222,-11.90331,0,0,39.30926,1,1,7761,3880
9203,15288226,2,-0.3943277,0.1931235,0.6675571,0.8527815,1.469517,-11.97874,0,0,39.30941,1,1,7761,3880
9234,15291054,2,-0.4002877,0.2011039,0.6843944,0.9305084,1.519051,-12.07684,0,0,39.30957,1,1,7761,3880
9238,15293251,2,-0.399691,0.2015752,0.6926867,0.9606339,1.577331,-12.15659,0,0,39.30966,1,1,7761,3880
9241,15295863,2,-0.3951382,0.2058991,0.7073682,0.9762664,1.655015,-12.23747,0,0,39.30981,1,1,7761,3880
9244,15298265,2,-0.3947328,0.2091277,0.7131447,0.9797238,1.745172,-12.3085,0,0,39.30991,1,1,7761,3880
9275,15306851,2,-0.3864202,0.2623492,0.774068,0.9633582000000001,2.117834,-12.48834,0,0,39.31053,1,1,7761,3880
9279,15309088,2,-0.37777,0.2779183,0.7876911,0.9674125,2.168518,-12.53877,0,0,39.3107,1,1,7761,3880
9312,15311880,2,-0.375477,0.2957741,0.8113728,0.9867562,2.215671,-12.61718,0,0,39.31091,1,1,7761,3880
9315,15314742,2,-0.3824415,0.3021656,0.8278208,1.011828,2.230874,-12.66503,0,0,39.31102,1,1,7761,3880
9318,15317445,2,-0.387479,0.3132663,0.8523655999999999,1.07083,2.235066,-12.72716,0,0,39.31126,1,1,7761,3880
9321,15319067,2,-0.3795357,0.327291,0.8687729,1.1254,2.230607,-12.76486,0,0,39.31138,1,1,7761,3880
9352,15321440,2,-0.3653894,0.3587838,0.8940469,1.223457,2.223204,-12.82376,0,0,39.31161,1,1,7761,3880
9355,15324246,2,-0.3650709,0.3800855,0.9103173,1.298012,2.221748,-12.85585,0,0,39.31172,1,1,7761,3880
9358,15327140,2,-0.3723921,0.3991173,0.9305753,1.380022,2.223321,-12.87599,0,0,39.31193,1,1,7761,3880
9362,15329686,2,-0.3718985,0.4047944,0.9411554,1.465982,2.227986,-12.89106,0,0,39.31208,1,1,7761,3880
9393,15331878,2,-0.3633782,0.4114311,0.9518747,1.593013,2.246216,-12.92878,0,0,39.31229,1,1,7761,3880
9396,15334429,2,-0.3436789,0.4266097,0.9696318,1.710132,2.279275,-12.98287,0,0,39.31243,1,1,7761,3880
9400,15337881,2,-0.3329051,0.4375421,0.9810985,1.778239,2.304644,-13.01833,0,0,39.31253,1,1,7761,3880
9404,15339885,2,-0.3215671,0.4539595,0.9973878,1.854794,2.342772,-13.07151,0,0,39.31271,1,1,7761,3880
9435,15342545,2,-0.3134809,0.4672341,1.007411,1.88392,2.36826,-13.11731,0,0,39.31279,1,1,7761,3880
9438,15344431,2,-0.2964373,0.4901674,1.021547,1.889993,2.402187,-13.21656,0,0,39.3129,1,1,7761,3880
9441,15347254,2,-0.2831101,0.5056985000000001,1.029518,1.872375,2.423797,-13.29384,0,0,39.31298,1,1,7761,3880
9444,15350135,2,-0.2631721,0.5215898,1.03762,1.830888,2.459918,-13.40344,0,0,39.31316,1,1,7761,3880
9475,15352332,2,-0.2485789,0.5321153,1.045001,1.788902,2.50184,-13.49429,0,0,39.31329,1,1,7761,3880
9478,15355445,2,-0.2389255,0.5419375,1.052363,1.771468,2.530482,-13.53462,0,0,39.31339,1,1,7761,3880
9481,15357931,2,-0.2139644,0.5565031,1.068629,1.770898,2.556137,-13.55564,0,0,39.31358,1,1,7761,3880
9485,15360721,2,-0.1924063,0.5620645,1.080073,1.788241,2.576045,-13.56727,0,0,39.31367,1,1,7761,3880
9520,15363340,2,-0.1728945,0.565053,1.091258,1.841616,2.595159,-13.60327,0,0,39.31382,1,1,7761,3880
9523,15365903,2,-0.1501299,0.5745322,1.110568,1.920261,2.601661,-13.67148,0,0,39.31394,1,1,7761,3880
9526,15368715,2,-0.1335066,0.5875255,1.123036,1.981974,2.596974,-13.72144,0,0,39.31402,1,1,7761,3880
9529,15370880,2,-0.1007113,0.6082124,1.139966,2.070511,2.576037,-13.79043,0,0,39.31414,1,1,7761,3880
9560,15373552,2,-0.07771556,0.6201267,1.150389,2.116898,2.554603,-13.82806,0,0,39.31424,1,1,7761,3880
9563,15375763,2,-0.04602213,0.6350393,1.168308,2.166553,2.506749,-13.85742,0,0,39.31434,1,1,7761,3880
9566,15378472,2,-0.03002741,0.6438237,1.181919,2.184469,2.461457,-13.86183,0,0,39.31441,1,1,7761,3880
9570,15380547,2,-0.009998844,0.6575954000000001,1.20362,2.183383,2.38139,-13.85145,0,0,39.31451,1,1,7761,3880
9601,15383290,2,0.009068823,0.6665925,1.217898,2.164513,2.325052,-13.84416,0,0,39.3146,1,1,7761,3880
9604,15386219,2,0.03947635,0.6795555,1.236692,2.115193,2.243861,-13.85963,0,0,39.31471,1,1,7761,3880
9607,15387970,2,0.05404363,0.6870805,1.248393,2.075371,2.200318,-13.87959,0,0,39.31479,1,1,7761,3880
9610,15391027,2,0.07401957000000001,0.6970857,1.264683,2.036451,2.168217,-13.89601,0,0,39.31491,1,1,7761,3880
9641,15393733,2,0.09418443999999999,0.7065856,1.274138,1.994185,2.138236,-13.90001,0,0,39.31508,1,1,7761,3880
9644,15395775,2,0.1202231,0.7188941,1.283591,1.982385,2.12794,-13.88597,0,0,39.31517,1,1,7761,3880
9647,15399304,2,0.1478319,0.7312519,1.29415,1.981851,2.126029,-13.86672,0,0,39.31525,1,1,7761,3880
9651,15400673,2,0.1829302,0.7468165,1.311543,1.99485,2.136246,-13.85705,0,0,39.31536,1,1,7761,3880
9682,15406437,2,0.2369179,0.7668437,1.348082,2.052118,2.157867,-13.90818,0,0,39.31556,1,1,7761,3880
9685,15409971,2,0.2796036,0.7766786,1.367564,2.103514,2.157211,-13.96107,0,0,39.31565,1,1,7761,3880
9688,15411261,2,0.3111624,0.7870796,1.387102,2.156178,2.147231,-14.0102,0,0,39.31574,1,1,7761,3880
9719,15413854,2,0.3244585,0.7933854,1.400396,2.191595,2.134657,-14.02914,0,0,39.31579,1,1,7761,3880
9722,15416320,2,0.3382952,0.7985066,1.413938,2.225619,2.115829,-14.03784,0,0,39.31584,1,1,7761,3880
9725,15419085,2,0.3668547,0.8036775,1.437183,2.273155,2.078132,-14.04696,0,0,39.3159,1,1,7761,3880
9728,15421717,2,0.3901875,0.8070493,1.45368,2.28864,2.063673,-14.05295,0,0,39.31598,1,1,7761,3880
9759,15424492,2,0.422522,0.814723,1.477821,2.333205,2.016988,-14.08445,0,0,39.31605,1,1,7761,3880
9762,15426284,2,0.4308883,0.8182546000000001,1.48539,2.361635,1.986633,-14.11572,0,0,39.31611,1,1,7761,3880
9766,15428921,2,0.4540218,0.8296915,1.50486,2.405946,1.953041,-14.16082,0,0,39.31619,1,1,7761,3880
9769,15431419,2,0.4755031,0.8354285,1.515588,2.438655,1.942842,-14.17725,0,0,39.31625,1,1,7761,3880
9800,15434119,2,0.5177209,0.8392790999999999,1.528755,2.491126,1.951234,-14.16847,0,0,39.31634,1,1,7761,3880
9804,15436886,2,0.5452947,0.8392761,1.537827,2.528054,1.976584,-14.14027,0,0,39.31643,1,1,7761,3880
9807,15438866,2,0.5824404,0.8381156,1.553947,2.583319,2.042068,-14.07153,0,0,39.3165,1,1,7761,3880
9810,15441310,2,0.609166,0.8395982,1.565673,2.616655,2.096867,-14.0182,0,0,39.31654,1,1,7761,3880
9841,15443553,2,0.6601834,0.844902,1.585348,2.659384,2.176487,-13.93855,0,0,39.31662,1,1,7761,3880
9844,15446867,2,0.7006276,0.8481301,1.598328,2.685758,2.218615,-13.88992,0,0,39.31665,1,1,7761,3880
9847,15448917,2,0.7555229999999999,0.8479286,1.614523,2.728156,2.25362,-13.81187,0,0,39.31669,1,1,7761,3880
9851,15451348,2,0.7853602,0.8465138,1.624113,2.761027,2.253387,-13.74857,0,0,39.3167,1,1,7761,3880
9884,15454434,2,0.8233568,0.8498051,1.637368,2.80084,2.233114,-13.67325,0,0,39.31668,1,1,7761,3880
9887,15456440,2,0.8486639,0.8537648,1.647451,2.849812,2.194972,-13.5832,0,0,39.31666,1,1,7761,3880
9890,15459263,2,0.8753993,0.8556848,1.659682,2.940004,2.112947,-13.43841,0,0,39.31661,1,1,7761,3880
9894,15461442,2,0.9005066,0.855008,1.673964,3.009874,2.048025,-13.34818,0,0,39.31659,1,1,7761,3880
9929,15464141,2,0.9273893,0.85205,1.696368,3.131913,1.941654,-13.23173,0,0,39.31655,1,1,7761,3880
9932,15466658,2,0.9369745,0.8491729,1.70985,3.224524,1.865898,-13.1662,0,0,39.31652,1,1,7761,3880
9935,15468774,2,0.946026,0.8440559,1.726767,3.372694,1.744204,-13.08973,0,0,39.31645,1,1,7761,3880
9939,15471877,2,0.9527401,0.8403497,1.735671,3.473309,1.658875,-13.05425,0,0,39.31643,1,1,7761,3880
9970,15474267,2,0.9655309,0.8316848,1.746792,3.620107,1.527718,-13.00933,0,0,39.31639,1,1,7761,3880
9974,15477128,2,0.9706391,0.8192844,1.75864,3.752824,1.389037,-12.95837,0,0,39.31635,1,1,7761,3880
9977,15479266,2,0.9665487,0.8108246,1.767069,3.829207,1.291427,-12.91522,0,0,39.31632,1,1,7761,3880
9981,15482121,2,0.9599673,0.8014308999999999,1.780374,3.894545,1.189093,-12.86661,0,0,39.31628,1,1,7761,3880
10012,15484937,2,0.9598635,0.7921313,1.792895,3.972064,1.024558,-12.7936,0,0,39.31625,1,1,7761,3880
10015,15487126,2,0.960656,0.788202,1.796422,4.01189,0.9045008,-12.75425,0,0,39.31625,1,1,7761,3880
10018,15489764,2,0.9541103,0.7765778,1.806708,4.051061,0.7118067,-12.71937,0,0,39.31626,1,1,7761,3880
10021,15491942,2,0.9441302,0.7718375,1.811677,4.064019,0.5822756,-12.69417,0,0,39.31627,1,1,7761,3880
10052,15495762,2,0.9338449,0.7624332,1.819312,4.063958,0.3948359,-12.63343,0,0,39.31627,1,1,7761,3880
10055,15497710,2,0.9289622,0.7497516,1.825755,4.049754,0.2838439,-12.58817,0,0,39.31628,1,1,7761,3880
10058,15499928,2,0.9197037,0.7277082,1.839837,4.009702,0.153604,-12.52462,0,0,39.31628,1,1,7761,3880
10062,15502079,2,0.9133664,0.7170800000000001,1.852993,3.978485,0.08936408,-12.47838,0,0,39.31628,1,1,7761,3880
10093,15504323,2,0.9112478000000001,0.7109172,1.872518,3.93727,0.02057371,-12.39576,0,0,39.31629,1,1,7761,3880
10096,15507866,2,0.9147748999999999,0.709579,1.883192,3.91459,-0.01108725,-12.333,0,0,39.31631,1,1,7761,3880
10099,15509951,2,0.9180504,0.7048642000000001,1.897267,3.887152,-0.04883673,-12.24211,0,0,39.31635,1,1,7761,3880
10102,15512869,2,0.9142084,0.6986719,1.907128,3.877681,-0.07574910999999999,-12.18592,0,0,39.31639,1,1,7761,3880
10133,15515207,2,0.9079887,0.6853503,1.923357,3.876992,-0.1071536,-12.13162,0,0,39.31644,1,1,7761,3880
10136,15518081,2,0.9081817,0.6753949,1.93524,3.89177,-0.1654204,-12.05303,0,0,39.31645,1,1,7761,3880
10139,15520511,2,0.9082729,0.667316,1.947561,3.907882,-0.2119228,-12.00293,0,0,39.31647,1,1,7761,3880
10143,15523247,2,0.9000204000000001,0.66129,1.967513,3.936121,-0.2864331,-11.92126,0,0,39.3165,1,1,7761,3880
10174,15525852,2,0.8867636,0.6552235,1.989295,3.962558,-0.3609771,-11.81367,0,0,39.31654,1,1,7761,3880
10177,15530864,2,0.8739669,0.6393902,2.023028,3.981966,-0.4590925,-11.57507,0,0,39.31662,1,1,7761,3880
10180,15533465,2,0.8645576,0.6327512,2.041471,3.973831,-0.4885551,-11.40464,0,0,39.31667,1,1,7761,3880
10211,15536487,2,0.8541347,0.630463,2.053619,3.961197,-0.4960101,-11.29008,0,0,39.31669,1,1,7761,3880
10214,15538918,2,0.8385239,0.6300392,2.070954,3.936754,-0.4945523,-11.13643,0,0,39.31673,1,1,7761,3880
10217,15541249,2,0.8318378,0.6309383,2.08256,3.921403,-0.4923437,-11.04973,0,0,39.31675,1,1,7761,3880
10221,15543423,2,0.820915,0.6316368999999999,2.099426,3.907023,-0.4986035,-10.93487,0,0,39.31679,1,1,7761,3880
10252,15545958,2,0.8104311,0.6285554,2.109474,3.905094,-0.5034602,-10.89763,0,0,39.31683,1,1,7761,3880
10256,15548978,2,0.7977514999999999,0.6219584,2.119614,3.912755,-0.5286574000000001,-10.78292,0,0,39.31689,1,1,7761,3880
10259,15551492,2,0.7830619,0.6147626,2.129915,3.929582,-0.5533783,-10.71036,0,0,39.31692,1,1,7761,3880
10263,15553344,2,0.7586328,0.6072693,2.146574,3.967046,-0.5962061,-10.62709,0,0,39.31698,1,1,7761,3880
10294,15556140,2,0.7420141,0.6049098000000001,2.159045,3.996267,-0.6275465,-10.59184,0,0,39.317,1,1,7761,3880
10297,15558369,2,0.7198151,0.6020184,2.176413,4.041317,-0.676774,-10.55872,0,0,39.31702,1,1,7761,3880
10300,15561459,2,0.7062868,0.5972847,2.187374,4.067202,-0.7063797000000001,-10.54364,0,0,39.31702,1,1,7761,3880
10303,15564125,2,0.6878902,0.5872489,2.204172,4.091165,-0.7351565,-10.52708,0,0,39.31705,1,1,7761,3880
10338,15567063,2,0.6727389,0.577112,2.223116,4.092993,-0.7340831,-10.50512,0,0,39.31707,1,1,7761,3880
10341,15569272,2,0.6652743,0.5698431,2.237722,4.081398,-0.7141714,-10.48132,0,0,39.31707,1,1,7761,3880
10344,15571475,2,0.6587851,0.560596,2.260944,4.042359,-0.656548,-10.43735,0,0,39.31709,1,1,7761,3880
10348,15574373,2,0.6541719,0.5571235,2.276339,4.001842,-0.6015841,-10.40481,0,0,39.31709,1,1,7761,3880
10379,15577511,2,0.648841,0.5545618,2.299654,3.951828,-0.5358533,-10.36975,0,0,39.31709,1,1,7761,3880
10382,15579038,2,0.6486165,0.552851,2.315812,3.895204,-0.4641399,-10.33242,0,0,39.31708,1,1,7761,3880
10385,15581583,2,0.6497034,0.5501419,2.331902,3.803727,-0.3566223,-10.27498,0,0,39.31707,1,1,7761,3880
10388,15584496,2,0.6512154,0.5459217,2.357059,3.741507,-0.2913557,-10.23635,0,0,39.31708,1,1,7761,3880
10419,15587457,2,0.6526231,0.5450751,2.374013,3.655125,-0.2136336,-10.18314,0,0,39.31708,1,1,7761,3880
10422,15589746,2,0.6546624,0.5458279,2.400229,3.588397,-0.1699488,-10.14343,0,0,39.3171,1,1,7761,3880
10425,15591776,2,0.656757,0.5466128,2.417218,3.557586,-0.1589537,-10.13071,0,0,39.31713,1,1,7761,3880
10429,15594348,2,0.6578406,0.5459887,2.441534,3.532107,-0.1651387,-10.13107,0,0,39.31718,1,1,7761,3880
10460,15597356,2,0.6563819,0.5449636,2.457115,3.529383,-0.1817356,-10.13851,0,0,39.31721,1,1,7761,3880
10463,15600214,2,0.6532786,0.5422954,2.480356,3.542671,-0.2192214,-10.15135,0,0,39.31725,1,1,7761,3880
10466,15602113,2,0.6507939,0.5397662,2.496607,3.558429,-0.2481163,-10.15532,0,0,39.31728,1,1,7761,3880
10469,15604362,2,0.6442671,0.5362142,2.522161,3.584582,-0.2899576,-10.15226,0,0,39.31731,1,1,7761,3880
10500,15606875,2,0.6391572,0.5336246,2.538621,3.59855,-0.3145302,-10.1478,0,0,39.31733,1,1,7761,3880
10503,15615275,2,0.6332229,0.5246082,2.596535,3.605411,-0.364687,-10.1222,0,0,39.31742,1,1,7761,3880
10535,15617558,2,0.6370198,0.5193613,2.620258,3.595054,-0.3641903,-10.09238,0,0,39.31745,1,1,7761,3880
10538,15620497,2,0.6393379,0.5158772,2.63513,3.591039,-0.3569859,-10.06746,0,0,39.31748,1,1,7761,3880
10541,15623502,2,0.6429236,0.5117966,2.656802,3.596978,-0.3358252,-10.02319,0,0,39.31752,1,1,7761,3880
10544,15625849,2,0.6478896,0.5089302999999999,2.670152,3.612233,-0.3156234,-9.989070999999999,0,0,39.31756,1,1,7761,3880
10575,15628044,2,0.6588874,0.5018322,2.685848,3.657289,-0.2793638,-9.938828000000001,0,0,39.31761,1,1,7761,3880
10579,15630767,2,0.6680827,0.4910108,2.69972,3.725668,-0.2429347,-9.900175000000001,0,0,39.31767,1,1,7761,3880
10582,15633254,2,0.6730465,0.4831453,2.707733,3.781483,-0.2181856,-9.883717000000001,0,0,39.3177,1,1,7761,3880
10585,15636476,2,0.6819801,0.4720506,2.719589,3.87194,-0.1788674,-9.875225,0,0,39.31774,1,1,7761,3880
10616,15639307,2,0.6966822,0.4609984,2.73249,3.962249,-0.1351971,-9.879066,0,0,39.31775,1,1,7761,3880
10619,15641497,2,0.7062743,0.4526275,2.739186,4.017146,-0.1028391,-9.885634,0,0,39.31775,1,1,7761,3880
10622,15644051,2,0.7134045,0.4434895,2.743903,4.063344,-0.06558508,-9.893011,0,0,39.31777,1,1,7761,3880
10625,15646891,2,0.7227103,0.4305726,2.750254,4.116281,-5.007907e-05,-9.897826,0,0,39.31778,1,1,7761,3880
10656,15649725,2,0.7316456,0.4230481,2.753748,4.140605,0.04796982,-9.897605,0,0,39.31779,1,1,7761,3880
10660,15651558,2,0.7520202,0.4131227,2.758132,4.159158,0.121712,-9.891871,0,0,39.31781,1,1,7761,3880
10663,15654473,2,0.7673445,0.4053583,2.7615,4.160622,0.1673936,-9.881955,0,0,39.3178,1,1,7761,3880
10666,15657275,2,0.7885318,0.3938455,2.769007,4.150146,0.2219855,-9.864706999999999,0,0,39.31776,1,1,7761,3880
10699,15660323,2,0.8110532,0.380672,2.778627,4.127976,0.2537723,-9.842822,0,0,39.31768,1,1,7761,3880
10702,15662467,2,0.8279392,0.3696892,2.78431,4.109535,0.2585843,-9.827931,0,0,39.31762,1,1,7761,3880
10705,15664483,2,0.8521566,0.3538072,2.790796,4.078899,0.2401596,-9.810703999999999,0,0,39.31751,1,1,7761,3880
10708,15667202,2,0.8666669,0.3466228,2.795196,4.056254,0.2112753,-9.797129,0,0,39.31743,1,1,7761,3880
10743,15670132,2,0.8868271,0.3409317,2.800092,4.031049,0.1682671,-9.774101999999999,0,0,39.31735,1,1,7761,3880
10747,15672467,2,0.8987635,0.3357856,2.802626,3.989187,0.08132449999999999,-9.726357,0,0,39.31729,1,1,7761,3880
10750,15674998,2,0.9072908,0.3278721,2.804509,3.957613,0.014217,-9.697042,0,0,39.31721,1,1,7761,3880
10755,15718476,2,1.201623,0.2221909,2.750573,3.670357,-0.4800634,-9.720382000000001,0,0,39.31623,1,1,7761,3880
10786,15721265,2,1.213065,0.2195219,2.748432,3.651785,-0.539593,-9.717978,0,0,39.31622,1,1,7761,3880
10791,15724221,2,1.22756,0.2156437,2.742728,3.611521,-0.6446592,-9.702854,0,0,39.3162,1,1,7761,3880
10794,15726735,2,1.236299,0.2135555,2.736925,3.575286,-0.7221859,-9.687416000000001,0,0,39.31619,1,1,7761,3880
10797,15728572,2,1.248799,0.213278,2.726888,3.530986,-0.8014726,-9.669871000000001,0,0,39.31617,1,1,7761,3880
10828,15731455,2,1.258973,0.2152837,2.718889,3.427729,-0.9565090000000001,-9.634626000000001,0,0,39.31616,1,1,7761,3880
10831,15733542,2,1.264568,0.2160777,2.713154,3.40177,-0.9944148,-9.626245000000001,0,0,39.31614,1,1,7761,3880
10834,15736765,2,1.269505,0.2144119,2.706923,3.35301,-1.06763,-9.613624,0,0,39.31611,1,1,7761,3880
10837,15738924,2,1.273404,0.2111425,2.70121,3.29363,-1.16728,-9.605525999999999,0,0,39.31608,1,1,7761,3880
10868,15741727,2,1.277893,0.2073598,2.69252,3.258284,-1.256361,-9.604882999999999,0,0,39.31606,1,1,7761,3880
10872,15743948,2,1.280915,0.2061506,2.685564,3.249125,-1.310254,-9.606204,0,0,39.31606,1,1,7761,3880
10875,15746309,2,1.283646,0.2044633,2.677992,3.249183,-1.361399,-9.610519,0,0,39.31604,1,1,7761,3880
10878,15749232,2,1.285882,0.201656,2.666842,3.256706,-1.436727,-9.627806,0,0,39.31602,1,1,7761,3880
10909,15752002,2,1.287389,0.2000551,2.658918,3.262814,-1.509524,-9.665125,0,0,39.31598,1,1,7761,3880
10913,15754331,2,1.28961,0.2000483,2.653818,3.262283,-1.554088,-9.70201,0,0,39.31595,1,1,7761,3880
10916,15756971,2,1.293542,0.1998431,2.64658,3.250262,-1.611935,-9.766147999999999,0,0,39.31591,1,1,7761,3880
10919,15759907,2,1.295335,0.1990404,2.641217,3.233998,-1.64257,-9.810162999999999,0,0,39.31588,1,1,7761,3880
10952,15762341,2,1.299289,0.1962449,2.630974,3.174854,-1.672515,-9.882173999999999,0,0,39.31582,1,1,7761,3880
10955,15765449,2,1.301293,0.1956718,2.628049,3.154601,-1.671606,-9.894168000000001,0,0,39.31579,1,1,7761,3880
10958,15767975,2,1.31474,0.1952579,2.61732,3.083921,-1.644922,-9.912788000000001,0,0,39.31572,1,1,7761,3880
10961,15770636,2,1.319713,0.1953464,2.61469,3.030193,-1.60782,-9.910724,0,0,39.31565,1,1,7761,3880
10996,15773356,2,1.337174,0.1954172,2.605873,2.946553,-1.521778,-9.891446,0,0,39.31556,1,1,7761,3880
11000,15775895,2,1.357816,0.1979012,2.595206,2.867531,-1.405224,-9.861908,0,0,39.31548,1,1,7761,3880
11003,15778120,2,1.37439,0.2011799,2.587461,2.819864,-1.31811,-9.838471999999999,0,0,39.31543,1,1,7761,3880
11006,15781074,2,1.402623,0.2079934,2.575342,2.761709,-1.186507,-9.794563,0,0,39.31536,1,1,7761,3880
11037,15783978,2,1.432393,0.2159469,2.561605,2.723094,-1.067917,-9.750325,0,0,39.31531,1,1,7761,3880
11040,15786346,2,1.451639,0.2211096,2.551686,2.707174,-1.005856,-9.722745,0,0,39.31528,1,1,7761,3880
11043,15788564,2,1.47942,0.2280087,2.537078,2.697482,-0.9500054,-9.687957000000001,0,0,39.31522,1,1,7761,3880
11046,15791459,2,1.496989,0.2318934,2.52654,2.697114,-0.9418873,-9.669691,0,0,39.31519,1,1,7761,3880
11077,15794281,2,1.521854,0.2365602,2.51071,2.703956,-0.9751198,-9.647868000000001,0,0,39.31512,1,1,7761,3880
11081,15796510,2,1.535264,0.2402003,2.499882,2.7117,-1.026114,-9.635554000000001,0,0,39.31508,1,1,7761,3880
11084,15799045,2,1.547868,0.246613,2.4825,2.723011,-1.140929,-9.6242,0,0,39.31504,1,1,7761,3880
11087,15801535,2,1.551362,0.2508727,2.469225,2.728019,-1.241642,-9.623583,0,0,39.31499,1,1,7761,3880
11118,15804297,2,1.550748,0.2550166,2.454616,2.731088,-1.358957,-9.634134,0,0,39.31495,1,1,7761,3880
11121,15807637,2,1.545197,0.2619435,2.430798,2.734588,-1.558282,-9.674860000000001,0,0,39.31495,1,1,7761,3880
11124,15809541,2,1.54005,0.2672663,2.414899,2.737216,-1.702467,-9.714354999999999,0,0,39.31495,1,1,7761,3880
11129,15811957,2,1.532305,0.2746926,2.392307,2.744053,-1.925569,-9.786757,0,0,39.31499,1,1,7761,3880
11161,15815960,2,1.521729,0.2797264,2.370217,2.756357,-2.145513,-9.861095000000001,0,0,39.31508,1,1,7761,3880
11165,15818124,2,1.506591,0.2832702,2.348536,2.775052,-2.349712,-9.930910000000001,0,0,39.31522,1,1,7761,3880
11168,15820354,2,1.49551,0.284102,2.333332,2.79033,-2.471043,-9.972920999999999,0,0,39.31529,1,1,7761,3880
11171,15822536,2,1.480266,0.2849109,2.30944,2.812691,-2.626141,-10.0352,0,0,39.31538,1,1,7761,3880
11202,15825460,2,1.472346,0.2857493,2.292208,2.819368,-2.66955,-10.0555,0,0,39.31542,1,1,7761,3880
11206,15827505,2,1.461605,0.2889274,2.265544,2.834263,-2.772456,-10.11221,0,0,39.3155,1,1,7761,3880
11209,15830567,2,1.457826,0.2911862,2.257188,2.835131,-2.816223,-10.15015,0,0,39.31555,1,1,7761,3880
11212,15832611,2,1.446791,0.2996199,2.232295,2.81962,-2.842615,-10.21367,0,0,39.31565,1,1,7761,3880
11243,15835307,2,1.441129,0.3056153,2.215265,2.797872,-2.835707,-10.25963,0,0,39.31574,1,1,7761,3880
11246,15837749,2,1.438803,0.3139507,2.189454,2.750393,-2.794601,-10.32855,0,0,39.31582,1,1,7761,3880
11249,15840534,2,1.44069,0.3178136,2.173339,2.712924,-2.749847,-10.37229,0,0,39.31591,1,1,7761,3880
11252,15842959,2,1.444474,0.3242857,2.152121,2.655706,-2.66145,-10.429,0,0,39.31598,1,1,7761,3880
11283,15845551,2,1.448594,0.331398,2.134541,2.601795,-2.551177,-10.46138,0,0,39.31609,1,1,7761,3880
11288,15847945,2,1.453682,0.335089,2.123116,2.568508,-2.470847,-10.46989,0,0,39.31613,1,1,7761,3880
11291,15850756,2,1.466298,0.341922,2.105202,2.521953,-2.34797,-10.47023,0,0,39.31618,1,1,7761,3880
11294,15853532,2,1.475862,0.3471892,2.092897,2.494403,-2.266898,-10.466,0,0,39.31622,1,1,7761,3880
11325,15856589,2,1.490294,0.3536288,2.07456,2.460704,-2.149845,-10.45841,0,0,39.31629,1,1,7761,3880
11328,15858539,2,1.506555,0.3612434,2.055646,2.442981,-2.074648,-10.45594,0,0,39.31637,1,1,7761,3880
11331,15860930,2,1.513288,0.3646683,2.049495,2.428749,-2.001001,-10.45735,0,0,39.31643,1,1,7761,3880
11334,15863420,2,1.535008,0.3762427,2.032223,2.415905,-1.895039,-10.45983,0,0,39.31656,1,1,7761,3880
11367,15866690,2,1.549574,0.383557,2.019983,2.410399,-1.828928,-10.46006,0,0,39.31663,1,1,7761,3880
11371,15868950,2,1.572085,0.3929656,1.999326,2.40353,-1.739979,-10.44715,0,0,39.31675,1,1,7761,3880
11374,15870891,2,1.587458,0.3988267,1.984976,2.399153,-1.689372,-10.42687,0,0,39.31683,1,1,7761,3880
11377,15873359,2,1.610079,0.4074832,1.964589,2.3914,-1.628915,-10.38388,0,0,39.317,1,1,7761,3880
11412,15876465,2,1.624433,0.4132002,1.951569,2.380969,-1.601671,-10.35171,0,0,39.31709,1,1,7761,3880
11416,15879084,2,1.641438,0.4223248,1.931024,2.353068,-1.583982,-10.30675,0,0,39.31722,1,1,7761,3880
11419,15881486,2,1.652405,0.4284537,1.917034,2.327765,-1.588292,-10.27653,0,0,39.3173,1,1,7761,3880
11422,15883326,2,1.67056,0.4372993,1.894831,2.283904,-1.619118,-10.22934,0,0,39.31744,1,1,7761,3880
11453,15886512,2,1.682441,0.4437973,1.880374,2.252835,-1.656845,-10.19834,0,0,39.31751,1,1,7761,3880
11457,15888354,2,1.697107,0.4552623,1.860602,2.223518,-1.708094,-10.16477,0,0,39.31769,1,1,7761,3880
11460,15891369,2,1.705832,0.4627973,1.848109,2.198654,-1.77049,-10.12845,0,0,39.31775,1,1,7761,3880
11463,15893911,2,1.714564,0.4692383,1.835235,2.174329,-1.883224,-10.07475,0,0,39.31788,1,1,7761,3880
11494,15896241,2,1.725233,0.4788576,1.817869,2.167484,-2.01667,-10.03164,0,0,39.31799,1,1,7761,3880
11498,15899053,2,1.727964,0.4860486,1.807112,2.171453,-2.112188,-10.01249,0,0,39.31804,1,1,7761,3880
11501,15901526,2,1.726185,0.4957675,1.789281,2.185768,-2.261316,-9.993048999999999,0,0,39.31813,1,1,7761,3880
11504,15904431,2,1.722763,0.501678,1.776938,2.196522,-2.360725,-9.983831,0,0,39.31819,1,1,7761,3880
11535,15907466,2,1.717357,0.5109569,1.759988,2.205287,-2.499424,-9.977748,0,0,39.31829,1,1,7761,3880
11538,15909472,2,1.712856,0.5229862,1.74202,2.198146,-2.616155,-9.978607,0,0,39.31838,1,1,7761,3880
11542,15912040,2,1.709611,0.5317877,1.730428,2.184421,-2.675609,-9.980299,0,0,39.31844,1,1,7761,3880
11545,15914481,2,1.706668,0.5399966,1.719113,2.164244,-2.71785,-9.981897999999999,0,0,39.31854,1,1,7761,3880
11576,15921209,2,1.707421,0.5612314,1.683597,2.087858,-2.734541,-9.985821,0,0,39.31871,1,1,7761,3880
11580,15923025,2,1.71753,0.573628,1.668179,2.066241,-2.707914,-9.986602,0,0,39.31879,1,1,7761,3880
11583,15925356,2,1.721621,0.577869,1.663507,2.051809,-2.669619,-9.984724,0,0,39.31887,1,1,7761,3880
11614,15928293,2,1.734487,0.5888884,1.649439,2.045886,-2.598235,-9.976437000000001,0,0,39.31896,1,1,7761,3880
11617,15930297,2,1.743864,0.5942746,1.639375,2.048582,-2.546352,-9.971038,0,0,39.31903,1,1,7761,3880
11620,15933140,2,1.758008,0.6015463,1.623977,2.059393,-2.469958,-9.97348,0,0,39.31911,1,1,7761,3880
11623,15935229,2,1.768396,0.6068376,1.613766,2.069544,-2.424552,-9.983644,0,0,39.31916,1,1,7758,3879
11654,15937772,2,1.783041,0.6163147,1.597617,2.086043,-2.368731,-10.00853,0,0,39.31929,1,1,7758,3879
11657,15940728,2,1.792234,0.6240027,1.589045,2.095542,-2.342029,-10.02409,0,0,39.31936,1,1,7758,3879
11661,15942497,2,1.801634,0.6354171,1.574845,2.104252,-2.31703,-10.03584,0,0,39.31945,1,1,7758,3879
11664,15945773,2,1.808037,0.6431274,1.565684,2.105103,-2.309927,-10.03343,0,0,39.31951,1,1,7758,3879
11695,15948098,2,1.820096,0.6541085,1.552013,2.098724,-2.307133,-10.00832,0,0,39.31962,1,1,7758,3879
11699,15951113,2,1.83485,0.6625103,1.536673,2.084452,-2.303565,-9.955026,0,0,39.3197,1,1,7758,3879
11703,15953503,2,1.844487,0.6682888,1.526453,2.078748,-2.300858,-9.933864,0,0,39.31978,1,1,7758,3879
11706,15955946,2,1.860378,0.6797273,1.512131,2.058361,-2.286159,-9.861846999999999,0,0,39.31987,1,1,7758,3879
11737,15958722,2,1.872003,0.689032,1.502667,2.034281,-2.265719,-9.780868999999999,0,0,39.31995,1,1,7758,3879
11740,15960890,2,1.883986,0.6990426,1.491474,2.017757,-2.255321,-9.724454,0,0,39.32002,1,1,7758,3879
11743,15963274,2,1.895434,0.7089685,1.478746,2.001547,-2.253101,-9.668936,0,0,39.32011,1,1,7758,3879
11746,15966266,2,1.909954,0.721838,1.458707,1.979897,-2.271904,-9.58792,0,0,39.32021,1,1,7758,3879
11777,15969275,2,1.919855,0.7359481,1.438276,1.965484,-2.332012,-9.506459,0,0,39.32031,1,1,7758,3879
11780,15971319,2,1.923298,0.7454797,1.423495,1.963171,-2.399018,-9.453339,0,0,39.32038,1,1,7758,3879
11784,15973543,2,1.924233,0.7600059,1.401147,1.974818,-2.543793,-9.379695999999999,0,0,39.32052,1,1,7758,3879
11787,15976267,2,1.921909,0.7698217000000001,1.385531,1.992299,-2.665793,-9.329729,0,0,39.32059,1,1,7758,3879
11822,15979766,2,1.912944,0.78415,1.361615,2.032144,-2.871796,-9.247285,0,0,39.32069,1,1,7758,3879
11825,15981858,2,1.902275,0.7919617,1.345062,2.066311,-3.019222,-9.185976,0,0,39.32078,1,1,7758,3879
11828,15983634,2,1.882061,0.8026642,1.320541,2.123533,-3.245572,-9.098623,0,0,39.32088,1,1,7758,3879
11831,15986227,2,1.866113,0.8094066,1.304445,2.142369,-3.319643,-9.074579,0,0,39.32094,1,1,7758,3879
11862,15988575,2,1.847407,0.8167148,1.288565,2.191736,-3.531471,-9.023121,0,0,39.32104,1,1,7758,3879
11865,15991902,2,1.826722,0.8247786,1.273332,2.216275,-3.661154,-9.004170999999999,0,0,39.32111,1,1,7758,3879
11869,15994073,2,1.795316,0.836952,1.250318,2.240516,-3.834249,-8.991021,0,0,39.32123,1,1,7758,3879
11872,15996375,2,1.775772,0.8440201000000001,1.234022,2.247807,-3.933702,-8.988443999999999,0,0,39.32129,1,1,7758,3879
11903,15998874,2,1.74708,0.8531489,1.208894,2.244625,-4.053978,-8.987168,0,0,39.3214,1,1,7758,3879
11907,16001330,2,1.72037,0.8621413999999999,1.187269,2.229737,-4.140094,-8.976706999999999,0,0,39.32149,1,1,7758,3879
11911,16004333,2,1.704281,0.8679225,1.174734,2.217411,-4.180393,-8.957502,0,0,39.32155,1,1,7758,3879
11914,16006649,2,1.684302,0.8770232,1.157791,2.195445,-4.213301,-8.906281,0,0,39.32164,1,1,7758,3879
11945,16009703,2,1.674148,0.8834903,1.147226,2.177382,-4.217195,-8.859076,0,0,39.32172,1,1,7758,3879
11948,16011519,2,1.662868,0.8938916,1.129159,2.142807,-4.196854,-8.784153999999999,0,0,39.32181,1,1,7758,3879
11951,16014263,2,1.656475,0.9001178,1.11669,2.12928,-4.183867,-8.760583,0,0,39.32187,1,1,7758,3879
11954,16018007,2,1.646054,0.9085912,1.099828,2.08489,-4.130623,-8.700545,0,0,39.32199,1,1,7758,3879
11957,16019281,2,1.640717,0.9155648,1.09056,2.035555,-4.060375,-8.659628,0,0,39.32209,1,1,7758,3879
11988,16023336,2,1.638724,0.9234613,1.080806,2.000084,-4.005599,-8.635094,0,0,39.32214,1,1,7758,3879
11991,16024989,2,1.641636,0.9353409,1.06587,1.942348,-3.914777,-8.591393999999999,0,0,39.32224,1,1,7758,3879
11995,16028248,2,1.644235,0.9468324,1.052411,1.877812,-3.81168,-8.530303,0,0,39.32234,1,1,7758,3879
11998,16030211,2,1.644837,0.9546057,1.044219,1.829536,-3.737405,-8.470476,0,0,39.3224,1,1,7758,3879
12029,16032885,2,1.649622,0.9662682,1.032519,1.752815,-3.618875,-8.350576,0,0,39.32249,1,1,7758,3879
12033,16035306,2,1.656641,0.9750131,1.025034,1.700224,-3.535946,-8.255893,0,0,39.32254,1,1,7758,3879
12036,16038111,2,1.671607,0.9890757999999999,1.014244,1.617014,-3.407799,-8.102321999999999,0,0,39.32266,1,1,7758,3879
12039,16040364,2,1.680692,1.000333,1.007538,1.557872,-3.323813,-8.001383000000001,0,0,39.32273,1,1,7758,3879
12070,16042982,2,1.693456,1.018976,0.9993309,1.465106,-3.208682,-7.857659,0,0,39.32278,1,1,7758,3879
12074,16045300,2,1.711245,1.036951,0.9914142,1.404018,-3.141512,-7.766972,0,0,39.32282,1,1,7758,3879
12077,16047885,2,1.723168,1.048149,0.9855447000000001,1.34569,-3.083476,-7.684071,0,0,39.32285,1,1,7758,3879
12082,16051052,2,1.727161,1.053968,0.9824768,1.290754,-3.037722,-7.616875,0,0,39.32286,1,1,7758,3879
12113,16053900,2,1.721226,1.076712,0.9703465999999999,1.190704,-3.000975,-7.539282,0,0,39.32293,1,1,7758,3879
12117,16056276,2,1.713511,1.088675,0.9662688,1.145949,-3.01727,-7.514138,0,0,39.32296,1,1,7758,3879
12120,16058937,2,1.717143,1.11023,0.959576,1.090662,-3.09296,-7.453104,0,0,39.323,1,1,7758,3879
12123,16061066,2,1.724218,1.123079,0.954383,1.064934,-3.173964,-7.387507,0,0,39.32302,1,1,7758,3879
12154,16063358,2,1.711982,1.136798,0.948401,1.03605,-3.325181,-7.270404,0,0,39.32305,1,1,7758,3879
12158,16066534,2,1.685995,1.146229,0.9464715,1.016282,-3.43382,-7.19359,0,0,39.32307,1,1,7758,3879
12161,16068288,2,1.648173,1.163973,0.9454515999999999,0.9832347,-3.590682,-7.096931,0,0,39.3231,1,1,7758,3879
12164,16071098,2,1.637341,1.175647,0.9443017,0.9570869,-3.678679,-7.05242,0,0,39.32312,1,1,7758,3879
12195,16073933,2,1.629995,1.191574,0.9420253,0.9148565,-3.763824,-7.008802,0,0,39.32315,1,1,7758,3879
12198,16076136,2,1.619225,1.202247,0.9411505,0.8898694,-3.779195,-6.969106,0,0,39.32318,1,1,7758,3879
12201,16079073,2,1.601791,1.214594,0.9396013,0.8711212,-3.75893,-6.901523,0,0,39.32324,1,1,7758,3879
12208,16081256,2,1.600409,1.219772,0.936528,0.8599005,-3.703471,-6.807047,0,0,39.32329,1,1,7758,3879
12241,16084071,2,1.608905,1.22655,0.9334659,0.8550375,-3.556779,-6.650145,0,0,39.32339,1,1,7758,3879
12246,16086972,2,1.622536,1.238331,0.9325933,0.8592533,-3.424005,-6.545493,0,0,39.32345,1,1,7758,3879
12249,16089321,2,1.645179,1.257924,0.9344513,0.8788304,-3.205689,-6.378981,0,0,39.3236,1,1,7758,3879
12252,16091425,2,1.658148,1.26609,0.9348116,0.8988983,-3.070081,-6.259433,0,0,39.32366,1,1,7758,3879
