LineNo,TimeUS,I,GyrX,GyrY,GyrZ,AccX,AccY,AccZ,EG,EA,T,GH,AH,GHz,AHz
183,4.4956e+07,1,-0.0059741,0.0020577,0.0030316,-0.23025,-0.10694,-9.8482,0,0,45.387,1,1,753,997
294,4.499e+07,1,-0.0056833,0.010297,0.0067382,-0.26166,-0.022906,-9.8153,0,0,45.387,1,1,753,997
410,4.5015e+07,1,0.0018762,0.0093058,-0.00026018,-0.28264,-0.0089272,-9.9187,0,0,45.387,1,1,753,997
441,4.5018e+07,1,0.00092218,0.0092242,0.0001716,-0.28505,-0.0088537,-9.889,0,0,45.387,1,1,753,997
521,4.5037e+07,1,0.0012496,0.0029777,0.0065186,-0.26472,-0.012678,-9.7616,0,0,45.387,1,1,753,997
636,4.5057e+07,1,0.010263,0.0048317,0.0036572,-0.3036,-0.037944,-9.8185,0,0,45.388,1,1,753,997
752,4.5078e+07,1,0.003914,0.0066434,0.0079786,-0.25083,-0.093103,-9.8121,0,0,45.388,1,1,753,997
867,4.5101e+07,1,0.0035348,0.0047389,0.0055928,-0.29106,-0.11743,-9.7012,0,0,45.388,1,1,753,997
898,4.5103e+07,1,0.0034137,0.0094942,0.0035105,-0.29209,-0.11879,-9.7087,0,0,45.388,1,1,753,997
979,4.5128e+07,1,-0.004023,0.014182,-0.0025125,-0.28285,-0.03394,-9.7785,0,0,45.389,1,1,753,997
1094,4.5179e+07,1,0.0029439,0.0062379,-0.00029278,-0.33199,-0.05007,-9.7855,0,0,45.389,1,1,753,997
1125,4.5182e+07,1,0.0058222,0.0051982,-0.00050806,-0.33664,-0.053337,-9.7727,0,0,45.389,1,1,753,997
1205,4.5259e+07,1,0.0030467,0.0047519,0.0024918,-0.27216,0.053241,-9.7487,0,0,45.39,1,1,753,997
1293,4.5304e+07,1,0.00026138,-0.0012891,0.0073186,-0.26951,-0.17256,-9.7204,0,0,45.39,1,1,753,997
1296,4.5306e+07,1,-2.4462e-05,-0.0016236,0.0073582,-0.2742,-0.18064,-9.7159,0,0,45.39,1,1,753,997
1327,4.5308e+07,1,-0.0032266,-0.0012445,0.0063342,-0.28005,-0.1547,-9.7267,0,0,45.391,1,1,753,997
1390,4.5323e+07,1,-0.0059442,0.011895,-0.00075591,-0.28034,0.0055843,-9.8095,0,0,45.391,1,1,753,997
1482,4.5338e+07,1,6.5221e-05,0.0041432,0.011966,-0.33182,-0.038493,-9.7514,0,0,45.391,1,1,753,997
1546,4.5343e+07,1,0.0025981,-0.00094026,0.0075653,-0.33452,-0.0070648,-9.6941,0,0,45.391,1,1,753,997
1549,4.5344e+07,1,0.001726,0.001159,0.0041772,-0.33431,0.0073545,-9.6784,0,0,45.391,1,1,753,997
1566,4.5359e+07,1,0.0024451,0.0064064,0.0045355,-0.31954,-0.061236,-9.6957,0,0,45.391,1,1,753,997
1569,4.5362e+07,1,0.0044505,0.0059548,0.0030548,-0.33152,-0.066994,-9.7084,0,0,45.391,1,1,753,997
1572,4.5365e+07,1,0.0067426,0.0071544,0.00060673,-0.34081,-0.064888,-9.7037,0,0,45.391,1,1,753,997
1603,4.5367e+07,1,0.007852,0.0054285,0.0016008,-0.35206,-0.070039,-9.6965,0,0,45.391,1,1,753,997
1606,4.537e+07,1,0.0099938,0.0049003,0.0054094,-0.37427,-0.074474,-9.7184,0,0,45.391,1,1,753,997
1610,4.5372e+07,1,0.010576,0.0056284,0.0064742,-0.38562,-0.075478,-9.7463,0,0,45.391,1,1,753,997
1614,4.5375e+07,1,0.0097961,0.0071861,0.0070977,-0.37388,-0.069747,-9.7687,0,0,45.391,1,1,753,997
1645,4.5378e+07,1,0.0075796,0.010672,0.0030964,-0.34232,-0.068872,-9.7523,0,0,45.391,1,1,753,997
1648,4.538e+07,1,0.0074673,0.012012,0.0020027,-0.32552,-0.069016,-9.7223,0,0,45.391,1,1,753,997
1651,4.5382e+07,1,0.0062643,0.013575,0.0024806,-0.31665,-0.071018,-9.7007,0,0,45.391,1,1,753,997
1655,4.5385e+07,1,0.0038577,0.01233,0.0031332,-0.32196,-0.074115,-9.695,0,0,45.391,1,1,753,997
1686,4.5388e+07,1,0.0038176,0.010696,0.00247,-0.32327,-0.067387,-9.6897,0,0,45.391,1,1,753,997
1689,4.5391e+07,1,0.0068968,0.011335,-0.0019315,-0.31854,-0.049428,-9.6698,0,0,45.391,1,1,753,997
1692,4.5392e+07,1,0.0074996,0.013473,-0.0025451,-0.31296,-0.04195,-9.6635,0,0,45.391,1,1,753,997
1695,4.5395e+07,1,0.007354,0.015989,-0.0028664,-0.30696,-0.030027,-9.6707,0,0,45.391,1,1,753,997
1726,4.5398e+07,1,0.0063746,0.011755,0.0008471,-0.28807,-0.03653,-9.6887,0,0,45.391,1,1,753,997
1729,4.54e+07,1,0.0056124,0.0091705,0.0024453,-0.27617,-0.045787,-9.7144,0,0,45.391,1,1,753,997
1732,4.5403e+07,1,0.0030933,0.0043087,0.0042623,-0.26969,-0.04681,-9.7416,0,0,45.391,1,1,753,997
1736,4.5405e+07,1,0.0026385,-0.0012326,0.0068404,-0.26227,-0.050277,-9.7727,0,0,45.391,1,1,753,997
1769,4.5408e+07,1,0.0034255,-0.0035961,0.0082017,-0.25094,-0.06663,-9.785,0,0,45.391,1,1,753,997
1772,4.541e+07,1,0.0048948,-0.0039611,0.00976,-0.23482,-0.091029,-9.8026,0,0,45.391,1,1,753,997
1775,4.5412e+07,1,0.0046851,-0.0023101,0.0089331,-0.23933,-0.1026,-9.8039,0,0,45.391,1,1,753,997
1778,4.5415e+07,1,-0.00072307,0.0017522,0.0043397,-0.26408,-0.12134,-9.8123,0,0,45.391,1,1,753,997
1809,4.5417e+07,1,-0.0035421,0.0038832,0.0019652,-0.29054,-0.13957,-9.8224,0,0,45.392,1,1,753,997
1812,4.542e+07,1,-0.0029222,0.0041399,0.0014892,-0.3057,-0.13055,-9.8298,0,0,45.392,1,1,753,997
1815,4.5423e+07,1,0.0023346,0.005499,0.0012265,-0.32064,-0.11994,-9.8365,0,0,45.392,1,1,753,997
1820,4.5425e+07,1,0.0038177,0.004479,0.00043525,-0.33595,-0.12509,-9.8348,0,0,45.392,1,1,753,997
1851,4.5428e+07,1,0.004077,0.00015812,-0.00046184,-0.36204,-0.1404,-9.8257,0,0,45.392,1,1,753,997
1854,4.543e+07,1,0.0024574,-0.00025934,0.00083016,-0.38107,-0.14383,-9.8055,0,0,45.392,1,1,753,997
1857,4.5433e+07,1,0.0012656,0.0041255,0.0013178,-0.40439,-0.13387,-9.7803,0,0,45.392,1,1,753,997
1860,4.5436e+07,1,0.0019055,0.0083234,0.0024419,-0.40181,-0.12476,-9.7772,0,0,45.392,1,1,753,997
1891,4.5438e+07,1,0.0017176,0.010692,0.0039418,-0.38303,-0.11403,-9.7762,0,0,45.392,1,1,753,997
1894,4.5441e+07,1,0.0016087,0.0093226,0.0044805,-0.38069,-0.095303,-9.7631,0,0,45.392,1,1,753,997
1897,4.5443e+07,1,0.0015179,0.0077137,0.0059332,-0.3845,-0.077782,-9.7574,0,0,45.392,1,1,753,997
1901,4.5446e+07,1,-0.00086211,0.0056924,0.0072147,-0.37605,-0.055911,-9.7529,0,0,45.392,1,1,753,997
1932,4.5449e+07,1,-0.0045226,0.0042743,0.0055164,-0.35919,-0.031034,-9.7355,0,0,45.392,1,1,753,997
1935,4.5451e+07,1,-0.0068561,0.0048772,0.0031662,-0.34929,-0.0237,-9.7198,0,0,45.392,1,1,753,997
1938,4.5454e+07,1,-0.0056143,0.0078228,0.0008422,-0.32641,-0.010011,-9.7207,0,0,45.392,1,1,753,997
1946,4.5457e+07,1,-0.0012226,0.010319,0.00064547,-0.30838,-0.0031797,-9.7197,0,0,45.392,1,1,753,997
1977,4.5459e+07,1,0.00064235,0.0093498,0.0011088,-0.29259,0.0021969,-9.7026,0,0,45.392,1,1,753,997
1980,4.5462e+07,1,0.00075918,0.0082726,0.0014245,-0.28404,0.0080888,-9.6746,0,0,45.392,1,1,753,997
1983,4.5464e+07,1,0.0010674,0.0082523,0.0018349,-0.28124,0.0086727,-9.6708,0,0,45.392,1,1,753,997
1986,4.5466e+07,1,0.0024134,0.0079142,0.002622,-0.28941,0.01044,-9.6827,0,0,45.392,1,1,753,997
2017,4.5469e+07,1,0.0032363,0.0074875,0.0025992,-0.30328,0.010779,-9.6881,0,0,45.392,1,1,753,997
2021,4.5472e+07,1,0.0038782,0.0025261,0.0019155,-0.31618,-0.0032581,-9.7024,0,0,45.392,1,1,753,997
2025,4.5474e+07,1,0.00317,0.00031637,0.00091522,-0.3031,-0.029376,-9.716,0,0,45.392,1,1,753,997
2029,4.5476e+07,1,0.001196,-0.00057033,9.5221e-05,-0.28148,-0.067104,-9.7221,0,0,45.392,1,1,753,997
2060,4.5479e+07,1,-0.00086685,0.0044372,-0.0024285,-0.29018,-0.076634,-9.7169,0,0,45.392,1,1,753,997
2063,4.5482e+07,1,-0.0028862,0.010635,-0.0033427,-0.33411,-0.076927,-9.6977,0,0,45.392,1,1,753,997
2066,4.5485e+07,1,-0.0034739,0.012873,-0.0019243,-0.3582,-0.087054,-9.6851,0,0,45.392,1,1,753,997
2069,4.5487e+07,1,-0.0020622,0.013191,-0.0017423,-0.37708,-0.11367,-9.6657,0,0,45.392,1,1,753,997
2100,4.5489e+07,1,-0.0012448,0.014732,-0.0020676,-0.3864,-0.13334,-9.6607,0,0,45.392,1,1,753,997
2103,4.5492e+07,1,-0.0028983,0.015727,-0.0014563,-0.38787,-0.13634,-9.6698,0,0,45.392,1,1,753,997
2106,4.5496e+07,1,-0.0056273,0.015917,-0.0014557,-0.38922,-0.12552,-9.694,0,0,45.392,1,1,753,997
2110,4.5499e+07,1,-0.0054405,0.01405,0.00089853,-0.38568,-0.10246,-9.7458,0,0,45.392,1,1,753,997
2113,4.55e+07,1,-0.0040282,0.011387,0.0023502,-0.38091,-0.086793,-9.7552,0,0,45.392,1,1,753,997
2144,4.5503e+07,1,-0.0040396,0.0098334,0.0016773,-0.36932,-0.060076,-9.7807,0,0,45.392,1,1,753,997
2147,4.5505e+07,1,-0.005437,0.0081721,0.0024331,-0.35663,-0.044863,-9.796,0,0,45.392,1,1,753,997
2150,4.5508e+07,1,-0.0051974,0.0067139,0.0033387,-0.33489,-0.025941,-9.8091,0,0,45.392,1,1,753,997
2153,4.5511e+07,1,-0.0045982,0.0052874,0.0040148,-0.32358,-0.020036,-9.8257,0,0,45.392,1,1,753,997
2184,4.5513e+07,1,-0.0017102,-0.0007981,0.0022909,-0.31608,-0.018207,-9.8303,0,0,45.392,1,1,753,997
2187,4.5515e+07,1,-0.00038261,-0.00052417,0.00036469,-0.30548,-0.022824,-9.8176,0,0,45.392,1,1,753,997
2191,4.5518e+07,1,0.0010269,0.0020053,-0.0019996,-0.29456,-0.033887,-9.7886,0,0,45.392,1,1,753,997
2194,4.5521e+07,1,0.0016636,0.0043053,-0.00078094,-0.28376,-0.035912,-9.7545,0,0,45.392,1,1,753,997
2225,4.5524e+07,1,0.0046302,0.0057775,0.0024013,-0.25542,-0.038988,-9.7142,0,0,45.392,1,1,753,997
2229,4.5526e+07,1,0.0090124,0.0068342,0.0035485,-0.22344,-0.035397,-9.705,0,0,45.392,1,1,753,997
2232,4.5528e+07,1,0.0095213,0.0077431,0.0058312,-0.20983,-0.036311,-9.7156,0,0,45.392,1,1,753,997
2238,4.5531e+07,1,0.0072934,0.006346,0.010172,-0.19441,-0.029298,-9.7471,0,0,45.392,1,1,753,997
2269,4.5533e+07,1,0.0068122,0.0056681,0.011984,-0.18281,-0.019542,-9.8032,0,0,45.392,1,1,753,997
2272,4.5537e+07,1,0.0089689,0.0069999,0.011127,-0.18134,-0.011595,-9.8336,0,0,45.392,1,1,753,997
2276,4.5539e+07,1,0.0099688,0.008153,0.011215,-0.20551,0.0073459,-9.8721,0,0,45.392,1,1,753,997
2279,4.5541e+07,1,0.0088874,0.006485,0.011122,-0.23868,0.016911,-9.901,0,0,45.392,1,1,753,997
2310,4.5544e+07,1,0.0059169,0.0018489,0.0081716,-0.27174,0.017087,-9.9402,0,0,45.392,1,1,753,997
2313,4.5546e+07,1,0.0036104,-0.0018896,0.0070875,-0.27663,0.014256,-9.9578,0,0,45.392,1,1,753,997
2317,4.5549e+07,1,0.0027789,-0.0022905,0.0087175,-0.27058,0.01691,-9.9687,0,0,45.392,1,1,753,997
2320,4.5551e+07,1,0.003323,-0.0011237,0.0097828,-0.27021,0.012205,-9.9636,0,0,45.392,1,1,753,997
2353,4.5554e+07,1,0.0019808,0.0040575,0.0098102,-0.27275,0.0055095,-9.9262,0,0,45.392,1,1,753,997
2356,4.5557e+07,1,0.0012359,0.0053796,0.0092916,-0.27451,0.0055108,-9.907,0,0,45.392,1,1,753,997
2363,4.556e+07,1,0.001816,0.006191,0.007067,-0.28515,0.014047,-9.8976,0,0,45.392,1,1,753,997
2366,4.5561e+07,1,0.0040812,0.0064432,0.005013,-0.29436,0.0085555,-9.8948,0,0,45.393,1,1,753,997
2397,4.5564e+07,1,0.0048201,0.0056468,0.0067509,-0.30801,-0.0035989,-9.8873,0,0,45.393,1,1,753,997
2400,4.5566e+07,1,0.0042164,0.0047483,0.0090824,-0.30674,-0.009662,-9.8736,0,0,45.393,1,1,753,997
2404,4.5569e+07,1,0.004478,0.0084266,0.0094092,-0.28291,-0.015501,-9.8545,0,0,45.393,1,1,753,997
2407,4.5572e+07,1,0.0051334,0.010443,0.0087642,-0.26312,-0.012079,-9.8559,0,0,45.393,1,1,753,997
2438,4.5574e+07,1,0.0062509,0.016043,0.0080257,-0.24577,0.0032467,-9.8535,0,0,45.393,1,1,753,997
2443,4.5577e+07,1,0.0060219,0.017905,0.0080954,-0.25142,0.011549,-9.8509,0,0,45.393,1,1,753,997
2446,4.558e+07,1,0.0061126,0.016278,0.0071942,-0.26287,0.014856,-9.832,0,0,45.393,1,1,753,997
2449,4.5582e+07,1,0.0072049,0.010117,0.0053327,-0.27516,0.023232,-9.7942,0,0,45.393,1,1,753,997
2480,4.5585e+07,1,0.0088117,0.0080865,0.00326,-0.27054,0.017871,-9.7748,0,0,45.393,1,1,753,997
2483,4.5587e+07,1,0.0097746,0.007719,0.00042711,-0.26739,0.016477,-9.7794,0,0,45.393,1,1,753,997
2487,4.559e+07,1,0.0087184,0.0064014,0.00055456,-0.26179,-0.00804,-9.7931,0,0,45.393,1,1,753,997
2490,4.5592e+07,1,0.007953,0.0053124,0.0014503,-0.25818,-0.03499,-9.8031,0,0,45.393,1,1,753,997
2521,4.5596e+07,1,0.0046035,0.0044498,0.0045545,-0.25692,-0.07998,-9.8182,0,0,45.393,1,1,753,997
2524,4.5598e+07,1,0.0022264,0.00077274,0.0053534,-0.25199,-0.1356,-9.8232,0,0,45.393,1,1,753,997
2527,4.56e+07,1,0.0023985,-8.4934e-05,0.0043806,-0.24363,-0.161,-9.8194,0,0,45.393,1,1,753,997
2530,4.5603e+07,1,0.0039866,0.0018714,-0.0012307,-0.22767,-0.17967,-9.8117,0,0,45.393,1,1,753,997
2561,4.5606e+07,1,0.0043451,0.003735,-0.0018883,-0.22039,-0.16029,-9.8211,0,0,45.393,1,1,753,997
2564,4.5608e+07,1,0.004313,0.0075904,-0.0014652,-0.2186,-0.11339,-9.8383,0,0,45.393,1,1,753,997
2568,4.561e+07,1,0.0028902,0.0091147,-0.0025359,-0.21981,-0.078702,-9.8576,0,0,45.393,1,1,753,997
2573,4.5613e+07,1,0.0017522,0.0082659,-0.0040041,-0.23817,-0.049984,-9.8635,0,0,45.393,1,1,753,997
2604,4.5617e+07,1,0.0007871,0.0074354,-0.0034614,-0.26626,-0.044308,-9.8411,0,0,45.393,1,1,753,997
2607,4.5619e+07,1,0.0041759,0.005879,-0.0024659,-0.28461,-0.061191,-9.8367,0,0,45.393,1,1,753,997
2611,4.5621e+07,1,0.0050775,0.0052803,-0.0021239,-0.29665,-0.074377,-9.831,0,0,45.393,1,1,753,997
2615,4.5624e+07,1,0.0058254,0.0032881,-0.0016502,-0.30029,-0.10874,-9.8387,0,0,45.393,1,1,753,997
2646,4.5627e+07,1,0.0060407,0.0030931,-0.0003968,-0.29994,-0.13936,-9.8387,0,0,45.393,1,1,753,997
2649,4.5629e+07,1,0.0020713,0.0058849,0.003725,-0.29515,-0.17748,-9.8384,0,0,45.393,1,1,753,997
2652,4.5632e+07,1,-0.0031497,0.007084,0.0046698,-0.29654,-0.19399,-9.846,0,0,45.393,1,1,753,997
2655,4.5634e+07,1,-0.0045447,0.0059224,0.0021437,-0.31345,-0.1938,-9.8345,0,0,45.393,1,1,753,997
2686,4.5636e+07,1,-0.0049207,0.0030823,-0.00090541,-0.32645,-0.18422,-9.8235,0,0,45.393,1,1,753,997
2689,4.5639e+07,1,-0.0047256,0.0022601,-0.00056645,-0.33669,-0.15468,-9.8115,0,0,45.393,1,1,753,997
2693,4.5641e+07,1,-0.0042118,0.0026947,0.0007689,-0.33475,-0.12836,-9.8169,0,0,45.393,1,1,753,997
2696,4.5644e+07,1,-0.0042154,0.0013116,0.0038362,-0.33401,-0.099699,-9.8213,0,0,45.393,1,1,753,997
2727,4.5646e+07,1,-0.0039948,0.0027904,0.0041783,-0.33621,-0.064384,-9.818,0,0,45.393,1,1,753,997
2730,4.5649e+07,1,-0.0045138,0.0042945,0.0029301,-0.33031,-0.044559,-9.8144,0,0,45.393,1,1,753,997
2733,4.5652e+07,1,-0.003876,0.0060877,-3.1047e-05,-0.32476,-0.037747,-9.8178,0,0,45.393,1,1,753,997
2736,4.5654e+07,1,-0.002011,0.0057391,0.00081897,-0.30911,-0.030713,-9.8013,0,0,45.393,1,1,753,997
2767,4.5657e+07,1,-0.0014957,0.003229,0.0026594,-0.30008,-0.02408,-9.767,0,0,45.393,1,1,753,997
2770,4.566e+07,1,-0.00084974,-0.001272,0.0036855,-0.29223,-0.025836,-9.7426,0,0,45.393,1,1,753,997
2778,4.5662e+07,1,-0.0010609,-0.0027646,0.0042287,-0.28795,-0.032849,-9.7181,0,0,45.393,1,1,753,997
2782,4.5664e+07,1,-0.0050591,-0.0037573,0.0073161,-0.28858,-0.05143,-9.7091,0,0,45.393,1,1,753,997
2813,4.5667e+07,1,-0.0046535,-0.0026322,0.0064656,-0.2913,-0.05963,-9.716,0,0,45.393,1,1,753,997
2816,4.5669e+07,1,-0.0014398,-0.0010011,0.0033815,-0.28881,-0.057628,-9.7297,0,0,45.393,1,1,753,997
2820,4.5672e+07,1,0.00047572,0.00068591,0.0027466,-0.28051,-0.047089,-9.7434,0,0,45.393,1,1,753,997
2823,4.5674e+07,1,0.0035117,0.0025927,0.0020951,-0.26289,-0.02942,-9.7672,0,0,45.393,1,1,753,997
2854,4.5677e+07,1,0.0013332,-0.0019307,-0.0047036,-0.26938,-0.023064,-9.7718,0,0,45.393,1,1,753,997
2857,4.568e+07,1,-0.00048317,-0.0020031,-0.0071229,-0.284,-0.017693,-9.7691,0,0,45.393,1,1,753,997
2860,4.5682e+07,1,-0.0033716,0.0010036,-0.0082513,-0.29919,-0.024286,-9.7989,0,0,45.393,1,1,753,997
2864,4.5685e+07,1,-0.0033914,0.0049778,-0.00589,-0.3021,-0.028947,-9.8259,0,0,45.393,1,1,753,997
2895,4.5687e+07,1,-0.00028627,0.0084703,-0.0018405,-0.29485,-0.014551,-9.865,0,0,45.393,1,1,753,997
2899,4.569e+07,1,0.0021974,0.010487,0.0023732,-0.29009,-0.01914,-9.89,0,0,45.393,1,1,753,997
2903,4.5693e+07,1,0.0047594,0.0099197,0.0033285,-0.29231,-0.024739,-9.891,0,0,45.393,1,1,753,997
2906,4.5695e+07,1,0.0074519,0.0076326,0.0016755,-0.30518,-0.034568,-9.8827,0,0,45.393,1,1,753,997
2937,4.5698e+07,1,0.0075388,0.006931,0.0012441,-0.31646,-0.047397,-9.8794,0,0,45.393,1,1,753,997
2940,4.57e+07,1,0.0079814,0.0070993,0.00049472,-0.32405,-0.070703,-9.8873,0,0,45.393,1,1,753,997
2943,4.5702e+07,1,0.0084654,0.0062384,0.00065092,-0.33054,-0.083363,-9.8895,0,0,45.393,1,1,753,997
2946,4.5705e+07,1,0.0089995,0.0064815,0.00070952,-0.33714,-0.077005,-9.8921,0,0,45.393,1,1,753,997
2977,4.5708e+07,1,0.0063587,0.0080119,0.0012671,-0.34481,-0.058341,-9.8728,0,0,45.393,1,1,753,997
2980,4.5713e+07,1,0.0041381,0.011311,-0.0014621,-0.34506,-0.023581,-9.8306,0,0,45.393,1,1,753,997
2984,4.5716e+07,1,0.0036532,0.012032,-0.0011792,-0.33278,-0.01192,-9.8042,0,0,45.393,1,1,753,997
3015,4.5718e+07,1,0.0055835,0.011567,0.0026782,-0.30975,0.0087572,-9.7582,0,0,45.393,1,1,753,997
3018,4.5721e+07,1,0.0072446,0.011442,0.0041193,-0.2898,0.014077,-9.7275,0,0,45.393,1,1,753,997
3021,4.5724e+07,1,0.010625,0.0098968,0.006063,-0.2669,-4.0964e-05,-9.6807,0,0,45.393,1,1,753,997
3025,4.5725e+07,1,0.012646,0.0057127,0.0072594,-0.26033,-0.025096,-9.6555,0,0,45.393,1,1,753,997
3056,4.5728e+07,1,0.012804,0.004756,0.0075032,-0.26345,-0.070312,-9.6269,0,0,45.393,1,1,753,997
3059,4.5731e+07,1,0.012063,0.0040348,0.0067851,-0.27367,-0.0877,-9.6157,0,0,45.393,1,1,753,997
3062,4.5733e+07,1,0.010458,0.0048679,0.0062382,-0.2989,-0.1006,-9.608,0,0,45.393,1,1,753,997
3065,4.5736e+07,1,0.0091936,0.005917,0.0063803,-0.31366,-0.11028,-9.6103,0,0,45.393,1,1,753,997
3096,4.5738e+07,1,0.0068961,0.0068122,0.0058774,-0.32638,-0.1284,-9.6341,0,0,45.393,1,1,753,997
3100,4.5741e+07,1,0.0056665,0.0075673,0.0079448,-0.33299,-0.13924,-9.6878,0,0,45.393,1,1,753,997
3103,4.5744e+07,1,0.0050222,0.0072796,0.0089185,-0.34806,-0.1398,-9.7398,0,0,45.393,1,1,753,997
3107,4.5746e+07,1,0.0038753,0.0054018,0.0083196,-0.36329,-0.1395,-9.811,0,0,45.393,1,1,753,997
3138,4.5749e+07,1,0.0040644,0.0054722,0.0055599,-0.36986,-0.1193,-9.8475,0,0,45.393,1,1,753,997
3141,4.5751e+07,1,0.0050372,0.0055683,0.0041214,-0.36233,-0.10245,-9.8524,0,0,45.393,1,1,753,997
3144,4.5754e+07,1,0.0064089,0.0060863,0.0015495,-0.35127,-0.068975,-9.8639,0,0,45.393,1,1,753,997
3147,4.5756e+07,1,0.0060161,0.0052825,0.0023648,-0.34515,-0.046757,-9.8744,0,0,45.393,1,1,753,997
3178,4.5759e+07,1,0.0020243,0.0036177,0.0068807,-0.32774,-0.031837,-9.8741,0,0,45.394,1,1,753,997
3181,4.5762e+07,1,0.0015359,0.0034197,0.0083984,-0.31563,-0.030671,-9.8589,0,0,45.394,1,1,753,997
3188,4.5764e+07,1,0.00074798,0.002832,0.010493,-0.29564,-0.022959,-9.8186,0,0,45.394,1,1,753,997
3192,4.5766e+07,1,0.00067942,0.00094079,0.0090777,-0.29164,-0.0075471,-9.7934,0,0,45.394,1,1,753,997
3223,4.5769e+07,1,0.0024281,-0.0026738,0.0057437,-0.28644,0.024128,-9.7704,0,0,45.394,1,1,753,997
3226,4.5772e+07,1,0.0047788,-0.0060858,0.0019757,-0.28649,0.048711,-9.7629,0,0,45.394,1,1,753,997
3229,4.5774e+07,1,0.0052042,-0.0054548,-0.0028688,-0.2891,0.070614,-9.7468,0,0,45.394,1,1,753,997
3232,4.5777e+07,1,0.0050015,-0.0047498,-0.0040616,-0.2843,0.070948,-9.74,0,0,45.394,1,1,753,997
3263,4.5779e+07,1,0.0042536,9.9091e-05,-0.00037832,-0.28269,0.047381,-9.7552,0,0,45.394,1,1,753,997
3266,4.5782e+07,1,0.0026475,0.0024377,0.0049171,-0.28172,0.0025675,-9.7731,0,0,45.394,1,1,753,997
3269,4.5785e+07,1,0.0029373,0.0024348,0.0069958,-0.28478,-0.03546,-9.7886,0,0,45.394,1,1,753,997
3273,4.5786e+07,1,0.0050395,0.0029743,0.011282,-0.29577,-0.07849,-9.8214,0,0,45.394,1,1,753,997
3305,4.5789e+07,1,0.0050942,0.0026712,0.012468,-0.31213,-0.099666,-9.846,0,0,45.394,1,1,753,997
3308,4.5791e+07,1,0.0061409,0.0033232,0.01162,-0.33174,-0.1116,-9.8921,0,0,45.394,1,1,753,997
3311,4.5794e+07,1,0.0051649,0.0054574,0.0062469,-0.33852,-0.10336,-9.9117,0,0,45.394,1,1,753,997
3314,4.5797e+07,1,0.0029166,0.0064569,0.002606,-0.3443,-0.092215,-9.9127,0,0,45.394,1,1,753,997
3345,4.58e+07,1,-0.00022635,0.0074388,-3.2806e-05,-0.35997,-0.090134,-9.9313,0,0,45.394,1,1,753,997
3348,4.5802e+07,1,-0.0016948,0.0075453,-0.00032465,-0.36218,-0.090937,-9.9546,0,0,45.394,1,1,753,997
3351,4.5806e+07,1,-0.0031896,0.0076631,0.00062963,-0.36223,-0.094383,-9.955,0,0,45.394,1,1,753,997
3355,4.5808e+07,1,-0.0011933,0.0057385,0.0048608,-0.35932,-0.091356,-9.9257,0,0,45.394,1,1,753,997
3388,4.581e+07,1,-0.0013316,0.0052791,0.0057686,-0.3513,-0.099361,-9.8937,0,0,45.394,1,1,753,997
3391,4.5813e+07,1,-0.001262,0.0052118,0.0049085,-0.34403,-0.11253,-9.8506,0,0,45.394,1,1,753,997
3394,4.5815e+07,1,-0.00053689,0.006201,0.00021004,-0.33222,-0.12128,-9.8177,0,0,45.394,1,1,753,997
3400,4.5818e+07,1,-0.00091807,0.01025,-0.0036089,-0.31619,-0.12701,-9.7827,0,0,45.394,1,1,753,997
3431,4.5823e+07,1,-0.0062506,0.019345,-0.00015557,-0.302,-0.1241,-9.803,0,0,45.395,1,1,753,997
3434,4.5826e+07,1,-0.0069844,0.018804,0.00051706,-0.2923,-0.1152,-9.813,0,0,45.395,1,1,753,997
3437,4.5829e+07,1,-0.0063319,0.015648,0.0032569,-0.28326,-0.092176,-9.8206,0,0,45.395,1,1,753,997
3468,4.5832e+07,1,-0.0037431,0.0096193,0.0083364,-0.28509,-0.075714,-9.8124,0,0,45.395,1,1,753,997
3472,4.5834e+07,1,-0.0033784,0.0074798,0.0088921,-0.29074,-0.066712,-9.7982,0,0,45.395,1,1,753,997
3476,4.5837e+07,1,-0.0014313,0.0021152,0.0067815,-0.29811,-0.056257,-9.7819,0,0,45.395,1,1,753,997
3480,4.5839e+07,1,0.00035799,0.0034472,0.0035107,-0.29993,-0.056685,-9.7793,0,0,45.395,1,1,753,997
3511,4.5842e+07,1,0.00035746,0.010416,0.0024979,-0.29699,-0.051906,-9.7809,0,0,45.395,1,1,753,997
3514,4.5845e+07,1,0.00040532,0.014363,0.0015696,-0.2898,-0.04985,-9.7791,0,0,45.395,1,1,753,997
3517,4.5847e+07,1,0.0003439,0.013447,0.0014879,-0.27829,-0.046701,-9.782,0,0,45.395,1,1,753,997
3520,4.5849e+07,1,-0.0030629,0.008727,0.0013686,-0.26625,-0.036603,-9.7836,0,0,45.395,1,1,753,997
3551,4.5851e+07,1,-0.0073328,0.0061719,0.00011374,-0.25741,-0.01941,-9.7846,0,0,45.395,1,1,753,997
3554,4.5855e+07,1,-0.008705,0.0059227,-0.00038218,-0.25678,-0.0056813,-9.7845,0,0,45.395,1,1,753,997
3558,4.5857e+07,1,-0.0070002,0.0086146,-0.00074493,-0.25936,0.0036447,-9.7892,0,0,45.395,1,1,753,997
3562,4.586e+07,1,-0.0060188,0.0097211,-0.0011083,-0.25193,0.0061924,-9.7887,0,0,45.396,1,1,753,997
3593,4.5862e+07,1,-0.0033168,0.011179,-0.00080604,-0.24445,-0.022268,-9.7912,0,0,45.396,1,1,753,997
3599,4.5865e+07,1,-0.0013525,0.011404,-0.00056747,-0.24864,-0.034344,-9.7964,0,0,45.396,1,1,753,997
3606,4.5868e+07,1,0.0012369,0.010674,-0.00038743,-0.25222,-0.020769,-9.806,0,0,45.396,1,1,753,997
3610,4.587e+07,1,0.0046047,0.0089659,0.0023512,-0.25,0.0028754,-9.7879,0,0,45.396,1,1,753,997
3641,4.5872e+07,1,0.0072871,0.0082725,0.004279,-0.2482,0.014114,-9.7732,0,0,45.396,1,1,753,997
3644,4.5874e+07,1,0.0074292,0.0077409,0.0045757,-0.23381,0.026893,-9.7672,0,0,45.396,1,1,753,997
3647,4.5877e+07,1,0.0081165,0.001535,0.0061909,-0.20739,0.025025,-9.7788,0,0,45.396,1,1,753,997
3650,4.588e+07,1,0.0090237,-0.00066566,0.0074379,-0.19109,0.010179,-9.796,0,0,45.396,1,1,753,997
3681,4.5882e+07,1,0.0077875,-0.0041721,0.009219,-0.1884,-0.026622,-9.8383,0,0,45.396,1,1,753,997
3684,4.5886e+07,1,0.0071464,-0.0027377,0.0086529,-0.20094,-0.031995,-9.864,0,0,45.396,1,1,753,997
3687,4.5887e+07,1,0.0053655,-0.0018994,0.009133,-0.21263,-0.020553,-9.9022,0,0,45.396,1,1,753,997
3691,4.589e+07,1,0.0008956,-0.00014263,0.0084012,-0.21931,-0.008642,-9.9314,0,0,45.396,1,1,753,997
3722,4.5893e+07,1,-0.0030546,0.0032358,0.0055052,-0.23129,0.0021917,-9.9645,0,0,45.397,1,1,753,997
3725,4.5895e+07,1,-0.0031309,0.0046078,0.0042692,-0.23613,0.014283,-9.9638,0,0,45.397,1,1,753,997
3729,4.5898e+07,1,0.00093777,0.0077932,0.0025944,-0.24094,0.025131,-9.9418,0,0,45.397,1,1,753,997
3732,4.59e+07,1,0.003118,0.0075893,0.0034673,-0.24414,0.036675,-9.9065,0,0,45.397,1,1,753,997
3763,4.5904e+07,1,0.0094001,0.007733,0.0051452,-0.2417,0.02688,-9.8866,0,0,45.397,1,1,753,997
3766,4.5905e+07,1,0.013977,0.0083823,0.0046708,-0.24296,0.0006836,-9.8817,0,0,45.397,1,1,753,997
3769,4.5908e+07,1,0.01283,0.0070597,0.0022734,-0.26373,-0.046208,-9.8824,0,0,45.397,1,1,753,997
3773,4.5912e+07,1,0.010686,0.0067997,0.0007013,-0.27144,-0.064853,-9.8733,0,0,45.397,1,1,753,997
3776,4.5913e+07,1,0.0099354,0.0076273,0.0028968,-0.28363,-0.069188,-9.8697,0,0,45.397,1,1,753,997
3807,4.5917e+07,1,0.0091184,0.0072135,0.0057618,-0.30682,-0.063945,-9.873,0,0,45.397,1,1,753,997
3810,4.5918e+07,1,0.0085546,0.0069223,0.0081409,-0.32318,-0.067139,-9.8595,0,0,45.397,1,1,753,997
3813,4.5921e+07,1,0.0077895,0.0074376,0.010316,-0.33918,-0.065273,-9.821,0,0,45.397,1,1,753,997
3816,4.5923e+07,1,0.0068117,0.0072982,0.010526,-0.34281,-0.064596,-9.7948,0,0,45.397,1,1,753,997
3847,4.5926e+07,1,0.0038772,0.0077275,0.0089078,-0.34358,-0.062944,-9.7647,0,0,45.398,1,1,753,997
3850,4.5929e+07,1,0.0035879,0.0078663,0.0082297,-0.34244,-0.065179,-9.7646,0,0,45.398,1,1,753,997
3854,4.5931e+07,1,0.0029222,0.0059027,0.0043489,-0.34427,-0.066917,-9.7935,0,0,45.398,1,1,753,997
3858,4.5933e+07,1,0.0027577,0.0043139,0.0037831,-0.34956,-0.073279,-9.8208,0,0,45.398,1,1,753,997
3889,4.5936e+07,1,0.0041056,0.00032247,0.0033111,-0.34786,-0.082519,-9.8464,0,0,45.398,1,1,753,997
3892,4.5939e+07,1,0.0044747,0.0011365,0.0027932,-0.34416,-0.087628,-9.8452,0,0,45.398,1,1,753,997
3896,4.5941e+07,1,0.0025797,0.004187,0.00094616,-0.3346,-0.098208,-9.8075,0,0,45.398,1,1,753,997
3899,4.5943e+07,1,0.0024039,0.0076544,-0.0021827,-0.32862,-0.108,-9.7811,0,0,45.398,1,1,753,997
3930,4.5946e+07,1,0.0027045,0.0089605,-0.00056019,-0.32009,-0.12036,-9.7674,0,0,45.398,1,1,753,997
3933,4.5948e+07,1,0.002939,0.0084706,0.0010473,-0.31219,-0.13269,-9.77,0,0,45.398,1,1,753,997
3936,4.5951e+07,1,0.002394,0.0064828,0.0020452,-0.30311,-0.13885,-9.7857,0,0,45.398,1,1,753,997
3939,4.5954e+07,1,0.0010506,0.00572,0.0014069,-0.30354,-0.13633,-9.7833,0,0,45.398,1,1,753,997
3970,4.5956e+07,1,-6.2408e-05,0.0051166,0.00014808,-0.31611,-0.13236,-9.7612,0,0,45.398,1,1,753,997
3973,4.5958e+07,1,1.6647e-05,0.0068145,-0.0015641,-0.33433,-0.12991,-9.7438,0,0,45.399,1,1,753,997
3977,4.5961e+07,1,0.00075705,0.0085156,0.000674,-0.35078,-0.12508,-9.7476,0,0,45.399,1,1,753,997
3980,4.5964e+07,1,-0.0004253,0.0092579,0.0031894,-0.35122,-0.11795,-9.7665,0,0,45.399,1,1,753,997
4011,4.5966e+07,1,-0.0025668,0.010314,0.0022485,-0.34852,-0.10989,-9.7959,0,0,45.399,1,1,753,997
4018,4.5969e+07,1,-0.005428,0.012199,9.0676e-05,-0.34244,-0.10271,-9.8005,0,0,45.399,1,1,753,997
4023,4.5971e+07,1,-0.0078754,0.01584,-0.0015576,-0.3341,-0.082594,-9.8009,0,0,45.399,1,1,753,997
4026,4.5973e+07,1,-0.0078985,0.016794,-0.0020863,-0.33516,-0.074208,-9.8066,0,0,45.399,1,1,753,997
4057,4.5976e+07,1,-0.0040177,0.0096413,-0.00047449,-0.34271,-0.05507,-9.815,0,0,45.399,1,1,753,997
4061,4.5979e+07,1,-0.0026117,0.0067505,0.00067245,-0.34577,-0.044532,-9.8166,0,0,45.399,1,1,753,997
4065,4.5981e+07,1,-0.0020289,0.0058807,0.0043068,-0.35352,-0.041741,-9.8162,0,0,45.399,1,1,753,997
4068,4.5983e+07,1,-0.0020578,0.0073339,0.0054337,-0.35733,-0.040582,-9.8125,0,0,45.399,1,1,753,997
4099,4.5986e+07,1,-0.00041849,0.0093636,0.001577,-0.35407,-0.036571,-9.802,0,0,45.399,1,1,753,997
4102,4.5989e+07,1,0.00095791,0.0085546,-0.0005558,-0.33936,-0.040428,-9.7891,0,0,45.399,1,1,753,997
4105,4.5991e+07,1,0.0007417,0.0030905,-0.0011723,-0.31846,-0.060982,-9.7932,0,0,45.4,1,1,753,997
4108,4.5993e+07,1,-3.6334e-05,0.0014271,-0.0023129,-0.30697,-0.075741,-9.8109,0,0,45.4,1,1,753,997
4139,4.5996e+07,1,-0.0049588,0.0037683,-0.0063039,-0.29948,-0.081076,-9.8504,0,0,45.4,1,1,753,997
4143,4.5998e+07,1,-0.0064054,0.0055405,-0.005597,-0.2939,-0.076419,-9.8793,0,0,45.4,1,1,753,997
4149,4.6002e+07,1,-0.0071932,0.008873,-0.0015343,-0.28831,-0.070956,-9.9123,0,0,45.4,1,1,753,997
4152,4.6004e+07,1,-0.006417,0.0090583,0.001986,-0.28822,-0.085182,-9.9188,0,0,45.4,1,1,753,997
4183,4.6006e+07,1,-0.0050302,0.0083855,0.0033729,-0.27746,-0.096113,-9.9175,0,0,45.4,1,1,753,997
4186,4.6008e+07,1,-0.0038201,0.0080348,0.0015209,-0.26165,-0.098095,-9.9147,0,0,45.4,1,1,753,997
4189,4.6015e+07,1,0.0004349,0.011498,0.00056373,-0.25533,-0.089764,-9.8776,0,0,45.4,1,1,753,997
4192,4.6016e+07,1,0.0026101,0.011264,0.0044351,-0.27739,-0.084552,-9.8729,0,0,45.4,1,1,753,997
4223,4.6018e+07,1,0.00063451,0.0078983,0.0073529,-0.29513,-0.070215,-9.8591,0,0,45.4,1,1,753,997
4227,4.6021e+07,1,-0.00087884,0.0032398,0.0066119,-0.30333,-0.066662,-9.8385,0,0,45.4,1,1,753,997
4230,4.6024e+07,1,0.00069514,0.003144,0.0049968,-0.31288,-0.062661,-9.8175,0,0,45.401,1,1,753,997
4233,4.6027e+07,1,0.0012706,0.0041795,0.004151,-0.31228,-0.058053,-9.8072,0,0,45.401,1,1,753,997
4264,4.6029e+07,1,0.0020643,0.00233,0.0026156,-0.30882,-0.051259,-9.7841,0,0,45.401,1,1,753,997
4268,4.6031e+07,1,0.0016049,0.0016069,0.0021636,-0.30922,-0.048496,-9.7752,0,0,45.401,1,1,753,997
4271,4.6034e+07,1,-0.000144,0.0012301,0.0020518,-0.31078,-0.037773,-9.7541,0,0,45.401,1,1,753,997
4274,4.6036e+07,1,-0.0011782,0.0038919,0.002439,-0.30963,-0.042675,-9.7397,0,0,45.401,1,1,753,997
4305,4.604e+07,1,6.9966e-05,0.0073553,0.0023275,-0.30946,-0.055366,-9.7233,0,0,45.401,1,1,753,997
4308,4.6042e+07,1,0.0028904,0.0061316,0.0038099,-0.30387,-0.064701,-9.7229,0,0,45.401,1,1,753,997
4311,4.6044e+07,1,0.0058843,0.0063743,0.0044978,-0.28678,-0.081673,-9.7299,0,0,45.401,1,1,753,997
4314,4.6047e+07,1,0.0067667,0.0077895,0.0041438,-0.27969,-0.097977,-9.7396,0,0,45.401,1,1,753,997
4347,4.6049e+07,1,0.0077611,0.0075419,0.0051534,-0.26866,-0.1177,-9.7633,0,0,45.401,1,1,753,997
4351,4.6052e+07,1,0.0078781,0.0073866,0.0057444,-0.26835,-0.12049,-9.7806,0,0,45.401,1,1,753,997
4354,4.6054e+07,1,0.0084261,0.010008,0.0070067,-0.27292,-0.10915,-9.8014,0,0,45.401,1,1,753,997
4357,4.6057e+07,1,0.0090564,0.016158,0.0077521,-0.27448,-0.093643,-9.8099,0,0,45.402,1,1,753,997
4388,4.6059e+07,1,0.010148,0.02071,0.0088421,-0.26453,-0.076523,-9.8187,0,0,45.402,1,1,753,997
4391,4.6062e+07,1,0.0086089,0.018834,0.0098616,-0.25029,-0.06629,-9.8114,0,0,45.402,1,1,753,997
4394,4.6064e+07,1,0.0050841,0.01846,0.010051,-0.23424,-0.05448,-9.7936,0,0,45.402,1,1,753,997
4397,4.6067e+07,1,0.0036318,0.015921,0.010132,-0.23266,-0.049456,-9.7717,0,0,45.402,1,1,753,997
4432,4.607e+07,1,0.0053126,0.010753,0.011034,-0.23927,-0.042584,-9.7528,0,0,45.402,1,1,753,997
4436,4.6073e+07,1,0.0065817,0.006437,0.012022,-0.23861,-0.024535,-9.7568,0,0,45.402,1,1,753,997
4439,4.6074e+07,1,0.0084715,0.0051009,0.013159,-0.23716,-0.015882,-9.7616,0,0,45.402,1,1,753,997
4443,4.6077e+07,1,0.0099096,0.0078217,0.013249,-0.23168,-0.0076155,-9.7799,0,0,45.402,1,1,753,997
4474,4.608e+07,1,0.0086971,0.012824,0.011631,-0.2232,-0.016626,-9.7912,0,0,45.403,1,1,753,997
4477,4.6082e+07,1,0.0086037,0.014301,0.0075102,-0.22433,-0.023764,-9.7942,0,0,45.403,1,1,753,997
4480,4.6085e+07,1,0.0092506,0.013398,0.0066966,-0.22426,-0.02453,-9.7958,0,0,45.403,1,1,753,997
4483,4.6087e+07,1,0.0085299,0.010768,0.0083989,-0.23461,-0.025928,-9.7804,0,0,45.403,1,1,753,997
4514,4.6089e+07,1,0.004969,0.0083313,0.0068449,-0.24906,-0.044778,-9.767,0,0,45.403,1,1,753,997
4518,4.6092e+07,1,0.0049617,0.0070743,0.0049731,-0.25435,-0.063485,-9.7614,0,0,45.403,1,1,753,997
4521,4.6095e+07,1,0.0055946,0.0045231,0.0024364,-0.25345,-0.075693,-9.7564,0,0,45.403,1,1,753,997
4524,4.6097e+07,1,0.0070447,0.0034251,0.0034245,-0.25649,-0.067095,-9.7466,0,0,45.403,1,1,753,997
4555,4.6099e+07,1,0.0077089,0.0016707,0.0067551,-0.25727,-0.048801,-9.7614,0,0,45.403,1,1,753,997
4559,4.6102e+07,1,0.0090208,0.0014363,0.0087936,-0.25288,-0.044569,-9.7716,0,0,45.404,1,1,753,997
4562,4.6105e+07,1,0.0095518,0.00066395,0.0093444,-0.24753,-0.047208,-9.7947,0,0,45.404,1,1,753,997
4565,4.6107e+07,1,0.008485,-0.0023789,0.0085459,-0.24206,-0.054253,-9.8256,0,0,45.404,1,1,753,997
4596,4.6111e+07,1,0.00754,-0.0023682,0.0071902,-0.24752,-0.066927,-9.8368,0,0,45.404,1,1,753,997
4599,4.6112e+07,1,0.0042071,-0.0010002,0.0039703,-0.25657,-0.082065,-9.8426,0,0,45.404,1,1,753,997
4603,4.6115e+07,1,0.0047541,0.00056905,-0.0014836,-0.2587,-0.077099,-9.8256,0,0,45.404,1,1,753,997
4606,4.612e+07,1,0.0046613,0.0063443,-0.0010609,-0.25692,-0.073217,-9.7895,0,0,45.404,1,1,753,997
4637,4.6123e+07,1,-0.00072916,0.0089046,0.00056748,-0.2645,-0.091179,-9.7997,0,0,45.405,1,1,753,997
4641,4.6125e+07,1,-0.0028952,0.009116,0.0013646,-0.27367,-0.1091,-9.8004,0,0,45.405,1,1,753,997
4645,4.6128e+07,1,-0.005884,0.0086167,0.0040845,-0.29689,-0.11591,-9.8116,0,0,45.405,1,1,753,997
4648,4.6131e+07,1,-0.0086648,0.0095844,0.0043184,-0.31436,-0.11306,-9.824,0,0,45.405,1,1,753,997
4679,4.6133e+07,1,-0.009302,0.0089147,0.0022119,-0.34031,-0.09381,-9.8365,0,0,45.405,1,1,753,997
4682,4.6135e+07,1,-0.0068358,0.0042554,-0.00020461,-0.35242,-0.077984,-9.8435,0,0,45.405,1,1,753,997
4685,4.6138e+07,1,-0.0031876,-0.0004578,-0.0022483,-0.36415,-0.063688,-9.8435,0,0,45.405,1,1,753,997
4688,4.6141e+07,1,-0.00070755,-0.0022153,-0.0025459,-0.36825,-0.052618,-9.8458,0,0,45.405,1,1,753,997
4719,4.6143e+07,1,0.0035011,-0.00033926,0.00097639,-0.36746,-0.044239,-9.8492,0,0,45.405,1,1,753,997
4723,4.6145e+07,1,0.00252,0.0017687,0.0026627,-0.35921,-0.039896,-9.8527,0,0,45.406,1,1,753,997
4726,4.6148e+07,1,-0.0027939,0.0056116,0.003876,-0.34265,-0.030201,-9.8592,0,0,45.406,1,1,753,997
4729,4.615e+07,1,-0.0034344,0.0062431,0.0027625,-0.33083,-0.028387,-9.875,0,0,45.406,1,1,753,997
4760,4.6153e+07,1,-0.0034816,0.0074195,0.00067624,-0.31836,-0.017968,-9.8885,0,0,45.406,1,1,753,997
4764,4.6155e+07,1,-0.0044396,0.0080782,-0.0016529,-0.31683,0.00093225,-9.8935,0,0,45.406,1,1,753,997
4767,4.6158e+07,1,-0.0049929,0.0049377,-0.00061774,-0.31562,0.032148,-9.8678,0,0,45.406,1,1,753,997
4770,4.616e+07,1,-0.0051245,0.00082922,0.0032647,-0.31005,0.045349,-9.835,0,0,45.406,1,1,753,997
4801,4.6163e+07,1,-0.0058312,-6.8031e-06,0.0044303,-0.31765,0.046591,-9.8053,0,0,45.406,1,1,753,997
4804,4.6166e+07,1,-0.0064782,0.00095203,0.0039229,-0.32923,0.049311,-9.8034,0,0,45.406,1,1,753,997
4807,4.6168e+07,1,-0.0052184,0.0037702,0.0040447,-0.35129,0.054066,-9.8046,0,0,45.407,1,1,753,997
4814,4.6171e+07,1,-0.0038336,0.0041978,0.0050458,-0.36768,0.052542,-9.8117,0,0,45.407,1,1,753,997
4845,4.6173e+07,1,-0.00022919,0.0040742,0.0066283,-0.37947,0.046782,-9.8209,0,0,45.407,1,1,753,997
4849,4.6176e+07,1,0.00053928,0.0051977,0.0041205,-0.37084,0.042818,-9.8026,0,0,45.407,1,1,753,997
4852,4.6179e+07,1,-0.00054053,0.0067516,0.0026943,-0.35988,0.047262,-9.7855,0,0,45.407,1,1,753,997
4855,4.6181e+07,1,-0.0020559,0.0082196,0.0018295,-0.34491,0.053504,-9.7595,0,0,45.407,1,1,753,997
4886,4.6184e+07,1,-0.0042065,0.0083691,0.0047322,-0.32913,0.038026,-9.7624,0,0,45.407,1,1,753,997
4889,4.6186e+07,1,-0.0039419,0.0066904,0.0065912,-0.31895,0.022828,-9.7841,0,0,45.407,1,1,753,997
4892,4.6189e+07,1,-0.0027737,0.0029978,0.0097694,-0.30636,0.016509,-9.8158,0,0,45.407,1,1,753,997
4896,4.6191e+07,1,-0.0022445,-6.5278e-05,0.012242,-0.28764,0.011144,-9.8542,0,0,45.408,1,1,753,997
4927,4.6193e+07,1,-0.0050016,-0.0017816,0.011042,-0.27913,0.0059982,-9.8598,0,0,45.408,1,1,753,997
4931,4.6196e+07,1,-0.0067114,0.0018079,0.0070333,-0.27512,0.016257,-9.8501,0,0,45.408,1,1,753,997
4934,4.6199e+07,1,-0.0055433,0.0039762,0.0060329,-0.26751,0.025313,-9.8437,0,0,45.408,1,1,753,997
4937,4.6201e+07,1,0.00071079,0.0053593,0.003947,-0.25008,0.025738,-9.8428,0,0,45.408,1,1,753,997
4970,4.6204e+07,1,0.0022612,0.0044953,0.0023522,-0.24518,0.022628,-9.8465,0,0,45.408,1,1,753,997
4973,4.6206e+07,1,0.0021874,0.0037332,0.0021835,-0.24834,0.019829,-9.8398,0,0,45.408,1,1,753,997
4976,4.6209e+07,1,0.0011664,0.0036924,0.0029476,-0.25148,0.015033,-9.8298,0,0,45.408,1,1,753,997
4979,4.6212e+07,1,-0.00122,0.0057611,0.0061368,-0.25708,0.013633,-9.8311,0,0,45.409,1,1,753,997
5010,4.6214e+07,1,-0.0014744,0.0075911,0.010402,-0.26873,0.014958,-9.8414,0,0,45.409,1,1,753,997
5014,4.6216e+07,1,0.00047643,0.0076711,0.010234,-0.28138,0.017941,-9.8394,0,0,45.409,1,1,753,997
5018,4.6219e+07,1,0.0034308,0.0061636,0.0058738,-0.29488,0.024309,-9.8129,0,0,45.409,1,1,753,997
5021,4.6221e+07,1,0.0069767,0.0084561,0.0033543,-0.29613,0.024817,-9.787,0,0,45.409,1,1,753,997
5052,4.6225e+07,1,0.010163,0.011068,0.0034544,-0.30907,0.012428,-9.7604,0,0,45.409,1,1,753,997
5055,4.6228e+07,1,0.0087965,0.010365,0.0063815,-0.33385,0.00108,-9.7542,0,0,45.409,1,1,753,997
5059,4.6229e+07,1,0.0064177,0.008529,0.0094644,-0.34484,-0.0031639,-9.7401,0,0,45.409,1,1,753,997
5062,4.6232e+07,1,0.0047317,0.0052977,0.01007,-0.34518,-0.0037651,-9.7012,0,0,45.409,1,1,753,997
5093,4.6235e+07,1,0.0054155,0.00087314,0.0065922,-0.33581,-0.011753,-9.6673,0,0,45.41,1,1,753,997
5096,4.6238e+07,1,0.0065583,-0.0012513,0.0038475,-0.32009,-0.038775,-9.6445,0,0,45.41,1,1,753,997
5099,4.624e+07,1,0.0065759,-0.002666,0.003109,-0.31134,-0.056203,-9.6461,0,0,45.41,1,1,753,997
5103,4.6241e+07,1,0.007027,-0.0035097,0.0011564,-0.29611,-0.095499,-9.6514,0,0,45.41,1,1,753,997
5134,4.6244e+07,1,0.0075282,-0.0029242,0.0012073,-0.29097,-0.11548,-9.6819,0,0,45.41,1,1,753,997
5137,4.6247e+07,1,0.0093427,-0.0034108,0.0038734,-0.28032,-0.12518,-9.7488,0,0,45.41,1,1,753,997
5141,4.625e+07,1,0.010052,-0.00094764,0.0054501,-0.27307,-0.11687,-9.7786,0,0,45.41,1,1,753,997
5144,4.6252e+07,1,0.0078818,0.0019826,0.0055729,-0.27035,-0.11032,-9.8095,0,0,45.41,1,1,753,997
5175,4.6255e+07,1,0.00569,0.0053811,0.0040664,-0.26882,-0.1107,-9.8274,0,0,45.41,1,1,753,997
5178,4.6257e+07,1,0.0044111,0.009132,0.0011579,-0.27297,-0.10393,-9.8503,0,0,45.411,1,1,753,997
5182,4.626e+07,1,0.0047588,0.009274,-0.0001326,-0.2784,-0.098253,-9.8582,0,0,45.411,1,1,753,997
5185,4.6262e+07,1,0.0060956,0.004592,-0.0015792,-0.29188,-0.075811,-9.8612,0,0,45.411,1,1,753,997
5216,4.6264e+07,1,0.006801,0.0059254,-0.00029536,-0.29933,-0.060378,-9.8704,0,0,45.411,1,1,753,997
5219,4.6267e+07,1,0.0071217,0.0078606,0.0010812,-0.30014,-0.050375,-9.8515,0,0,45.411,1,1,753,997
5222,4.627e+07,1,0.0083313,0.0094062,0.0068336,-0.3114,-0.037262,-9.8279,0,0,45.411,1,1,753,997
5229,4.6273e+07,1,0.0065313,0.0085786,0.007643,-0.32137,-0.040541,-9.8227,0,0,45.411,1,1,753,997
5260,4.6276e+07,1,0.0036885,0.0059762,0.0047221,-0.32559,-0.044994,-9.8251,0,0,45.411,1,1,753,997
5263,4.6277e+07,1,0.0045572,0.0061154,0.0034144,-0.32607,-0.040632,-9.849,0,0,45.411,1,1,753,997
5268,4.628e+07,1,0.0052466,0.0067353,0.0029455,-0.32476,-0.017424,-9.8772,0,0,45.411,1,1,753,997
5271,4.6282e+07,1,0.0054562,0.0078957,0.0035278,-0.32237,-0.002558,-9.877,0,0,45.411,1,1,753,997
5302,4.6285e+07,1,0.006749,0.007437,0.0039937,-0.30752,0.014237,-9.8569,0,0,45.411,1,1,753,997
5305,4.6288e+07,1,0.0070309,0.0076489,0.0031779,-0.29192,0.024887,-9.8526,0,0,45.411,1,1,753,997
5308,4.6289e+07,1,0.0064356,0.0083253,0.0032751,-0.26258,0.030525,-9.8449,0,0,45.412,1,1,753,997
5311,4.6292e+07,1,0.0056297,0.0076305,0.0051107,-0.24093,0.030384,-9.8269,0,0,45.412,1,1,753,997
5342,4.6295e+07,1,0.0013588,0.0032308,0.010321,-0.22267,0.031172,-9.8109,0,0,45.412,1,1,753,997
5345,4.6297e+07,1,0.00033492,0.0029326,0.011525,-0.22013,0.027796,-9.8059,0,0,45.412,1,1,753,997
5349,4.63e+07,1,-0.00042221,0.0039295,0.012059,-0.23057,0.012764,-9.7956,0,0,45.412,1,1,753,997
5352,4.6302e+07,1,0.0008759,0.0071428,0.0091858,-0.24197,0.0036997,-9.814,0,0,45.412,1,1,753,997
5383,4.6304e+07,1,0.0025512,0.011131,0.0059997,-0.2539,-0.025672,-9.8626,0,0,45.412,1,1,753,997
5386,4.6308e+07,1,0.0029291,0.01325,0.0036519,-0.25128,-0.05383,-9.8872,0,0,45.412,1,1,753,997
5389,4.631e+07,1,0.0012793,0.012285,0.004927,-0.25123,-0.09466,-9.9162,0,0,45.412,1,1,753,997
5392,4.6312e+07,1,-0.0025958,0.010021,0.0063388,-0.25063,-0.10652,-9.9279,0,0,45.412,1,1,753,997
5423,4.6314e+07,1,-0.0068366,0.010538,0.003124,-0.24374,-0.10178,-9.8973,0,0,45.412,1,1,753,997
5426,4.6317e+07,1,-0.0085993,0.011297,0.0012859,-0.23285,-0.092072,-9.8631,0,0,45.412,1,1,753,997
5430,4.632e+07,1,-0.011262,0.011495,-0.00063353,-0.22257,-0.070489,-9.8106,0,0,45.412,1,1,753,997
5433,4.6324e+07,1,-0.010135,0.010881,-0.00081435,-0.21047,-0.047104,-9.79,0,0,45.413,1,1,753,997
5436,4.6325e+07,1,-0.0072379,0.009189,-0.00061855,-0.19223,-0.017512,-9.7852,0,0,45.413,1,1,753,997
5467,4.6327e+07,1,-0.0057695,0.0066443,-0.0039535,-0.19242,-0.0058241,-9.8027,0,0,45.413,1,1,753,997
5470,4.633e+07,1,-0.005949,0.0059472,-0.00544,-0.20706,-0.0038344,-9.811,0,0,45.413,1,1,753,997
5473,4.6333e+07,1,-0.0061343,0.0038411,-0.0052811,-0.23587,-0.0070621,-9.821,0,0,45.413,1,1,753,997
5476,4.6336e+07,1,-0.0074871,0.0045776,-0.004372,-0.24671,-0.0094428,-9.8253,0,0,45.413,1,1,753,997
5507,4.6338e+07,1,-0.0089749,0.0086934,-0.0048875,-0.26086,-0.010407,-9.8227,0,0,45.413,1,1,753,997
5511,4.6341e+07,1,-0.0091077,0.012291,-0.0053149,-0.27977,-0.012728,-9.8133,0,0,45.413,1,1,753,997
5514,4.6343e+07,1,-0.0086997,0.013402,-0.0050141,-0.30251,-0.013335,-9.8078,0,0,45.413,1,1,753,997
5518,4.6346e+07,1,-0.009064,0.013051,-0.0048042,-0.31519,-0.011415,-9.8005,0,0,45.413,1,1,753,997
5549,4.6349e+07,1,-0.0066408,0.011791,-0.0017326,-0.31083,-0.012438,-9.7884,0,0,45.413,1,1,753,997
5554,4.6351e+07,1,-0.0041281,0.0072775,0.0013067,-0.29438,-0.021727,-9.7864,0,0,45.413,1,1,753,997
5557,4.6353e+07,1,-0.0033102,0.0045041,0.0024008,-0.27925,-0.025193,-9.7916,0,0,45.413,1,1,753,997
5560,4.6356e+07,1,0.00037263,-0.00077583,0.0037451,-0.26859,-0.023523,-9.8108,0,0,45.413,1,1,753,997
5591,4.6359e+07,1,0.0039215,-0.0012266,0.0043404,-0.2632,-0.032968,-9.8367,0,0,45.413,1,1,753,997
5594,4.6361e+07,1,0.0057359,0.0024953,0.0043445,-0.26092,-0.03689,-9.8397,0,0,45.413,1,1,753,997
5597,4.6364e+07,1,0.0061255,0.0041838,0.0037102,-0.26131,-0.048521,-9.8422,0,0,45.413,1,1,753,997
5600,4.6366e+07,1,0.0063598,0.0054759,0.0038551,-0.25141,-0.073971,-9.8326,0,0,45.414,1,1,753,997
5631,4.6369e+07,1,0.0019247,0.0076509,0.0061673,-0.23757,-0.077734,-9.8225,0,0,45.414,1,1,753,997
5635,4.6372e+07,1,-3.7185e-05,0.0074671,0.0067681,-0.23013,-0.07414,-9.8096,0,0,45.414,1,1,753,997
5642,4.6374e+07,1,-0.0019026,0.0077283,0.0065822,-0.22671,-0.057471,-9.7921,0,0,45.414,1,1,753,997
5645,4.6377e+07,1,-0.00095176,0.0075749,0.0065744,-0.23545,-0.040199,-9.7895,0,0,45.414,1,1,753,997
5676,4.6379e+07,1,0.0023424,0.0049698,0.0084049,-0.25338,-0.0136,-9.7858,0,0,45.414,1,1,753,997
5679,4.6382e+07,1,0.0059406,0.0025173,0.007728,-0.26747,-0.015069,-9.7833,0,0,45.414,1,1,753,997
5682,4.6384e+07,1,0.0081639,0.0019251,0.0064123,-0.281,-0.024076,-9.776,0,0,45.414,1,1,753,997
5686,4.6387e+07,1,0.0084401,0.0015745,0.0059795,-0.3002,-0.032513,-9.7667,0,0,45.414,1,1,753,997
5717,4.639e+07,1,0.0065099,0.0010864,0.0052601,-0.31756,-0.037275,-9.7667,0,0,45.414,1,1,753,997
5721,4.6392e+07,1,0.004736,0.0022311,0.0022529,-0.34408,-0.038627,-9.7616,0,0,45.414,1,1,753,997
5724,4.6395e+07,1,0.0027027,0.0038517,0.001819,-0.35973,-0.04126,-9.7555,0,0,45.414,1,1,753,997
5727,4.6397e+07,1,0.0028675,0.0025566,0.0039112,-0.37023,-0.039011,-9.7438,0,0,45.414,1,1,753,997
5758,4.6399e+07,1,0.0045266,0.0016771,0.0043954,-0.35963,-0.034292,-9.7365,0,0,45.414,1,1,753,997
5761,4.6402e+07,1,0.0077324,0.0017769,0.0044785,-0.33201,-0.03211,-9.7463,0,0,45.414,1,1,753,997
5764,4.6404e+07,1,0.0062769,0.0025174,0.0046463,-0.3148,-0.032176,-9.7493,0,0,45.414,1,1,753,997
5767,4.6407e+07,1,0.0023171,0.0038507,0.0036743,-0.28027,-0.028094,-9.7679,0,0,45.414,1,1,753,997
5800,4.641e+07,1,-0.0017423,0.00092555,0.0038783,-0.25585,-0.010161,-9.8098,0,0,45.414,1,1,753,997
5804,4.6412e+07,1,-0.0017139,0.00085968,0.0039112,-0.24808,0.0095664,-9.8381,0,0,45.414,1,1,753,997
5807,4.6416e+07,1,0.00098444,0.0050265,0.0022662,-0.24918,0.023786,-9.8631,0,0,45.414,1,1,753,997
5810,4.6417e+07,1,0.0053806,0.010844,-0.0015093,-0.26524,0.02764,-9.8859,0,0,45.414,1,1,753,997
5841,4.6422e+07,1,0.0091187,0.013124,0.00057469,-0.29261,0.0097662,-9.8519,0,0,45.415,1,1,753,997
5845,4.6426e+07,1,0.0088008,0.011823,0.0058191,-0.29083,0.0066657,-9.8309,0,0,45.415,1,1,753,997
5848,4.6427e+07,1,0.0086836,0.010581,0.0076063,-0.28591,-0.0057551,-9.8148,0,0,45.415,1,1,753,997
5879,4.643e+07,1,0.0077457,0.0042568,0.0086897,-0.27966,-0.023323,-9.7939,0,0,45.415,1,1,753,997
5882,4.6433e+07,1,0.0057208,0.0022366,0.0056986,-0.26822,-0.039942,-9.7751,0,0,45.415,1,1,753,997
5886,4.6436e+07,1,0.004364,0.0030114,0.0041857,-0.25867,-0.056322,-9.7543,0,0,45.415,1,1,753,997
5889,4.6438e+07,1,0.0031871,0.0058331,0.0014042,-0.2541,-0.075315,-9.7357,0,0,45.415,1,1,753,997
5920,4.644e+07,1,0.0031916,0.007242,0.00038482,-0.25349,-0.092734,-9.7064,0,0,45.415,1,1,753,997
5923,4.6443e+07,1,0.0027449,0.0097522,0.0034845,-0.26469,-0.095376,-9.7061,0,0,45.415,1,1,753,997
5928,4.6446e+07,1,0.0032931,0.010471,0.0042401,-0.28024,-0.090492,-9.7075,0,0,45.415,1,1,753,997
5931,4.6448e+07,1,0.0035619,0.010563,0.0044941,-0.29082,-0.083902,-9.7012,0,0,45.415,1,1,753,997
5962,4.6451e+07,1,-0.00083585,0.0052748,0.0035641,-0.29442,-0.09053,-9.6714,0,0,45.415,1,1,753,997
5965,4.6453e+07,1,-0.0026922,0.0042352,0.0029981,-0.28943,-0.10095,-9.6361,0,0,45.415,1,1,753,997
5968,4.6455e+07,1,-0.0028595,0.0041251,0.0038701,-0.27609,-0.12017,-9.6037,0,0,45.415,1,1,753,997
5971,4.6458e+07,1,-0.00077681,0.0048011,0.004235,-0.25241,-0.14095,-9.5807,0,0,45.415,1,1,753,997
6002,4.6461e+07,1,-0.0015521,0.0062068,0.0036328,-0.22827,-0.15208,-9.5759,0,0,45.415,1,1,753,997
6005,4.6464e+07,1,-0.0033831,0.005774,0.0031382,-0.22007,-0.14807,-9.5871,0,0,45.415,1,1,753,997
6009,4.6466e+07,1,-0.0048861,0.0035783,0.0010649,-0.23476,-0.11486,-9.6255,0,0,45.415,1,1,753,997
6012,4.6469e+07,1,-0.004484,0.0038304,0.0010083,-0.25439,-0.081002,-9.6651,0,0,45.415,1,1,753,997
6043,4.6471e+07,1,-0.00092842,0.0047328,0.0073051,-0.27602,-0.034594,-9.7227,0,0,45.415,1,1,753,997
6046,4.6474e+07,1,0.003191,0.005436,0.010049,-0.29065,-0.027434,-9.7454,0,0,45.415,1,1,753,997
6054,4.6477e+07,1,0.0045621,0.0062103,0.0094433,-0.29734,-0.030402,-9.753,0,0,45.415,1,1,753,997
6058,4.6478e+07,1,0.0058965,0.0084869,0.0046531,-0.30186,-0.035867,-9.7619,0,0,45.415,1,1,753,997
6089,4.6482e+07,1,0.0055501,0.0087341,0.004094,-0.30778,-0.046503,-9.7634,0,0,45.415,1,1,753,997
6092,4.6484e+07,1,0.0043429,0.0089812,0.0054908,-0.30793,-0.063346,-9.7613,0,0,45.415,1,1,753,997
6095,4.6487e+07,1,0.00025927,0.010186,0.0063323,-0.29296,-0.069046,-9.7583,0,0,45.415,1,1,753,997
6098,4.6488e+07,1,-0.0026173,0.012234,0.005072,-0.26606,-0.072935,-9.7576,0,0,45.415,1,1,753,997
6129,4.6491e+07,1,-0.0039801,0.011259,0.0032238,-0.24955,-0.077306,-9.7472,0,0,45.415,1,1,753,997
6132,4.6494e+07,1,-0.0040504,0.009299,-0.00021732,-0.24084,-0.085447,-9.7317,0,0,45.415,1,1,753,997
6136,4.6496e+07,1,-0.0055778,0.0075351,-0.0029232,-0.24387,-0.07897,-9.7281,0,0,45.415,1,1,753,997
6139,4.6499e+07,1,-0.0061537,0.0064819,-0.0043475,-0.2656,-0.0581,-9.7231,0,0,45.415,1,1,753,997
6170,4.6501e+07,1,-0.0062418,0.007457,-0.0054582,-0.28786,-0.047681,-9.7138,0,0,45.415,1,1,753,997
6173,4.6504e+07,1,-0.006633,0.011724,-0.0094736,-0.319,-0.026366,-9.7185,0,0,45.415,1,1,753,997
6176,4.6507e+07,1,-0.007052,0.012238,-0.0093561,-0.33313,-0.019956,-9.7236,0,0,45.415,1,1,753,997
6179,4.6509e+07,1,-0.0065861,0.01143,-0.0072908,-0.34234,-0.010172,-9.718,0,0,45.415,1,1,753,997
6210,4.6512e+07,1,-0.0050876,0.007752,-0.00067011,-0.35169,-0.0030062,-9.7223,0,0,45.415,1,1,753,997
6213,4.6514e+07,1,-0.0038156,0.0075281,0.0011198,-0.35334,0.00090287,-9.7361,0,0,45.415,1,1,753,997
6217,4.6516e+07,1,-0.00057514,0.0077493,0.004668,-0.35204,0.0090767,-9.7576,0,0,45.415,1,1,753,997
6220,4.6519e+07,1,0.0018985,0.0078846,0.0073933,-0.3532,0.010326,-9.7802,0,0,45.416,1,1,753,997
6251,4.6525e+07,1,0.0048812,0.0041713,0.0069765,-0.35575,-0.0081317,-9.8353,0,0,45.416,1,1,753,997
6254,4.6527e+07,1,0.0026442,0.0055146,0.0041142,-0.35397,-0.01451,-9.8267,0,0,45.416,1,1,753,997
6257,4.6529e+07,1,0.0016371,0.0060778,0.0025765,-0.35437,-0.015682,-9.8197,0,0,45.416,1,1,753,997
6288,4.6532e+07,1,0.0029644,0.0043829,0.0024303,-0.34004,-0.020392,-9.8211,0,0,45.416,1,1,753,997
6291,4.6535e+07,1,0.0043405,0.0055074,0.0029959,-0.3304,-0.018435,-9.8259,0,0,45.416,1,1,753,997
6295,4.6537e+07,1,0.0062507,0.0095692,0.0061893,-0.32997,0.0052496,-9.8297,0,0,45.416,1,1,753,997
6299,4.6539e+07,1,0.0058479,0.010036,0.0076395,-0.32877,0.038844,-9.8403,0,0,45.416,1,1,753,997
6332,4.6542e+07,1,0.0035934,0.0097626,0.0073361,-0.3219,0.069424,-9.8579,0,0,45.416,1,1,753,997
6336,4.6544e+07,1,-0.0014203,0.0074162,0.0033183,-0.32377,0.068559,-9.8609,0,0,45.416,1,1,753,997
6340,4.6547e+07,1,-0.0077163,0.0075638,-0.00022932,-0.32272,0.04202,-9.8386,0,0,45.416,1,1,753,997
6344,4.655e+07,1,-0.01003,0.011016,-7.254e-05,-0.31748,0.018864,-9.8073,0,0,45.416,1,1,753,997
6375,4.6552e+07,1,-0.0065403,0.012767,0.001562,-0.30861,-0.025588,-9.7625,0,0,45.416,1,1,753,997
6378,4.6555e+07,1,-0.0013136,0.013032,0.0024749,-0.29929,-0.070867,-9.737,0,0,45.416,1,1,753,997
6381,4.6558e+07,1,0.0036985,0.011452,0.002309,-0.30046,-0.078863,-9.7337,0,0,45.416,1,1,753,997
6384,4.656e+07,1,0.0063667,0.0093293,0.00055992,-0.31106,-0.07672,-9.7299,0,0,45.416,1,1,753,997
6415,4.6563e+07,1,0.0085047,0.0069094,0.0013154,-0.31426,-0.075382,-9.7293,0,0,45.416,1,1,753,997
6418,4.6565e+07,1,0.0097956,0.0057906,0.00082129,-0.30714,-0.075374,-9.7297,0,0,45.416,1,1,753,997
6422,4.6567e+07,1,0.0099865,0.0063625,-6.4087e-06,-0.29759,-0.079019,-9.7349,0,0,45.416,1,1,753,997
6425,4.6571e+07,1,0.0078757,0.007827,-0.0010438,-0.29942,-0.079997,-9.7596,0,0,45.416,1,1,753,997
6456,4.6573e+07,1,0.0049344,0.0057994,-0.0020939,-0.30239,-0.075445,-9.8047,0,0,45.416,1,1,753,997
6459,4.6576e+07,1,0.0049219,0.0063729,-0.00099557,-0.30089,-0.068039,-9.8349,0,0,45.416,1,1,753,997
6466,4.6578e+07,1,0.0015459,0.0092581,0.00030791,-0.29065,-0.05918,-9.8583,0,0,45.416,1,1,753,997
6469,4.6581e+07,1,-9.2681e-05,0.0096461,0.00070098,-0.28978,-0.051736,-9.8723,0,0,45.416,1,1,753,997
6500,4.6583e+07,1,-0.0019976,0.0093856,0.0038423,-0.29981,-0.045471,-9.8885,0,0,45.416,1,1,753,997
6503,4.6586e+07,1,0.00036731,0.0086029,0.010188,-0.3072,-0.033482,-9.8958,0,0,45.416,1,1,753,997
6508,4.6588e+07,1,0.0017846,0.0087042,0.011416,-0.31169,-0.026247,-9.8994,0,0,45.416,1,1,753,997
6511,4.6591e+07,1,0.0045286,0.007353,0.013143,-0.31239,-0.031787,-9.8767,0,0,45.416,1,1,753,997
6544,4.6594e+07,1,0.0063567,0.0059588,0.014984,-0.30586,-0.036961,-9.8507,0,0,45.416,1,1,753,997
6547,4.6596e+07,1,0.0078323,0.0059784,0.013108,-0.28515,-0.056085,-9.8043,0,0,45.416,1,1,753,997
6550,4.6599e+07,1,0.0081656,0.0068277,0.0091796,-0.26541,-0.063676,-9.7646,0,0,45.416,1,1,753,997
6553,4.6601e+07,1,0.0085145,0.0089229,0.0061615,-0.24285,-0.067865,-9.7138,0,0,45.416,1,1,753,997
6584,4.6603e+07,1,0.0086242,0.0087875,0.0057122,-0.23252,-0.070369,-9.694,0,0,45.416,1,1,753,997
6587,4.6606e+07,1,0.0046419,0.0052933,0.0057766,-0.21579,-0.094469,-9.6858,0,0,45.416,1,1,753,997
6591,4.6608e+07,1,0.0022442,0.004617,0.0046248,-0.2081,-0.10589,-9.6841,0,0,45.416,1,1,753,997
6594,4.6611e+07,1,-0.0016466,0.0043254,0.0020988,-0.20533,-0.093,-9.6821,0,0,45.416,1,1,753,997
6625,4.6613e+07,1,-0.0035215,0.0056566,-0.0010273,-0.21032,-0.081601,-9.6927,0,0,45.416,1,1,753,997
6628,4.6616e+07,1,-0.0031415,0.0079957,-0.00097996,-0.22421,-0.062189,-9.7165,0,0,45.416,1,1,753,997
6632,4.6621e+07,1,-0.0010715,0.0058859,0.00039302,-0.24038,-0.03079,-9.7208,0,0,45.416,1,1,753,997
6663,4.6625e+07,1,-0.00085959,0.0045964,0.00037714,-0.24232,-0.022584,-9.7272,0,0,45.416,1,1,753,997
6666,4.6626e+07,1,0.00095602,0.0016073,-0.00064949,-0.23976,-0.022113,-9.7303,0,0,45.416,1,1,753,997
6669,4.6629e+07,1,0.0014322,-4.9757e-05,0.00062954,-0.24174,-0.019622,-9.7286,0,0,45.416,1,1,753,997
6672,4.6631e+07,1,-0.00031378,0.0027903,0.0036513,-0.25482,-0.015229,-9.7436,0,0,45.416,1,1,753,997
6703,4.6634e+07,1,-0.0027435,0.0070452,0.0039871,-0.27979,-0.010792,-9.7533,0,0,45.416,1,1,753,997
6706,4.6636e+07,1,-0.0049316,0.0086595,0.0027981,-0.29701,-0.011169,-9.7662,0,0,45.416,1,1,753,997
6711,4.6639e+07,1,-0.0095064,0.010763,-0.00012002,-0.31718,-0.025172,-9.7875,0,0,45.416,1,1,753,997
6714,4.6642e+07,1,-0.010803,0.010777,-0.0010033,-0.33593,-0.044539,-9.8318,0,0,45.416,1,1,753,997
6745,4.6644e+07,1,-0.0095941,0.0096186,-0.00088292,-0.3394,-0.034045,-9.8513,0,0,45.416,1,1,753,997
6748,4.6647e+07,1,-0.0055591,0.0077642,-8.6208e-05,-0.34786,-0.020855,-9.8463,0,0,45.416,1,1,753,997
6752,4.6649e+07,1,-0.0042173,0.0061082,0.0020714,-0.3671,-0.011866,-9.8167,0,0,45.416,1,1,753,997
6755,4.6652e+07,1,-0.0045322,0.0041671,0.0031465,-0.37416,-0.0032311,-9.7991,0,0,45.416,1,1,753,997
6786,4.6654e+07,1,-0.0045666,0.0061514,0.0033767,-0.3752,-0.0037819,-9.775,0,0,45.416,1,1,753,997
6789,4.6657e+07,1,-0.0048345,0.0070194,0.0033706,-0.36862,-0.0043631,-9.7675,0,0,45.416,1,1,753,997
6793,4.6659e+07,1,-0.0063589,0.0045386,0.0026246,-0.36097,0.0030987,-9.7577,0,0,45.416,1,1,753,997
6796,4.6662e+07,1,-0.0064561,0.003683,0.0038001,-0.36048,0.024446,-9.7488,0,0,45.416,1,1,753,997
6827,4.6664e+07,1,-0.0070547,0.0038991,0.01101,-0.35464,0.050868,-9.7375,0,0,45.416,1,1,753,997
6830,4.6667e+07,1,-0.0073065,0.0050097,0.01182,-0.34675,0.065263,-9.7435,0,0,45.416,1,1,753,997
6833,4.6669e+07,1,-0.0074068,0.0088586,0.0092528,-0.32584,0.072554,-9.7679,0,0,45.416,1,1,753,997
6837,4.6672e+07,1,-0.0072207,0.012082,0.005341,-0.30944,0.068668,-9.7686,0,0,45.416,1,1,753,997
6868,4.6674e+07,1,-0.0072946,0.012345,0.0031057,-0.29284,0.061023,-9.7617,0,0,45.416,1,1,753,997
6871,4.6677e+07,1,-0.0059037,0.011675,0.0040702,-0.27981,0.067738,-9.7502,0,0,45.416,1,1,753,997
6879,4.6679e+07,1,-0.0037897,0.011052,0.0081861,-0.25107,0.067425,-9.7332,0,0,45.416,1,1,753,997
6882,4.6681e+07,1,-0.0030197,0.0097092,0.00981,-0.24167,0.063524,-9.7237,0,0,45.416,1,1,753,997
6913,4.6684e+07,1,-0.0022553,0.0042626,0.0097289,-0.22498,0.047754,-9.7189,0,0,45.416,1,1,753,997
6916,4.6687e+07,1,-0.0025391,0.0036793,0.0080227,-0.21337,0.032149,-9.7189,0,0,45.416,1,1,753,997
6920,4.6689e+07,1,-0.0023887,0.0027272,0.0020655,-0.22096,0.0047328,-9.7259,0,0,45.416,1,1,753,997
6923,4.6691e+07,1,-6.2719e-05,0.0054452,-0.00029871,-0.23195,-0.013081,-9.7369,0,0,45.416,1,1,753,997
6954,4.6694e+07,1,0.0023455,0.010063,0.0038834,-0.24327,-0.029684,-9.7566,0,0,45.416,1,1,753,997
6957,4.6697e+07,1,0.0039608,0.012037,0.010097,-0.24844,-0.047928,-9.7753,0,0,45.416,1,1,753,997
6960,4.6699e+07,1,0.004967,0.010303,0.011637,-0.26592,-0.075114,-9.7946,0,0,45.416,1,1,753,997
6963,4.6702e+07,1,0.0073128,0.0061029,0.01007,-0.27464,-0.094502,-9.7896,0,0,45.416,1,1,753,997
6994,4.6704e+07,1,0.0054226,0.0055872,0.0077874,-0.28299,-0.12155,-9.7567,0,0,45.416,1,1,753,997
6997,4.6707e+07,1,0.0033318,0.0065479,0.0066344,-0.28386,-0.12895,-9.7299,0,0,45.416,1,1,753,997
7001,4.6709e+07,1,0.0017407,0.0090699,0.0038494,-0.28298,-0.12846,-9.7093,0,0,45.416,1,1,753,997
7004,4.6712e+07,1,0.0019927,0.0092627,0.0029513,-0.28175,-0.11713,-9.7151,0,0,45.416,1,1,753,997
7035,4.6715e+07,1,0.0039362,0.0088558,0.00066897,-0.29351,-0.095676,-9.7352,0,0,45.416,1,1,753,997
7038,4.6717e+07,1,0.0084234,0.007588,0.00036032,-0.30376,-0.085342,-9.7618,0,0,45.416,1,1,753,997
7041,4.6719e+07,1,0.0095196,0.0071297,0.00043909,-0.31189,-0.081579,-9.766,0,0,45.416,1,1,753,997
7044,4.6722e+07,1,0.01059,0.0057025,0.00031231,-0.31587,-0.065232,-9.7664,0,0,45.416,1,1,753,997
7075,4.6725e+07,1,0.0078455,0.0046869,-0.00049156,-0.3116,-0.047043,-9.7935,0,0,45.416,1,1,753,997
7079,4.6727e+07,1,0.0035516,0.0049992,-0.0009307,-0.30359,-0.026468,-9.8426,0,0,45.416,1,1,753,997
7083,4.673e+07,1,0.0032381,0.0036177,0.0005167,-0.29976,-0.02151,-9.8772,0,0,45.416,1,1,753,997
7086,4.6732e+07,1,0.0055667,0.00083069,0.001907,-0.30365,-0.019494,-9.9015,0,0,45.416,1,1,753,997
7117,4.6734e+07,1,0.0070774,0.00077107,0.0022996,-0.30773,-0.016556,-9.8987,0,0,45.416,1,1,753,997
7120,4.6737e+07,1,0.0090771,0.00086646,0.002702,-0.30737,-0.0086849,-9.8904,0,0,45.416,1,1,753,997
7124,4.6742e+07,1,0.0098454,-0.0027626,0.0035724,-0.30572,-0.02757,-9.8364,0,0,45.416,1,1,753,997
7155,4.6744e+07,1,0.0081695,-0.0021657,0.00051963,-0.30308,-0.034849,-9.8058,0,0,45.416,1,1,753,997
7158,4.6747e+07,1,0.0071458,-0.0016325,6.5547e-05,-0.30824,-0.022119,-9.7944,0,0,45.416,1,1,753,997
7161,4.675e+07,1,0.0072564,-0.0010302,0.0039728,-0.33874,-9.9344e-05,-9.7762,0,0,45.416,1,1,753,997
7165,4.6752e+07,1,0.0077951,-0.00017491,0.0048346,-0.35873,0.0049769,-9.7649,0,0,45.417,1,1,753,997
7196,4.6755e+07,1,0.0097039,0.0017984,0.0057959,-0.36084,0.0090885,-9.7492,0,0,45.417,1,1,753,997
7199,4.6757e+07,1,0.010722,0.0019948,0.0076825,-0.3536,0.0069579,-9.7407,0,0,45.417,1,1,753,997
7203,4.676e+07,1,0.0077199,0.0030682,0.0093927,-0.33682,-0.0074715,-9.7661,0,0,45.417,1,1,753,997
7206,4.6763e+07,1,0.0039089,0.0059244,0.008096,-0.3324,-0.020839,-9.7767,0,0,45.417,1,1,753,997
7237,4.6766e+07,1,0.0018386,0.0081432,0.0052016,-0.32961,-0.035685,-9.7931,0,0,45.417,1,1,753,997
7240,4.6768e+07,1,0.00022638,0.0085541,0.0054354,-0.32263,-0.035891,-9.7832,0,0,45.417,1,1,753,997
7243,4.6771e+07,1,-0.0011545,0.0088835,0.0064236,-0.31344,-0.042466,-9.774,0,0,45.417,1,1,753,997
7246,4.6773e+07,1,-0.0016484,0.0074398,0.0068842,-0.29352,-0.062979,-9.7658,0,0,45.417,1,1,753,997
7277,4.6776e+07,1,-0.0021614,0.0040054,0.0057181,-0.28549,-0.06612,-9.753,0,0,45.417,1,1,753,997
7281,4.6778e+07,1,-0.0037237,0.0032968,0.0055191,-0.28204,-0.060592,-9.7345,0,0,45.417,1,1,753,997
7290,4.6781e+07,1,-0.0038457,0.0043293,0.0058843,-0.28217,-0.054957,-9.7128,0,0,45.417,1,1,753,997
7293,4.6783e+07,1,-0.002375,0.0061234,0.0064995,-0.2827,-0.045005,-9.6748,0,0,45.417,1,1,753,997
7324,4.6785e+07,1,-0.0017766,0.0067705,0.0090464,-0.28211,-0.041271,-9.6516,0,0,45.417,1,1,753,997
7327,4.6788e+07,1,-0.0013825,0.0069718,0.010848,-0.27775,-0.048564,-9.6422,0,0,45.417,1,1,753,997
7330,4.6791e+07,1,-0.0015654,0.0067962,0.011979,-0.27186,-0.055954,-9.641,0,0,45.417,1,1,753,997
7333,4.6793e+07,1,-0.0018101,0.007395,0.010328,-0.27301,-0.064925,-9.6574,0,0,45.417,1,1,753,997
7366,4.6796e+07,1,0.00012448,0.0073874,0.009245,-0.27828,-0.078727,-9.7114,0,0,45.417,1,1,753,997
7369,4.6798e+07,1,0.0024986,0.0050824,0.0068999,-0.28205,-0.080991,-9.7733,0,0,45.417,1,1,753,997
7373,4.6801e+07,1,0.0025227,0.002762,0.0049048,-0.29257,-0.057226,-9.8687,0,0,45.417,1,1,753,997
7376,4.6804e+07,1,0.00057122,0.0037574,0.0031128,-0.29658,-0.037724,-9.9216,0,0,45.417,1,1,753,997
7407,4.6807e+07,1,0.00043315,0.00905,8.7299e-05,-0.29296,-0.0083158,-9.9639,0,0,45.417,1,1,753,997
7410,4.6809e+07,1,0.0014008,0.011589,-0.00054124,-0.28527,0.0060643,-9.9694,0,0,45.418,1,1,753,997
7413,4.6811e+07,1,0.0021762,0.010758,0.0014716,-0.28351,0.0082072,-9.9433,0,0,45.418,1,1,753,997
7416,4.6814e+07,1,0.0031703,0.006798,0.0049441,-0.27303,-0.0025599,-9.8954,0,0,45.418,1,1,753,997
7447,4.6816e+07,1,0.0029603,0.0055286,0.0064791,-0.27129,-0.013932,-9.8674,0,0,45.418,1,1,753,997
7450,4.6819e+07,1,-0.0018418,0.0050767,0.0053026,-0.27872,-0.030838,-9.8327,0,0,45.418,1,1,753,997
7455,4.6822e+07,1,-0.0025584,0.0054224,0.0036207,-0.28304,-0.039958,-9.8188,0,0,45.418,1,1,753,997
7458,4.6824e+07,1,-0.0031044,0.0066614,0.0033891,-0.27854,-0.03354,-9.7964,0,0,45.418,1,1,753,997
7489,4.6827e+07,1,-0.0033628,0.0083006,0.0063524,-0.27053,-0.028698,-9.7814,0,0,45.418,1,1,753,997
7492,4.6829e+07,1,-0.0044927,0.007277,0.0065787,-0.27037,-0.019059,-9.7764,0,0,45.418,1,1,753,997
7496,4.6833e+07,1,-0.003706,0.003868,0.0050128,-0.27062,-0.010418,-9.7782,0,0,45.418,1,1,753,997
7499,4.6834e+07,1,-0.0035507,0.0033277,0.004446,-0.28397,0.005247,-9.7776,0,0,45.418,1,1,753,997
7530,4.6836e+07,1,-0.0021353,0.0044249,0.0036736,-0.301,0.013,-9.7744,0,0,45.418,1,1,753,997
7534,4.6839e+07,1,-0.0020155,0.0043302,0.0027372,-0.32082,0.020269,-9.7601,0,0,45.418,1,1,753,997
7537,4.6842e+07,1,-0.0034798,0.0030965,0.0033189,-0.32496,0.02222,-9.7657,0,0,45.418,1,1,753,997
7540,4.6844e+07,1,-0.0096197,-0.00099395,0.0070721,-0.33829,-0.0026676,-9.7784,0,0,45.418,1,1,753,997
7571,4.6848e+07,1,-0.010997,-0.0010679,0.0069914,-0.34378,-0.019975,-9.7916,0,0,45.418,1,1,753,997
7574,4.6849e+07,1,-0.008427,-0.00017423,0.0039806,-0.34151,-0.029115,-9.8169,0,0,45.418,1,1,753,997
7578,4.6851e+07,1,0.00082552,0.0007508,0.0016067,-0.34054,-0.031892,-9.8334,0,0,45.418,1,1,753,997
7582,4.6854e+07,1,0.0026425,0.0012143,0.0017828,-0.34053,-0.027301,-9.8484,0,0,45.418,1,1,753,997
7613,4.6857e+07,1,0.0039729,0.0014906,0.0028652,-0.33545,-0.016084,-9.8536,0,0,45.418,1,1,753,997
7616,4.686e+07,1,0.0028733,0.0017545,0.0044554,-0.33048,-0.0098481,-9.848,0,0,45.418,1,1,753,997
7619,4.6862e+07,1,0.00091466,0.0003391,0.0057667,-0.32043,0.00014518,-9.8437,0,0,45.418,1,1,753,997
7623,4.6865e+07,1,-0.0007946,-0.0018403,0.0072489,-0.31055,0.0081866,-9.8288,0,0,45.419,1,1,753,997
7654,4.6867e+07,1,-0.00077746,-0.0019252,0.0080661,-0.29589,0.016601,-9.8223,0,0,45.419,1,1,753,997
7658,4.687e+07,1,0.00027466,-0.00077233,0.0078126,-0.29292,0.023929,-9.8207,0,0,45.419,1,1,753,997
7662,4.6872e+07,1,0.0029172,0.0048853,0.0064767,-0.297,0.031574,-9.8085,0,0,45.419,1,1,753,997
7665,4.6874e+07,1,0.0035545,0.0049802,0.0064912,-0.30867,0.030944,-9.7989,0,0,45.419,1,1,753,997
7696,4.6876e+07,1,0.004289,0.0031959,0.0078061,-0.32737,0.030067,-9.771,0,0,45.419,1,1,753,997
7699,4.6879e+07,1,0.0037767,0.0029226,0.0097162,-0.33072,0.028869,-9.7668,0,0,45.419,1,1,753,997
7707,4.6882e+07,1,0.0038216,-0.00019383,0.011677,-0.32517,0.029341,-9.7804,0,0,45.419,1,1,753,997
7710,4.6885e+07,1,0.0066632,-0.001859,0.0093616,-0.31644,0.019162,-9.7958,0,0,45.419,1,1,753,997
7741,4.6887e+07,1,0.0069577,-9.3182e-05,0.010017,-0.29204,-0.0057698,-9.8206,0,0,45.419,1,1,753,997
7744,4.689e+07,1,0.006196,0.0017107,0.013336,-0.27026,-0.019655,-9.8262,0,0,45.419,1,1,753,997
7747,4.6892e+07,1,0.0065434,0.0038725,0.013488,-0.23955,-0.039784,-9.8009,0,0,45.419,1,1,753,997
7750,4.6895e+07,1,0.0068412,0.003167,0.012712,-0.22307,-0.054284,-9.769,0,0,45.419,1,1,753,997
7781,4.6898e+07,1,0.0037466,0.0022858,0.012035,-0.20976,-0.069818,-9.7183,0,0,45.42,1,1,753,997
7784,4.69e+07,1,0.00059671,0.0027122,0.011631,-0.22095,-0.065268,-9.703,0,0,45.42,1,1,753,997
7788,4.6902e+07,1,0.0002779,0.0033696,0.010881,-0.23352,-0.056763,-9.7157,0,0,45.42,1,1,753,997
7791,4.6905e+07,1,0.0031281,0.0065676,0.0074638,-0.25511,-0.04195,-9.7638,0,0,45.42,1,1,753,997
7822,4.6908e+07,1,0.0042101,0.0056955,0.0064349,-0.27056,-0.029199,-9.8294,0,0,45.42,1,1,753,997
7825,4.691e+07,1,0.0045429,0.0042543,0.0062783,-0.27155,-0.018246,-9.8745,0,0,45.42,1,1,753,997
7828,4.6913e+07,1,0.0052726,0.0036958,0.0052302,-0.26843,-0.013471,-9.9012,0,0,45.42,1,1,753,997
7831,4.6915e+07,1,0.0050831,0.0040126,0.0052072,-0.26355,-0.01179,-9.9221,0,0,45.42,1,1,753,997
7862,4.6918e+07,1,0.00086197,0.0049701,0.0041282,-0.25611,-0.022085,-9.935,0,0,45.42,1,1,753,997
7865,4.6921e+07,1,0.00065924,0.0057564,0.0034209,-0.24258,-0.030854,-9.9496,0,0,45.42,1,1,753,997
7870,4.6924e+07,1,0.0024185,0.0088543,0.0015922,-0.21764,-0.049534,-9.9384,0,0,45.42,1,1,753,997
7873,4.6925e+07,1,0.0056815,0.011062,0.0040441,-0.20367,-0.059479,-9.9127,0,0,45.42,1,1,753,997
7904,4.6928e+07,1,0.0053473,0.0098129,0.008239,-0.19326,-0.061749,-9.8698,0,0,45.42,1,1,753,997
7907,4.6931e+07,1,0.0014409,0.0077401,0.0082155,-0.18998,-0.055207,-9.8557,0,0,45.42,1,1,753,997
7910,4.6933e+07,1,-0.0012701,0.0068545,0.0065391,-0.18224,-0.050907,-9.8542,0,0,45.42,1,1,753,997
7913,4.6936e+07,1,-0.001307,0.0073295,0.0063448,-0.16995,-0.055292,-9.8587,0,0,45.42,1,1,753,997
7916,4.6938e+07,1,0.0032848,0.0090373,0.0086332,-0.16298,-0.072516,-9.8596,0,0,45.42,1,1,753,997
7947,4.694e+07,1,0.0048212,0.0088254,0.0093269,-0.16997,-0.088237,-9.8527,0,0,45.421,1,1,753,997
7951,4.6943e+07,1,0.0073459,0.0056863,0.0091193,-0.19126,-0.098966,-9.8507,0,0,45.421,1,1,753,997
7954,4.6945e+07,1,0.0086078,0.0042263,0.0068964,-0.20715,-0.10437,-9.8606,0,0,45.421,1,1,753,997
7957,4.6948e+07,1,0.0075121,0.0050808,0.0046925,-0.23787,-0.11243,-9.8584,0,0,45.421,1,1,753,997
7988,4.6952e+07,1,0.0070949,0.0057567,0.0034496,-0.26622,-0.11202,-9.8538,0,0,45.421,1,1,753,997
7991,4.6953e+07,1,0.0059741,0.0069677,0.0055002,-0.27628,-0.11616,-9.8466,0,0,45.421,1,1,753,997
7994,4.6956e+07,1,0.003757,0.0087584,0.0083404,-0.27474,-0.12256,-9.8416,0,0,45.421,1,1,753,997
7997,4.6958e+07,1,0.0020621,0.012362,0.0088972,-0.27088,-0.12293,-9.8379,0,0,45.421,1,1,753,997
8028,4.6961e+07,1,0.0015959,0.014339,0.0089439,-0.2673,-0.11846,-9.8355,0,0,45.421,1,1,753,997
8031,4.6964e+07,1,0.002783,0.010553,0.0075697,-0.27173,-0.11296,-9.8332,0,0,45.421,1,1,753,997
8036,4.6966e+07,1,0.003121,0.0056786,0.0061904,-0.28426,-0.12382,-9.8142,0,0,45.421,1,1,753,997
8039,4.6968e+07,1,0.001785,0.0038164,0.0052207,-0.29453,-0.13019,-9.7935,0,0,45.421,1,1,753,997
8070,4.6971e+07,1,-0.0052313,0.0041678,0.001241,-0.30525,-0.13455,-9.7624,0,0,45.421,1,1,753,997
8073,4.6974e+07,1,-0.0075892,0.0052184,-0.0015584,-0.3056,-0.13439,-9.7463,0,0,45.421,1,1,753,997
8077,4.6976e+07,1,-0.010271,0.0064683,-0.0049855,-0.30135,-0.13438,-9.7365,0,0,45.421,1,1,753,997
8080,4.6978e+07,1,-0.0088462,0.0064247,-0.0032697,-0.29863,-0.13028,-9.752,0,0,45.421,1,1,753,997
8111,4.6981e+07,1,-0.007082,0.0087104,-0.00094088,-0.30182,-0.12145,-9.772,0,0,45.421,1,1,753,997
8118,4.6983e+07,1,-0.0057132,0.01247,-0.0021949,-0.29921,-0.11714,-9.7701,0,0,45.422,1,1,753,997
8123,4.6986e+07,1,-0.0041663,0.011655,-0.0026455,-0.29756,-0.10933,-9.7784,0,0,45.422,1,1,753,997
8126,4.6989e+07,1,-0.0031151,0.0099274,-0.0016549,-0.29334,-0.10938,-9.7834,0,0,45.422,1,1,753,997
8157,4.6991e+07,1,-0.002253,0.0094408,0.0014003,-0.28814,-0.11066,-9.7949,0,0,45.422,1,1,753,997
8160,4.6993e+07,1,-0.0032677,0.0096978,0.001982,-0.28809,-0.11063,-9.8024,0,0,45.422,1,1,753,997
8164,4.6996e+07,1,-0.0054445,0.010625,0.0030413,-0.29596,-0.10639,-9.8049,0,0,45.422,1,1,753,997
8168,4.6999e+07,1,-0.0052984,0.013131,0.0047117,-0.3007,-0.10382,-9.8026,0,0,45.422,1,1,753,997
8199,4.7002e+07,1,-0.0014162,0.012306,0.0072274,-0.29891,-0.10329,-9.7785,0,0,45.422,1,1,753,997
8202,4.7003e+07,1,0.004793,0.0059727,0.0085847,-0.3134,-0.094135,-9.7675,0,0,45.422,1,1,753,997
8205,4.7006e+07,1,0.0060348,0.0048721,0.0089184,-0.32437,-0.090585,-9.7672,0,0,45.422,1,1,753,997
8208,4.7009e+07,1,0.0079309,0.0068792,0.0077017,-0.33315,-0.08526,-9.7702,0,0,45.422,1,1,753,997
8239,4.7011e+07,1,0.0096323,0.011773,0.0055483,-0.34612,-0.066963,-9.7908,0,0,45.422,1,1,753,997
8242,4.7014e+07,1,0.0094234,0.014501,0.0051365,-0.35562,-0.053173,-9.8248,0,0,45.422,1,1,753,997
8246,4.7016e+07,1,0.0051594,0.014784,0.0059679,-0.36128,-0.032558,-9.9012,0,0,45.423,1,1,753,997
8251,4.7019e+07,1,0.00355,0.012195,0.0058919,-0.35752,-0.02118,-9.9503,0,0,45.423,1,1,753,997
8282,4.7025e+07,1,0.00071915,0.0011039,0.0063158,-0.35491,-0.0051852,-9.9856,0,0,45.423,1,1,753,997
8285,4.7027e+07,1,0.00041761,0.001352,0.0074131,-0.35161,0.00013439,-9.9578,0,0,45.423,1,1,753,997
8288,4.7029e+07,1,0.00041615,0.0022147,0.0088576,-0.35476,-0.00061643,-9.918,0,0,45.423,1,1,753,997
8319,4.7031e+07,1,-0.00069888,0.0029143,0.0085325,-0.35069,-0.0075284,-9.8957,0,0,45.423,1,1,753,997
8322,4.7034e+07,1,-0.0020692,0.0013009,0.0065889,-0.33785,-0.0091534,-9.8785,0,0,45.423,1,1,753,997
8326,4.7036e+07,1,-0.0017374,0.0010451,0.0030827,-0.3273,-0.012226,-9.874,0,0,45.423,1,1,753,997
8329,4.7039e+07,1,0.0012937,0.0027173,0.0024328,-0.29736,-0.020544,-9.8559,0,0,45.423,1,1,753,997
8362,4.7044e+07,1,0.0064454,0.0095273,0.0054043,-0.23478,-0.033138,-9.771,0,0,45.423,1,1,753,997
8366,4.7047e+07,1,0.0076312,0.011685,0.005542,-0.22003,-0.032364,-9.7392,0,0,45.423,1,1,753,997
8369,4.7049e+07,1,0.010322,0.012093,0.006915,-0.19792,-0.019242,-9.6978,0,0,45.423,1,1,753,997
8400,4.7052e+07,1,0.009472,0.01121,0.0076121,-0.18798,-0.0050016,-9.6779,0,0,45.423,1,1,753,997
8403,4.7054e+07,1,0.0060508,0.0095146,0.0080354,-0.17839,0.010062,-9.6899,0,0,45.423,1,1,753,997
8406,4.7057e+07,1,0.0022222,0.0093939,0.0069732,-0.17789,0.015971,-9.707,0,0,45.423,1,1,753,997
8409,4.7059e+07,1,0.0026266,0.0083336,0.00583,-0.18732,0.018356,-9.7523,0,0,45.423,1,1,753,997
8440,4.7061e+07,1,0.0050546,0.0070117,0.0052114,-0.19805,0.016945,-9.7854,0,0,45.424,1,1,753,997
8443,4.7065e+07,1,0.0047095,0.0068572,0.0042257,-0.21027,0.015173,-9.8359,0,0,45.424,1,1,753,997
8447,4.7066e+07,1,0.0029824,0.0064742,0.0040845,-0.21678,0.020031,-9.8628,0,0,45.424,1,1,753,997
8452,4.7069e+07,1,0.00044682,0.0091206,0.0021169,-0.22547,0.037103,-9.8915,0,0,45.424,1,1,753,997
8483,4.7071e+07,1,0.00022834,0.010586,0.0014213,-0.23115,0.050091,-9.8929,0,0,45.424,1,1,753,997
8486,4.7074e+07,1,0.00087928,0.0099658,0.0018311,-0.23763,0.056124,-9.8951,0,0,45.424,1,1,753,997
8490,4.7077e+07,1,0.001965,0.0064514,0.0036358,-0.24182,0.041807,-9.8801,0,0,45.424,1,1,753,997
8493,4.7079e+07,1,0.0014115,0.0030046,0.0070051,-0.24262,0.0050396,-9.8537,0,0,45.424,1,1,753,997
8524,4.7082e+07,1,-5.578e-05,0.0039249,0.0096931,-0.24129,-0.03396,-9.8266,0,0,45.424,1,1,753,997
8531,4.7084e+07,1,-0.00029235,0.0047834,0.010449,-0.23747,-0.043281,-9.8175,0,0,45.424,1,1,753,997
8534,4.7086e+07,1,0.00026447,0.0050969,0.011394,-0.23922,-0.041474,-9.8053,0,0,45.424,1,1,753,997
8537,4.7089e+07,1,0.0030048,0.0049827,0.0096703,-0.25551,-0.041156,-9.7843,0,0,45.424,1,1,753,997
8568,4.7092e+07,1,0.0026429,0.0056421,0.0077488,-0.26595,-0.044979,-9.777,0,0,45.424,1,1,753,997
8571,4.7094e+07,1,0.0011237,0.0064794,0.0014164,-0.28816,-0.053498,-9.7591,0,0,45.425,1,1,753,997
8575,4.7097e+07,1,0.001692,0.0054594,2.946e-05,-0.30984,-0.06473,-9.7571,0,0,45.425,1,1,753,997
8578,4.7099e+07,1,0.0018443,0.0026963,0.00080186,-0.3345,-0.06972,-9.7657,0,0,45.425,1,1,753,997
8609,4.7102e+07,1,0.0015673,0.0016717,0.0019546,-0.354,-0.060147,-9.7777,0,0,45.425,1,1,753,997
8612,4.7104e+07,1,0.0025185,0.0019621,0.0019147,-0.35861,-0.050897,-9.7856,0,0,45.425,1,1,753,997
8615,4.7107e+07,1,0.003571,0.0034406,0.0011761,-0.3409,-0.041969,-9.7844,0,0,45.425,1,1,753,997
8618,4.711e+07,1,0.0011631,0.0055342,0.00054267,-0.3199,-0.034124,-9.7736,0,0,45.425,1,1,753,997
8649,4.7112e+07,1,-0.0013145,0.0075884,0.0010471,-0.29423,-0.013726,-9.7542,0,0,45.425,1,1,753,997
8652,4.7114e+07,1,-0.0031294,0.0088605,0.0029486,-0.28726,0.0018747,-9.7506,0,0,45.425,1,1,753,997
8656,4.7117e+07,1,-0.0028259,0.0096137,0.007873,-0.28918,0.020205,-9.7745,0,0,45.425,1,1,753,997
8659,4.712e+07,1,-0.0021585,0.0097692,0.0096066,-0.29453,0.025617,-9.7866,0,0,45.425,1,1,753,997
8690,4.7123e+07,1,-0.0033951,0.010595,0.0078796,-0.30499,0.035616,-9.7894,0,0,45.425,1,1,753,997
8693,4.7125e+07,1,-0.0030257,0.0090399,0.0068831,-0.30165,0.041904,-9.7973,0,0,45.425,1,1,753,997
8696,4.7127e+07,1,-0.0014045,0.0080753,0.0063743,-0.28808,0.039532,-9.7957,0,0,45.426,1,1,753,997
8699,4.713e+07,1,-0.00078398,0.0062086,0.0021492,-0.26127,0.044752,-9.7972,0,0,45.426,1,1,753,997
8730,4.7134e+07,1,-0.0030217,0.0046472,5.6548e-05,-0.24218,0.058776,-9.7934,0,0,45.426,1,1,753,997
8733,4.7136e+07,1,-0.0075855,-0.0013916,-0.0023453,-0.2185,0.063342,-9.7736,0,0,45.426,1,1,753,997
8737,4.7137e+07,1,-0.007755,-0.0025159,0.0007797,-0.20788,0.057706,-9.7715,0,0,45.426,1,1,753,997
8740,4.714e+07,1,-0.0072051,-0.0027924,0.007841,-0.20555,0.032048,-9.7922,0,0,45.426,1,1,753,997
8771,4.7142e+07,1,-0.0032977,0.0012734,0.0072837,-0.22278,-0.0022794,-9.8144,0,0,45.426,1,1,753,997
8774,4.7145e+07,1,-0.0020861,0.0034985,0.0047376,-0.25064,-0.019566,-9.818,0,0,45.426,1,1,753,997
8777,4.7148e+07,1,-0.0013352,0.0094366,-0.0023499,-0.28377,-0.031347,-9.8144,0,0,45.426,1,1,753,997
8780,4.7151e+07,1,-0.0013013,0.014086,-0.0045319,-0.32417,-0.042577,-9.81,0,0,45.426,1,1,753,997
8783,4.7152e+07,1,-0.00090547,0.014418,-0.0032016,-0.33441,-0.040917,-9.8104,0,0,45.426,1,1,753,997
8814,4.7155e+07,1,0.00055072,0.0097245,0.0040664,-0.34116,-0.023986,-9.8144,0,0,45.426,1,1,753,997
8818,4.7157e+07,1,0.0012625,0.0083777,0.0064293,-0.35231,-0.006404,-9.8273,0,0,45.426,1,1,753,997
8821,4.716e+07,1,0.0020273,0.0069345,0.0094777,-0.36162,0.007752,-9.8455,0,0,45.427,1,1,753,997
8824,4.7163e+07,1,0.0017734,0.0069086,0.011683,-0.35778,0.0048786,-9.839,0,0,45.427,1,1,753,997
8855,4.7165e+07,1,0.00083267,0.0059751,0.010996,-0.35386,-0.003683,-9.8174,0,0,45.427,1,1,753,997
8859,4.7168e+07,1,-0.00071209,0.0056241,0.0071235,-0.33154,-0.0050565,-9.7929,0,0,45.427,1,1,753,997
8862,4.717e+07,1,-0.00014205,0.0046153,0.0031239,-0.32091,-0.0091856,-9.7687,0,0,45.427,1,1,753,997
8865,4.7173e+07,1,0.0020075,0.0043919,0.0020451,-0.30335,-0.012414,-9.7193,0,0,45.427,1,1,753,997
8896,4.7176e+07,1,0.0040853,0.0062025,0.002898,-0.28894,-0.012454,-9.6894,0,0,45.427,1,1,753,997
8899,4.7178e+07,1,0.0037543,0.0059536,0.0030461,-0.26936,-0.011298,-9.6806,0,0,45.427,1,1,753,997
8903,4.718e+07,1,0.0024999,0.0040436,0.0012451,-0.26292,-0.0060528,-9.6866,0,0,45.427,1,1,753,997
8906,4.7183e+07,1,0.00052977,0.0034482,-0.00066423,-0.2647,0.0073791,-9.72,0,0,45.428,1,1,753,997
8941,4.7186e+07,1,0.0010134,0.0034843,-0.0016638,-0.2645,0.012304,-9.7367,0,0,45.428,1,1,753,997
8945,4.7188e+07,1,0.0029932,0.0050352,-0.0024202,-0.25987,0.020744,-9.7771,0,0,45.428,1,1,753,997
8948,4.719e+07,1,0.0039676,0.0060125,-0.0016462,-0.26567,0.02047,-9.8032,0,0,45.428,1,1,753,997
8951,4.7193e+07,1,0.0041311,0.0069064,0.0011563,-0.27552,0.0019899,-9.8206,0,0,45.428,1,1,753,997
8982,4.7195e+07,1,0.0040326,0.0079625,0.00086968,-0.27563,-0.011437,-9.8213,0,0,45.428,1,1,753,997
8985,4.7198e+07,1,0.005284,0.0090586,-0.00075344,-0.27064,-0.01556,-9.8147,0,0,45.428,1,1,753,997
8990,4.7201e+07,1,0.006916,0.010766,-0.0018504,-0.26256,-0.018632,-9.8073,0,0,45.428,1,1,753,997
8993,4.7203e+07,1,0.00826,0.01172,-0.00011218,-0.24166,-0.037864,-9.814,0,0,45.429,1,1,753,997
9024,4.7206e+07,1,0.0078171,0.011245,0.001493,-0.23195,-0.045407,-9.8213,0,0,45.429,1,1,753,997
9029,4.7208e+07,1,0.0067483,0.0089094,0.0054593,-0.231,-0.067757,-9.8195,0,0,45.429,1,1,753,997
9032,4.7211e+07,1,0.0077494,0.0087369,0.0058046,-0.24006,-0.084535,-9.8268,0,0,45.429,1,1,753,997
9035,4.7213e+07,1,0.0089789,0.0086233,0.0038902,-0.25273,-0.099659,-9.8408,0,0,45.429,1,1,753,997
9066,4.7216e+07,1,0.0084624,0.008635,0.0013045,-0.2635,-0.10514,-9.8466,0,0,45.429,1,1,753,997
9070,4.7217e+07,1,0.0071097,0.0072016,0.0019138,-0.2862,-0.10635,-9.8655,0,0,45.429,1,1,753,997
9073,4.722e+07,1,0.0057343,0.0045836,0.0053948,-0.30623,-0.10078,-9.8734,0,0,45.429,1,1,753,997
9076,4.7223e+07,1,0.0070354,0.0029189,0.007058,-0.32303,-0.090136,-9.8778,0,0,45.429,1,1,753,997
9107,4.7226e+07,1,0.0081534,0.00031245,0.0071645,-0.33031,-0.084393,-9.8677,0,0,45.43,1,1,753,997
9110,4.7229e+07,1,0.0074848,0.00085676,0.0036365,-0.32616,-0.084449,-9.8651,0,0,45.43,1,1,753,997
9113,4.723e+07,1,0.0041778,0.0031778,0.00089249,-0.31625,-0.082111,-9.8678,0,0,45.43,1,1,753,997
9116,4.7233e+07,1,0.0032441,0.0051586,0.0010731,-0.31208,-0.067452,-9.8766,0,0,45.43,1,1,753,997
9147,4.7238e+07,1,0.008171,0.0060328,0.00096951,-0.30948,-0.049488,-9.9107,0,0,45.43,1,1,753,997
9150,4.7241e+07,1,0.0094967,0.0062012,0.0024702,-0.30672,-0.046067,-9.8906,0,0,45.43,1,1,753,997
9153,4.7243e+07,1,0.0082333,0.0062698,0.0016354,-0.30077,-0.039787,-9.8579,0,0,45.43,1,1,753,997
9184,4.7246e+07,1,0.0053401,0.0055168,-0.00015797,-0.28486,-0.042549,-9.8267,0,0,45.43,1,1,753,997
9187,4.7249e+07,1,0.0039907,0.0051846,-0.00020677,-0.27605,-0.04064,-9.8082,0,0,45.431,1,1,753,997
9191,4.7251e+07,1,0.0041894,0.0055471,-0.0011197,-0.26837,-0.028193,-9.7973,0,0,45.431,1,1,753,997
9194,4.7254e+07,1,0.0058365,0.007244,-0.0028773,-0.26169,-0.028407,-9.7979,0,0,45.431,1,1,753,997
9207,4.7278e+07,1,0.0010879,0.0052747,0.0071087,-0.31968,-0.029128,-9.8717,0,0,45.432,1,1,753,997
9210,4.7281e+07,1,0.0015746,0.0046492,0.0072713,-0.3299,-0.02529,-9.8595,0,0,45.432,1,1,753,997
9213,4.7283e+07,1,0.0015556,0.003825,0.0073972,-0.33376,-0.035201,-9.8644,0,0,45.432,1,1,753,997
9248,4.7286e+07,1,0.0040249,0.0035189,0.0079074,-0.32296,-0.057397,-9.8652,0,0,45.432,1,1,753,997
9252,4.7288e+07,1,0.0048821,0.0040535,0.0071688,-0.31052,-0.07864,-9.8614,0,0,45.432,1,1,753,997
9256,4.7291e+07,1,0.0058024,0.0028191,0.0061106,-0.29369,-0.097071,-9.8407,0,0,45.433,1,1,753,997
9259,4.7293e+07,1,0.0051319,0.0028451,0.0044413,-0.29635,-0.099462,-9.8235,0,0,45.433,1,1,753,997
9290,4.7295e+07,1,0.005269,0.0039428,0.0048662,-0.30952,-0.099715,-9.785,0,0,45.433,1,1,753,997
9293,4.7299e+07,1,0.0039368,0.0052208,0.0051938,-0.31607,-0.097559,-9.7578,0,0,45.433,1,1,753,997
9296,4.7301e+07,1,-0.00036789,0.0057426,0.0043364,-0.3142,-0.092768,-9.729,0,0,45.433,1,1,753,997
9299,4.7303e+07,1,-0.0034125,0.0066282,0.0063189,-0.31095,-0.091417,-9.7057,0,0,45.433,1,1,753,997
9330,4.7306e+07,1,-0.0045569,0.0078994,0.0069429,-0.31757,-0.090842,-9.6831,0,0,45.433,1,1,753,997
9333,4.7308e+07,1,-0.0043158,0.0093844,0.0064617,-0.3143,-0.084254,-9.6676,0,0,45.433,1,1,753,997
9337,4.7311e+07,1,-0.0022509,0.0078907,0.0032276,-0.30309,-0.088497,-9.6562,0,0,45.433,1,1,753,997
9340,4.7314e+07,1,-0.0012077,0.0053127,0.0025968,-0.30298,-0.094726,-9.659,0,0,45.434,1,1,753,997
9371,4.7316e+07,1,8.5999e-05,0.0013863,0.0041212,-0.29751,-0.081185,-9.6738,0,0,45.434,1,1,753,997
9374,4.7318e+07,1,-0.0010579,-0.00042789,0.0073621,-0.28164,-0.057313,-9.6917,0,0,45.434,1,1,753,997
9377,4.7321e+07,1,-0.0028357,8.5347e-05,0.0087766,-0.2731,-0.033435,-9.7108,0,0,45.434,1,1,753,997
9380,4.7324e+07,1,-0.0050909,0.0028788,0.0091796,-0.26345,-0.0078703,-9.7466,0,0,45.434,1,1,753,997
9383,4.7327e+07,1,-0.004172,0.0057862,0.0066905,-0.25232,0.0078799,-9.7656,0,0,45.434,1,1,753,997
9386,4.7328e+07,1,-0.0025493,0.0072085,0.004803,-0.25038,0.015199,-9.7842,0,0,45.434,1,1,753,997
9417,4.733e+07,1,0.0018874,0.0039134,0.0038045,-0.24741,0.023898,-9.8094,0,0,45.434,1,1,753,997
9421,4.7333e+07,1,0.0024519,0.001862,0.004609,-0.24894,0.015129,-9.8105,0,0,45.434,1,1,753,997
9424,4.7336e+07,1,0.0010693,0.00068012,0.0084353,-0.25841,-0.0021649,-9.8061,0,0,45.435,1,1,753,997
9427,4.7339e+07,1,-0.0010564,0.0032066,0.011691,-0.27906,-0.020558,-9.7895,0,0,45.435,1,1,753,997
9458,4.7341e+07,1,-0.0011738,0.006657,0.011294,-0.29086,-0.028896,-9.7455,0,0,45.435,1,1,753,997
9462,4.7344e+07,1,-0.00021294,0.0077436,0.010779,-0.3078,-0.053949,-9.7147,0,0,45.435,1,1,753,997
9465,4.7346e+07,1,0.0023988,0.0066922,0.0061661,-0.31926,-0.066835,-9.7166,0,0,45.435,1,1,753,997
9469,4.7349e+07,1,0.0035204,0.0048503,0.0011689,-0.33246,-0.067161,-9.7313,0,0,45.435,1,1,753,997
9500,4.7351e+07,1,0.0033654,0.0024271,5.0781e-05,-0.34128,-0.062359,-9.7357,0,0,45.435,1,1,753,997
9503,4.7354e+07,1,0.0043115,0.0025388,-0.001042,-0.3402,-0.064896,-9.7354,0,0,45.435,1,1,753,997
9506,4.7356e+07,1,0.0046764,0.0023445,-0.0011397,-0.32712,-0.077738,-9.7348,0,0,45.435,1,1,753,997
9509,4.7358e+07,1,0.0060384,0.0033947,-0.0018236,-0.327,-0.071996,-9.7161,0,0,45.436,1,1,753,997
9540,4.7362e+07,1,0.0071736,0.0048165,-0.0018265,-0.33531,-0.062448,-9.7095,0,0,45.436,1,1,753,997
9544,4.7364e+07,1,0.0088019,0.00585,0.00023534,-0.34547,-0.04841,-9.7135,0,0,45.436,1,1,753,997
9547,4.7366e+07,1,0.0075017,0.005543,0.00054748,-0.35198,-0.046566,-9.7136,0,0,45.436,1,1,753,997
9550,4.7368e+07,1,0.0056576,0.0056805,0.0016348,-0.36142,-0.039782,-9.7231,0,0,45.436,1,1,753,997
9581,4.7371e+07,1,0.0062289,0.003855,0.0029154,-0.35964,-0.0368,-9.735,0,0,45.436,1,1,753,997
9584,4.7374e+07,1,0.0065661,0.00115,0.0040433,-0.3518,-0.037559,-9.75,0,0,45.436,1,1,753,997
9587,4.7376e+07,1,0.0060405,-0.00042093,0.0052402,-0.33128,-0.031932,-9.7695,0,0,45.436,1,1,753,997
9590,4.7379e+07,1,0.0054482,-0.0021414,0.002833,-0.31667,-0.019002,-9.7792,0,0,45.436,1,1,753,997
9621,4.7381e+07,1,0.0051538,-0.0025171,0.00094612,-0.31633,-0.014659,-9.7925,0,0,45.437,1,1,753,997
9625,4.7384e+07,1,0.0041589,-0.0036088,-0.00021257,-0.32949,-0.0103,-9.812,0,0,45.437,1,1,753,997
9632,4.7387e+07,1,0.0035261,-0.0029072,0.0007643,-0.33999,-0.02065,-9.8236,0,0,45.437,1,1,753,997
9635,4.7388e+07,1,0.001438,0.0028223,0.0062552,-0.33579,-0.045851,-9.8383,0,0,45.437,1,1,753,997
9666,4.7391e+07,1,0.00076608,0.0048273,0.0078079,-0.33014,-0.047958,-9.8435,0,0,45.437,1,1,753,997
9669,4.7394e+07,1,0.0015419,0.0086851,0.0086979,-0.33574,-0.049405,-9.8219,0,0,45.437,1,1,753,997
9674,4.7396e+07,1,0.004373,0.010412,0.0089327,-0.34041,-0.052002,-9.8016,0,0,45.437,1,1,753,997
9677,4.7399e+07,1,0.0071429,0.0088289,0.007446,-0.34645,-0.046546,-9.7936,0,0,45.437,1,1,753,997
9710,4.7402e+07,1,0.0086456,0.0065166,0.0053771,-0.34947,-0.044218,-9.8005,0,0,45.438,1,1,753,997
9714,4.7404e+07,1,0.0085978,0.0065813,0.001523,-0.34101,-0.053558,-9.8276,0,0,45.438,1,1,753,997
9717,4.7407e+07,1,0.0089759,0.0078883,-0.0011749,-0.33359,-0.062693,-9.8404,0,0,45.438,1,1,753,997
9720,4.7409e+07,1,0.0072577,0.010023,-0.0025351,-0.31596,-0.076634,-9.854,0,0,45.438,1,1,753,997
9751,4.7412e+07,1,0.0053383,0.0068859,0.0024613,-0.29335,-0.089485,-9.8716,0,0,45.438,1,1,753,997
9755,4.7417e+07,1,-0.0022144,0.005522,0.0050251,-0.27381,-0.079653,-9.8834,0,0,45.438,1,1,753,997
9758,4.7419e+07,1,-0.0033636,0.0067033,0.0027188,-0.27368,-0.072162,-9.8673,0,0,45.438,1,1,753,997
9789,4.7422e+07,1,-0.0031135,0.008011,-0.00079044,-0.27255,-0.055346,-9.8416,0,0,45.438,1,1,753,997
9792,4.7426e+07,1,-0.0026859,0.0094706,0.00031876,-0.27682,-0.049059,-9.8354,0,0,45.439,1,1,753,997
9795,4.7427e+07,1,-0.0019088,0.012661,0.0018058,-0.2846,-0.035419,-9.8523,0,0,45.439,1,1,753,997
9798,4.7429e+07,1,-0.00022078,0.012835,0.0023239,-0.28919,-0.030649,-9.8824,0,0,45.439,1,1,753,997
9829,4.7432e+07,1,0.0010879,0.0085933,0.0031377,-0.31184,-0.027229,-9.8978,0,0,45.439,1,1,753,997
9833,4.7434e+07,1,0.00095871,0.0038938,0.0058088,-0.33098,-0.027417,-9.9017,0,0,45.439,1,1,753,997
9836,4.7437e+07,1,6.607e-05,0.002876,0.0066054,-0.3397,-0.044566,-9.8876,0,0,45.439,1,1,753,997
9839,4.7441e+07,1,-0.00073051,0.0027727,0.0062467,-0.33575,-0.061588,-9.8766,0,0,45.439,1,1,753,997
9842,4.7442e+07,1,-0.0032103,8.89e-05,0.0069261,-0.33564,-0.080855,-9.8644,0,0,45.439,1,1,753,997
9873,4.7444e+07,1,-0.0040629,-0.00062829,0.006717,-0.33563,-0.093159,-9.8681,0,0,45.439,1,1,753,997
9876,4.7447e+07,1,-0.0050383,0.00052404,0.00538,-0.32561,-0.090791,-9.8657,0,0,45.44,1,1,753,997
9880,4.745e+07,1,-0.0029013,0.0030837,0.006501,-0.32158,-0.08811,-9.8596,0,0,45.44,1,1,753,997
9883,4.7452e+07,1,0.00018518,0.0046796,0.0093898,-0.31618,-0.08954,-9.8688,0,0,45.44,1,1,753,997
9914,4.7455e+07,1,0.0020575,0.0058852,0.012144,-0.31417,-0.074867,-9.8684,0,0,45.44,1,1,753,997
9918,4.7457e+07,1,0.0057409,0.0062827,0.013977,-0.3122,-0.057281,-9.8725,0,0,45.441,1,1,753,997
9921,4.746e+07,1,0.010358,0.0079641,0.011291,-0.30127,-0.031377,-9.8731,0,0,45.441,1,1,753,997
9924,4.7462e+07,1,0.010688,0.0080272,0.009494,-0.29354,-0.020728,-9.8643,0,0,45.441,1,1,753,997
9955,4.7465e+07,1,0.0060145,0.0055059,0.0080371,-0.28259,-0.01,-9.8566,0,0,45.441,1,1,753,997
9959,4.7467e+07,1,0.0010378,0.0027592,0.0057706,-0.27247,-0.010472,-9.8574,0,0,45.441,1,1,753,997
9962,4.747e+07,1,-0.0025545,0.0017527,0.0036035,-0.26368,-0.022306,-9.8519,0,0,45.441,1,1,753,997
9965,4.7473e+07,1,-0.0036422,0.00074501,0.002328,-0.26272,-0.025359,-9.8477,0,0,45.441,1,1,753,997
9996,4.7475e+07,1,-0.0071873,0.00036947,-0.0022106,-0.25963,-0.027791,-9.8439,0,0,45.441,1,1,753,997
9999,4.7477e+07,1,-0.0079985,0.001083,-0.0030589,-0.25296,-0.037683,-9.8324,0,0,45.441,1,1,753,997
10002,4.748e+07,1,-0.0072669,0.0036734,-0.0014522,-0.24235,-0.073065,-9.833,0,0,45.442,1,1,753,997
10005,4.7482e+07,1,-0.0050311,0.005847,0.0011987,-0.24119,-0.089456,-9.8387,0,0,45.442,1,1,753,997
10036,4.7485e+07,1,-0.0014631,0.0079125,0.0016524,-0.23381,-0.085684,-9.8471,0,0,45.442,1,1,753,997
10044,4.7488e+07,1,0.0025446,0.010361,-0.00010777,-0.2276,-0.07643,-9.8444,0,0,45.442,1,1,753,997
10047,4.749e+07,1,0.0046192,0.013766,-0.0027243,-0.2115,-0.059443,-9.8512,0,0,45.442,1,1,753,997
10050,4.7492e+07,1,0.004067,0.01441,-0.0043282,-0.20953,-0.056622,-9.8545,0,0,45.442,1,1,753,997
10081,4.7495e+07,1,0.0014546,0.013971,-0.0037126,-0.22036,-0.053817,-9.874,0,0,45.442,1,1,753,997
10084,4.7498e+07,1,0.0014283,0.013389,-0.0011648,-0.23189,-0.048219,-9.8869,0,0,45.442,1,1,753,997
10088,4.7501e+07,1,0.0016392,0.011743,0.0046913,-0.24977,-0.032538,-9.8979,0,0,45.443,1,1,753,997
10091,4.7503e+07,1,0.0017366,0.0096236,0.0094687,-0.26243,-0.020276,-9.8994,0,0,45.443,1,1,753,997
10122,4.7505e+07,1,0.0011246,0.0081164,0.0074568,-0.27143,-0.0060671,-9.8837,0,0,45.443,1,1,753,997
10126,4.7507e+07,1,-0.00023565,0.0086501,0.0047568,-0.27269,-0.0049531,-9.8727,0,0,45.443,1,1,753,997
10129,4.751e+07,1,-0.0030097,0.0079589,0.002926,-0.28591,-0.023226,-9.8582,0,0,45.443,1,1,753,997
10133,4.7513e+07,1,-0.0051726,0.0071019,0.00089035,-0.28886,-0.043484,-9.8471,0,0,45.443,1,1,753,997
10164,4.7515e+07,1,-0.0040629,0.0068549,5.8515e-05,-0.27978,-0.077722,-9.8162,0,0,45.443,1,1,753,997
10167,4.7518e+07,1,-0.0025533,0.0063108,0.00055348,-0.26947,-0.096682,-9.7837,0,0,45.443,1,1,753,997
10170,4.752e+07,1,0.0033907,0.004365,0.0016673,-0.25453,-0.10905,-9.734,0,0,45.443,1,1,753,997
10173,4.7522e+07,1,0.0038321,0.0044986,0.0019299,-0.25342,-0.099311,-9.7168,0,0,45.444,1,1,753,997
10204,4.7526e+07,1,0.0016898,0.0070272,0.0018341,-0.26741,-0.074368,-9.6984,0,0,45.444,1,1,753,997
10208,4.7528e+07,1,-0.0013963,0.0073376,0.0038864,-0.27433,-0.056294,-9.6807,0,0,45.444,1,1,753,997
10211,4.753e+07,1,-0.0021247,0.0055857,0.0056615,-0.28671,-0.048509,-9.6702,0,0,45.444,1,1,753,997
10214,4.7532e+07,1,-0.0013055,0.0044441,0.0039286,-0.29484,-0.045737,-9.6804,0,0,45.444,1,1,753,997
10247,4.7535e+07,1,-0.00039878,0.0049908,0.0019359,-0.29994,-0.031275,-9.728,0,0,45.444,1,1,753,997
10251,4.7538e+07,1,0.00035501,0.0047389,0.0012286,-0.30269,-0.024135,-9.7609,0,0,45.444,1,1,753,997
10254,4.754e+07,1,0.0038634,0.0039382,0.0025998,-0.31283,-0.030265,-9.787,0,0,45.444,1,1,753,997
10257,4.7542e+07,1,0.0049702,0.0034931,0.004186,-0.31452,-0.049386,-9.7894,0,0,45.444,1,1,753,997
10288,4.7545e+07,1,0.0060944,0.0043888,0.0051766,-0.30141,-0.072077,-9.7837,0,0,45.445,1,1,753,997
10292,4.7547e+07,1,0.0049662,0.0070922,0.0052205,-0.28891,-0.082886,-9.7968,0,0,45.445,1,1,753,997
10295,4.755e+07,1,0.0025651,0.0074259,0.0059762,-0.28596,-0.095749,-9.8465,0,0,45.445,1,1,753,997
10298,4.7553e+07,1,0.0017987,0.0073861,0.0053956,-0.28782,-0.097373,-9.8804,0,0,45.445,1,1,753,997
10329,4.7556e+07,1,0.00062265,0.0071048,0.00314,-0.28032,-0.096891,-9.9126,0,0,45.445,1,1,753,997
10333,4.7557e+07,1,0.00068813,0.0064462,0.0010734,-0.27225,-0.094217,-9.9193,0,0,45.445,1,1,753,997
10337,4.756e+07,1,0.0014533,0.0052996,-0.0010938,-0.25666,-0.08842,-9.9073,0,0,45.445,1,1,753,997
10340,4.7563e+07,1,0.0019821,0.0031544,-0.0018798,-0.24401,-0.082062,-9.8987,0,0,45.445,1,1,753,997
10371,4.7565e+07,1,0.0058012,-0.0016435,-0.0014287,-0.23439,-0.09246,-9.8697,0,0,45.445,1,1,753,997
10374,4.7567e+07,1,0.0067823,-0.002392,0.00010135,-0.23736,-0.099614,-9.8501,0,0,45.445,1,1,753,997
10377,4.757e+07,1,0.0083963,-0.0026251,0.0045829,-0.25304,-0.099467,-9.8478,0,0,45.445,1,1,753,997
10380,4.7572e+07,1,0.0083213,-0.000661,0.0073928,-0.25468,-0.088024,-9.8473,0,0,45.445,1,1,753,997
10411,4.7575e+07,1,0.0069602,0.0013282,0.0066489,-0.25293,-0.046969,-9.8243,0,0,45.445,1,1,753,997
10415,4.7577e+07,1,0.0052718,0.0012572,0.0052834,-0.26498,-0.014725,-9.8112,0,0,45.446,1,1,753,997
10418,4.758e+07,1,0.0039553,0.0012435,0.0053972,-0.28455,0.02339,-9.7918,0,0,45.446,1,1,753,997
10421,4.7582e+07,1,0.0028139,0.0011507,0.0054117,-0.2872,0.039866,-9.7828,0,0,45.446,1,1,753,997
10452,4.7585e+07,1,-0.00038954,0.0026035,0.0059967,-0.29986,0.020301,-9.7763,0,0,45.446,1,1,753,997
10459,4.7588e+07,1,-0.0002523,0.0026531,0.0071277,-0.30917,-0.009621,-9.7695,0,0,45.446,1,1,753,997
10462,4.759e+07,1,-0.00021039,0.00062022,0.008994,-0.31842,-0.042222,-9.7799,0,0,45.446,1,1,753,997
10465,4.7592e+07,1,-0.0010563,-0.00085793,0.0077714,-0.32744,-0.063206,-9.7966,0,0,45.446,1,1,753,997
10496,4.7595e+07,1,-0.0011896,0.0016029,0.0026978,-0.33207,-0.1005,-9.8042,0,0,45.446,1,1,753,997
10500,4.7597e+07,1,0.00052956,0.0018162,-0.0018054,-0.33091,-0.12042,-9.8229,0,0,45.446,1,1,753,997
10503,4.76e+07,1,0.0030858,0.0023752,-0.001178,-0.32877,-0.12855,-9.8764,0,0,45.447,1,1,753,997
10508,4.7603e+07,1,0.0023561,0.0033733,0.0025261,-0.32531,-0.13086,-9.9017,0,0,45.447,1,1,753,997
10539,4.7605e+07,1,-0.0017279,0.0031356,0.0040127,-0.30924,-0.14013,-9.8888,0,0,45.447,1,1,753,997
10543,4.7607e+07,1,-0.0045229,0.0020047,0.0040966,-0.29502,-0.14854,-9.8558,0,0,45.447,1,1,753,997
10548,4.7613e+07,1,-0.0077627,0.0029265,0.0064947,-0.25849,-0.15571,-9.7798,0,0,45.447,1,1,753,997
10579,4.7615e+07,1,-0.0054229,0.0043232,0.0079193,-0.24504,-0.14713,-9.7588,0,0,45.447,1,1,753,997
10582,4.7617e+07,1,-0.0019461,0.0033342,0.011733,-0.23077,-0.122,-9.7409,0,0,45.447,1,1,753,997
10585,4.762e+07,1,-0.0011427,0.0020992,0.011745,-0.2308,-0.11117,-9.7572,0,0,45.447,1,1,753,997
10588,4.7623e+07,1,0.00020503,4.2155e-05,0.0093527,-0.23577,-0.11269,-9.7659,0,0,45.447,1,1,753,997
10619,4.7626e+07,1,-0.00027887,0.0025522,0.008365,-0.23977,-0.11195,-9.7614,0,0,45.447,1,1,753,997
10623,4.7628e+07,1,-0.0019602,0.00563,0.010207,-0.24173,-0.11065,-9.7744,0,0,45.447,1,1,753,997
10626,4.763e+07,1,-0.0036559,0.0073221,0.010957,-0.2359,-0.10911,-9.8016,0,0,45.447,1,1,753,997
10629,4.7634e+07,1,-0.0046868,0.0096618,0.0087212,-0.23573,-0.095046,-9.8621,0,0,45.448,1,1,753,997
10632,4.7635e+07,1,-0.004623,0.010125,0.0067963,-0.23823,-0.08251,-9.8961,0,0,45.448,1,1,753,997
10663,4.7638e+07,1,-0.00085154,0.0085481,0.0044656,-0.24066,-0.060989,-9.9215,0,0,45.448,1,1,753,997
10666,4.764e+07,1,0.00061766,0.0075283,0.0052559,-0.24307,-0.061166,-9.9318,0,0,45.448,1,1,753,997
10669,4.7643e+07,1,0.0012489,0.0071492,0.0093669,-0.25458,-0.070901,-9.9312,0,0,45.448,1,1,753,997
10672,4.7646e+07,1,0.00075346,0.0089927,0.012934,-0.26898,-0.068067,-9.9173,0,0,45.448,1,1,753,997
10703,4.7648e+07,1,0.0020881,0.0093298,0.012869,-0.29689,-0.059744,-9.8711,0,0,45.448,1,1,753,997
10707,4.7651e+07,1,0.0029762,0.0083993,0.011041,-0.31695,-0.056841,-9.8499,0,0,45.448,1,1,753,997
10710,4.7653e+07,1,0.0013567,0.0068288,0.009131,-0.33181,-0.064486,-9.8384,0,0,45.448,1,1,753,997
10713,4.7655e+07,1,0.0022354,0.0066087,0.0069489,-0.33254,-0.076165,-9.8382,0,0,45.449,1,1,753,997
10744,4.7658e+07,1,0.0023127,0.0079851,0.0066149,-0.33803,-0.095654,-9.829,0,0,45.449,1,1,753,997
10747,4.766e+07,1,0.00095637,0.00877,0.0069201,-0.34338,-0.103,-9.8117,0,0,45.449,1,1,753,997
10750,4.7663e+07,1,-0.0044454,0.0076414,0.0061329,-0.34687,-0.10415,-9.7941,0,0,45.449,1,1,753,997
10754,4.7665e+07,1,-0.006316,0.0069215,0.0058856,-0.34239,-0.098981,-9.7915,0,0,45.449,1,1,753,997
10785,4.7667e+07,1,-0.0094134,0.0062664,0.0046395,-0.31768,-0.10232,-9.7826,0,0,45.449,1,1,753,997
10788,4.7671e+07,1,-0.010251,0.0057742,0.0018395,-0.29523,-0.11703,-9.7665,0,0,45.449,1,1,753,997
10791,4.7673e+07,1,-0.007046,0.0051858,-0.0003014,-0.26514,-0.13221,-9.7632,0,0,45.449,1,1,753,997
10794,4.7676e+07,1,-0.002608,0.0016526,-0.00038287,-0.25863,-0.13674,-9.768,0,0,45.449,1,1,753,997
10825,4.7678e+07,1,1.0289e-05,-0.0017683,0.00056976,-0.27226,-0.11645,-9.7759,0,0,45.45,1,1,753,997
10829,4.768e+07,1,0.0015566,-0.0027431,0.00093659,-0.28559,-0.097108,-9.7831,0,0,45.45,1,1,753,997
10832,4.7683e+07,1,0.0062692,0.0039771,0.0058408,-0.29961,-0.079478,-9.7833,0,0,45.45,1,1,753,997
10835,4.7685e+07,1,0.0075246,0.007563,0.0080518,-0.3008,-0.070216,-9.776,0,0,45.45,1,1,753,997
10870,4.7688e+07,1,0.0074186,0.0077423,0.0092524,-0.30507,-0.066633,-9.7736,0,0,45.45,1,1,753,997
10873,4.769e+07,1,0.00626,0.0027942,0.0077021,-0.31381,-0.053026,-9.7883,0,0,45.45,1,1,753,997
10876,4.7693e+07,1,0.0041573,0.00021467,0.007335,-0.32393,-0.028805,-9.8202,0,0,45.45,1,1,753,997
10879,4.7696e+07,1,0.0008959,0.0028347,0.0070909,-0.32013,-0.013508,-9.8386,0,0,45.45,1,1,753,997
10910,4.7698e+07,1,0.0012035,0.0066043,0.006915,-0.3122,-0.0051704,-9.8499,0,0,45.45,1,1,753,997
10914,4.7701e+07,1,0.0039175,0.0078574,0.0075607,-0.30913,-0.015136,-9.8417,0,0,45.45,1,1,753,997
10917,4.7703e+07,1,0.0054163,0.0043042,0.0073476,-0.30676,-0.030125,-9.841,0,0,45.45,1,1,753,997
10920,4.7706e+07,1,0.0058058,0.0025051,0.0066995,-0.30629,-0.039064,-9.8558,0,0,45.45,1,1,753,997
10951,4.7708e+07,1,0.0066067,0.00058763,0.0089877,-0.31627,-0.052222,-9.8771,0,0,45.45,1,1,753,997
10954,4.7711e+07,1,0.006871,0.0011654,0.0091902,-0.33132,-0.057455,-9.8745,0,0,45.451,1,1,753,997
10957,4.7714e+07,1,0.0073122,0.0021179,0.0064761,-0.33848,-0.057006,-9.8743,0,0,45.451,1,1,753,997
10960,4.7715e+07,1,0.0072556,0.00065178,0.0051399,-0.33775,-0.053664,-9.8706,0,0,45.451,1,1,753,997
10991,4.7718e+07,1,0.0045523,0.0020161,0.0042251,-0.33495,-0.031769,-9.8391,0,0,45.451,1,1,753,997
10996,4.7721e+07,1,0.0032908,0.0026951,0.0030036,-0.3387,-0.016215,-9.8077,0,0,45.451,1,1,753,997
10999,4.7723e+07,1,0.0019428,0.00054527,0.0007282,-0.34515,-0.0056142,-9.7717,0,0,45.451,1,1,753,997
11003,4.7727e+07,1,-2.6817e-05,0.00063394,-0.0036058,-0.3455,-0.0061994,-9.7471,0,0,45.451,1,1,753,997
11006,4.7728e+07,1,-0.0017326,0.0022974,-0.0066456,-0.33266,-0.018774,-9.7258,0,0,45.451,1,1,753,997
11038,4.7732e+07,1,-0.0025899,0.0063865,-0.0067899,-0.32163,-0.021984,-9.7248,0,0,45.451,1,1,753,997
11041,4.7733e+07,1,-0.0012056,0.010167,-0.0024565,-0.32267,-0.0063734,-9.7257,0,0,45.451,1,1,753,997
11044,4.7736e+07,1,0.0004621,0.011472,0.0007982,-0.32991,0.010951,-9.7332,0,0,45.451,1,1,753,997
11047,4.7739e+07,1,0.00334,0.013329,0.0048407,-0.34657,0.015708,-9.7487,0,0,45.451,1,1,753,997
11050,4.7741e+07,1,0.0045256,0.012113,0.0047213,-0.35072,0.024098,-9.7523,0,0,45.451,1,1,753,997
11081,4.7743e+07,1,0.0032166,0.0096091,0.0051594,-0.3529,0.030118,-9.7622,0,0,45.451,1,1,753,997
11084,4.7746e+07,1,0.00070823,0.0058065,0.0060171,-0.35197,0.032139,-9.7676,0,0,45.451,1,1,753,997
11087,4.7748e+07,1,0.00027338,0.0020968,0.0066599,-0.34788,0.0323,-9.7805,0,0,45.451,1,1,753,997
11091,4.7751e+07,1,0.00062399,0.0020141,0.0069583,-0.35322,0.033006,-9.7947,0,0,45.451,1,1,753,997
11094,4.7753e+07,1,0.0052272,0.0011898,0.0083629,-0.35707,0.014367,-9.8002,0,0,45.452,1,1,753,997
11125,4.7756e+07,1,0.0063396,-6.825e-05,0.0083065,-0.36103,0.0050401,-9.8044,0,0,45.452,1,1,753,997
11128,4.7758e+07,1,0.0055668,-0.0008634,0.0075298,-0.36804,-0.012621,-9.8255,0,0,45.452,1,1,753,997
11131,4.7761e+07,1,0.0041079,-0.0013416,0.0072297,-0.37045,-0.022618,-9.8473,0,0,45.452,1,1,753,997
11134,4.7764e+07,1,0.0052494,0.0011836,0.0057648,-0.37648,-0.023166,-9.8836,0,0,45.452,1,1,753,997
11165,4.7766e+07,1,0.0065814,0.0063073,0.0031918,-0.38063,-0.035753,-9.9277,0,0,45.452,1,1,753,997
11168,4.7769e+07,1,0.0060678,0.009356,-0.00042543,-0.37932,-0.052986,-9.9358,0,0,45.452,1,1,753,997
11172,4.7771e+07,1,0.0035701,0.0092195,-0.0027887,-0.36565,-0.065358,-9.9128,0,0,45.452,1,1,753,997
11175,4.7774e+07,1,0.0015014,0.0074638,-0.0037434,-0.34192,-0.069363,-9.8877,0,0,45.452,1,1,753,997
11206,4.7776e+07,1,0.0021431,0.005416,-0.0043575,-0.30667,-0.083186,-9.8502,0,0,45.452,1,1,753,997
11210,4.7778e+07,1,0.0026885,0.0056946,-0.0020312,-0.29057,-0.095616,-9.8346,0,0,45.452,1,1,753,997
11213,4.7781e+07,1,0.0010348,0.0065058,0.0022193,-0.27119,-0.1137,-9.8179,0,0,45.452,1,1,753,997
11216,4.7784e+07,1,0.00061095,0.0069156,0.0044782,-0.26055,-0.12572,-9.8297,0,0,45.452,1,1,753,997
11247,4.7786e+07,1,0.0018687,0.0076471,0.010917,-0.2554,-0.15082,-9.8592,0,0,45.452,1,1,753,997
11254,4.7789e+07,1,0.0011126,0.0068198,0.011925,-0.25397,-0.17283,-9.8572,0,0,45.452,1,1,753,997
11258,4.7791e+07,1,-0.00098832,0.0044746,0.010829,-0.24555,-0.19753,-9.8301,0,0,45.452,1,1,753,997
11261,4.7794e+07,1,-0.0016821,0.0036326,0.0080923,-0.24124,-0.19807,-9.8151,0,0,45.452,1,1,753,997
11292,4.7796e+07,1,0.00048986,0.0043598,0.0072098,-0.24637,-0.18237,-9.8186,0,0,45.452,1,1,753,997
11295,4.7799e+07,1,0.0045037,0.0059835,0.0059597,-0.24125,-0.14923,-9.832,0,0,45.452,1,1,753,997
11299,4.7801e+07,1,0.006797,0.0065654,0.0042919,-0.23645,-0.11963,-9.8274,0,0,45.452,1,1,753,997
11304,4.7804e+07,1,0.0064054,0.006625,0.0031128,-0.23755,-0.088045,-9.8092,0,0,45.452,1,1,753,997
11335,4.7807e+07,1,0.0046228,0.0069883,0.001821,-0.24442,-0.06691,-9.7868,0,0,45.452,1,1,753,997
11338,4.7812e+07,1,0.0025729,0.013128,-0.00032805,-0.26739,-0.03883,-9.753,0,0,45.453,1,1,753,997
11341,4.7814e+07,1,0.0030861,0.016965,-0.00054228,-0.27682,-0.030698,-9.7352,0,0,45.453,1,1,753,997
11372,4.7817e+07,1,0.0025196,0.018411,-0.00088656,-0.28477,-0.018661,-9.7101,0,0,45.453,1,1,753,997
11375,4.782e+07,1,0.00011849,0.015463,-0.00089194,-0.28871,-0.018886,-9.685,0,0,45.453,1,1,753,997
11378,4.7822e+07,1,3.7541e-05,0.011679,-0.00051418,-0.29892,-0.01978,-9.6666,0,0,45.453,1,1,753,997
11383,4.7824e+07,1,0.0011106,0.010345,0.000394,-0.3082,-0.025357,-9.6732,0,0,45.453,1,1,753,997
11414,4.7827e+07,1,0.0054443,0.0033058,0.0024324,-0.30651,-0.027082,-9.7008,0,0,45.453,1,1,753,997
11417,4.7829e+07,1,0.0058583,0.00010372,0.0030901,-0.29975,-0.018152,-9.7346,0,0,45.453,1,1,753,997
11420,4.7833e+07,1,0.0043062,-0.0028179,0.0036833,-0.2976,8.4012e-05,-9.7816,0,0,45.453,1,1,753,997
11424,4.7835e+07,1,0.0038029,-0.00090224,0.0017188,-0.2929,0.0098961,-9.791,0,0,45.453,1,1,753,997
11455,4.7837e+07,1,0.0031908,0.0035946,-0.00042348,-0.29997,0.011288,-9.7941,0,0,45.453,1,1,753,997
11459,4.784e+07,1,0.0014129,0.0069323,-0.0024066,-0.31473,-0.0057172,-9.7979,0,0,45.453,1,1,753,997
11462,4.7842e+07,1,0.001475,0.0056027,-0.00238,-0.32537,-0.00082989,-9.808,0,0,45.453,1,1,753,997
11465,4.7845e+07,1,0.0049105,0.0032678,1.0931e-05,-0.33221,0.0081481,-9.8063,0,0,45.453,1,1,753,997
11496,4.7848e+07,1,0.007162,0.0027792,0.0038676,-0.3372,-0.00090203,-9.7932,0,0,45.453,1,1,753,997
11499,4.785e+07,1,0.0075744,0.0032672,0.0078907,-0.3434,-0.0072729,-9.7999,0,0,45.453,1,1,753,997
11502,4.7853e+07,1,0.0091407,0.0046567,0.0089156,-0.358,-0.014776,-9.8323,0,0,45.453,1,1,753,997
11506,4.7855e+07,1,0.0097991,0.0079084,0.0078359,-0.35736,-0.025413,-9.8364,0,0,45.453,1,1,753,997
11537,4.7858e+07,1,0.0093095,0.010826,0.0066941,-0.3388,-0.03557,-9.8221,0,0,45.453,1,1,753,997
11540,4.7861e+07,1,0.0090842,0.010441,0.005993,-0.32047,-0.03757,-9.8062,0,0,45.453,1,1,753,997
11543,4.7863e+07,1,0.0075552,0.0089631,0.0046859,-0.30238,-0.05364,-9.775,0,0,45.453,1,1,753,997
11547,4.7866e+07,1,0.0068499,0.0096745,0.0047161,-0.29325,-0.063105,-9.7455,0,0,45.453,1,1,753,997
11578,4.7869e+07,1,0.0038341,0.0085233,0.0034232,-0.28397,-0.067227,-9.701,0,0,45.453,1,1,753,997
11581,4.7871e+07,1,0.0029981,0.0075375,0.0018521,-0.27877,-0.0668,-9.6751,0,0,45.453,1,1,753,997
11584,4.7873e+07,1,0.0020619,0.0045555,-0.00024999,-0.26659,-0.064988,-9.6603,0,0,45.453,1,1,753,997
11588,4.7875e+07,1,0.0036455,0.0018141,0.00012768,-0.26909,-0.065856,-9.6561,0,0,45.453,1,1,753,997
11619,4.7877e+07,1,0.0043105,0.0024494,0.0030207,-0.27386,-0.064647,-9.6515,0,0,45.453,1,1,753,997
11622,4.7881e+07,1,0.0026508,0.0065496,0.0055571,-0.27717,-0.054581,-9.6452,0,0,45.453,1,1,753,997
11625,4.7883e+07,1,0.0025818,0.0087265,0.0041448,-0.28136,-0.038157,-9.6366,0,0,45.453,1,1,753,997
11628,4.7885e+07,1,0.0031573,0.0084031,0.0035829,-0.27548,-0.027496,-9.6409,0,0,45.453,1,1,753,997
11659,4.7888e+07,1,0.0045198,0.00067792,0.0012696,-0.27144,-0.011344,-9.6863,0,0,45.453,1,1,753,997
11667,4.7891e+07,1,0.0038324,-0.0013619,-0.0003722,-0.27978,-0.013391,-9.7291,0,0,45.453,1,1,753,997
11670,4.7893e+07,1,0.0014791,-0.0032758,-0.0022237,-0.29679,-0.023476,-9.7844,0,0,45.453,1,1,753,997
11674,4.7896e+07,1,0.00093828,3.2286e-05,0.0011148,-0.30579,-0.03934,-9.8033,0,0,45.453,1,1,753,997
11705,4.7898e+07,1,0.0017686,0.0050706,0.0021982,-0.31697,-0.066951,-9.8326,0,0,45.454,1,1,753,997
11708,4.7901e+07,1,0.0024307,0.0067065,0.0021854,-0.32359,-0.092924,-9.8446,0,0,45.454,1,1,753,997
11711,4.7903e+07,1,0.0023451,0.0053322,0.0034759,-0.3242,-0.1023,-9.8378,0,0,45.454,1,1,753,997
11715,4.7906e+07,1,0.0035034,0.0014267,0.0039937,-0.31657,-0.11223,-9.8227,0,0,45.454,1,1,753,997
11746,4.7909e+07,1,0.0022619,0.00090721,0.0022959,-0.29126,-0.11641,-9.8223,0,0,45.454,1,1,753,997
11749,4.7911e+07,1,0.0032913,0.0022453,0.0030487,-0.2736,-0.12138,-9.8275,0,0,45.454,1,1,753,997
11752,4.7914e+07,1,0.0060579,0.0056964,0.0045533,-0.25181,-0.11904,-9.8002,0,0,45.454,1,1,753,997
11755,4.7917e+07,1,0.0060371,0.0089492,0.0035274,-0.2431,-0.11458,-9.7694,0,0,45.454,1,1,753,997
11786,4.7919e+07,1,0.004275,0.0092691,0.0012127,-0.23498,-0.097885,-9.7149,0,0,45.454,1,1,753,997
11789,4.7921e+07,1,0.0038303,0.0060832,0.00088649,-0.23658,-0.073672,-9.6807,0,0,45.454,1,1,753,997
11792,4.7924e+07,1,0.0024622,0.0059285,0.0015179,-0.23716,-0.031226,-9.6581,0,0,45.454,1,1,753,997
11797,4.7926e+07,1,0.0021899,0.0055959,0.0016655,-0.24423,-0.0031936,-9.6592,0,0,45.454,1,1,753,997
11828,4.7929e+07,1,0.0033211,0.0054979,0.0047412,-0.27246,0.017248,-9.6552,0,0,45.454,1,1,753,997
11831,4.7934e+07,1,0.0065991,0.0060242,0.0098338,-0.30996,0.032644,-9.6663,0,0,45.454,1,1,753,997
11835,4.7937e+07,1,0.0072897,0.0061191,0.010484,-0.3234,0.037985,-9.6787,0,0,45.454,1,1,753,997
11866,4.7939e+07,1,0.0031144,0.0083458,0.0093926,-0.33324,0.037678,-9.7062,0,0,45.454,1,1,753,997
11870,4.7941e+07,1,-0.00037971,0.010741,0.0029844,-0.33786,0.034756,-9.7321,0,0,45.454,1,1,753,997
11873,4.7944e+07,1,0.00018657,0.0093952,-0.0015195,-0.33557,0.031577,-9.7899,0,0,45.454,1,1,753,997
11877,4.7946e+07,1,0.0024585,0.0053125,-0.0028078,-0.34202,0.023553,-9.817,0,0,45.454,1,1,753,997
11908,4.7949e+07,1,0.0030113,0.0046433,-0.0010035,-0.34895,0.010902,-9.8279,0,0,45.454,1,1,753,997
11911,4.7952e+07,1,0.003852,0.0054535,0.00044358,-0.34668,0.0035405,-9.8281,0,0,45.454,1,1,753,997
11914,4.7953e+07,1,0.0044581,0.0079409,0.0040144,-0.32953,0.0032876,-9.8223,0,0,45.454,1,1,753,997
11917,4.7956e+07,1,0.0025768,0.0077087,0.0053072,-0.31359,0.0047311,-9.8234,0,0,45.454,1,1,753,997
11948,4.7959e+07,1,-0.00044809,0.0047499,0.0083025,-0.29356,-0.00041016,-9.812,0,0,45.454,1,1,753,997
11951,4.7961e+07,1,-0.0022492,0.0027758,0.0092672,-0.27638,-0.011745,-9.8016,0,0,45.454,1,1,753,997
11954,4.7964e+07,1,-0.0051258,0.0026866,0.0058377,-0.26539,-0.031887,-9.7969,0,0,45.454,1,1,753,997
11958,4.7966e+07,1,-0.0044708,0.0027451,0.0011146,-0.27264,-0.042905,-9.805,0,0,45.454,1,1,753,997
11989,4.7969e+07,1,-0.00056168,0.0031784,-0.00056886,-0.28312,-0.045026,-9.8342,0,0,45.454,1,1,753,997
11992,4.7972e+07,1,0.00065493,0.0035021,0.00035085,-0.28381,-0.038301,-9.8461,0,0,45.454,1,1,753,997
11995,4.7974e+07,1,0.0023489,0.002222,0.0031474,-0.28067,-0.03296,-9.8368,0,0,45.454,1,1,753,997
11999,4.7977e+07,1,0.003372,0.001666,0.002828,-0.28885,-0.029285,-9.8234,0,0,45.454,1,1,753,997
12030,4.7979e+07,1,0.0043912,0.0021417,0.0024293,-0.31779,-0.01766,-9.8047,0,0,45.454,1,1,753,997
12033,4.7981e+07,1,0.0044877,0.0036251,0.0020142,-0.3314,-0.0045151,-9.8146,0,0,45.454,1,1,753,997
12037,4.7984e+07,1,0.0052966,0.0049427,0.0015443,-0.34924,0.023622,-9.8588,0,0,45.454,1,1,753,997
12040,4.7986e+07,1,0.0050696,0.0023577,0.0035982,-0.35543,0.041441,-9.8778,0,0,45.454,1,1,753,997
12071,4.7989e+07,1,0.0042978,-0.00059611,0.0064704,-0.35267,0.062875,-9.8631,0,0,45.454,1,1,753,997
12078,4.7991e+07,1,0.0041843,-0.00022765,0.0075784,-0.34383,0.060537,-9.8539,0,0,45.454,1,1,753,997
12083,4.7994e+07,1,0.0054781,0.0021161,0.0058403,-0.33372,0.037053,-9.8255,0,0,45.454,1,1,753,997
12087,4.7997e+07,1,0.0054434,0.0026988,0.0053444,-0.32601,0.012896,-9.8038,0,0,45.454,1,1,753,997
12118,4.7999e+07,1,0.0013785,0.0035983,0.0036485,-0.30999,-0.026205,-9.7693,0,0,45.454,1,1,753,997
12121,4.8002e+07,1,0.001077,0.0036277,0.0026889,-0.29926,-0.05349,-9.7595,0,0,45.454,1,1,753,997
12124,4.8004e+07,1,0.002401,0.004901,0.0022207,-0.28081,-0.073894,-9.7773,0,0,45.454,1,1,753,997
12129,4.8007e+07,1,0.004107,0.0071534,0.0032386,-0.27216,-0.072221,-9.7957,0,0,45.454,1,1,753,997
12160,4.8009e+07,1,0.0059595,0.0079281,0.0049812,-0.27278,-0.06251,-9.8124,0,0,45.454,1,1,753,997
12163,4.8012e+07,1,0.0064874,0.0066502,0.0075781,-0.28879,-0.048668,-9.7997,0,0,45.454,1,1,753,997
12166,4.8017e+07,1,0.0040892,0.0023156,0.0078915,-0.30138,-0.024062,-9.7809,0,0,45.454,1,1,753,997
12197,4.8019e+07,1,0.0030037,0.0011907,0.0042856,-0.30237,-0.032314,-9.788,0,0,45.454,1,1,753,997
12201,4.8022e+07,1,0.003264,0.00058161,0.0013872,-0.30039,-0.041029,-9.8034,0,0,45.454,1,1,753,997
12204,4.8025e+07,1,0.0034444,4.5513e-05,0.0005537,-0.29802,-0.051214,-9.8127,0,0,45.454,1,1,753,997
12207,4.8027e+07,1,0.0028706,0.00093532,0.0025649,-0.2978,-0.063225,-9.8197,0,0,45.454,1,1,753,997
12240,4.8029e+07,1,0.00083334,0.00213,0.0043874,-0.2982,-0.060296,-9.8576,0,0,45.454,1,1,753,997
12245,4.8032e+07,1,-0.00042673,0.0014417,0.0040096,-0.29694,-0.058509,-9.8829,0,0,45.454,1,1,753,997
12249,4.8036e+07,1,-0.00225,0.00083921,0.0028807,-0.29746,-0.059501,-9.8996,0,0,45.454,1,1,753,997
12252,4.8037e+07,1,-0.0031413,0.0029366,0.0030887,-0.30616,-0.061997,-9.8977,0,0,45.454,1,1,753,997
12283,4.8041e+07,1,-0.0031923,0.002831,0.0049781,-0.31774,-0.060767,-9.8821,0,0,45.454,1,1,753,997
12286,4.8042e+07,1,-0.0022641,0.0011251,0.0072335,-0.3413,-0.062944,-9.8702,0,0,45.454,1,1,753,997
12289,4.8044e+07,1,0.0010118,0.00069261,0.0081182,-0.35734,-0.072388,-9.8576,0,0,45.454,1,1,753,997
12292,4.8048e+07,1,0.0018507,-0.00075534,0.0088731,-0.36036,-0.097935,-9.8213,0,0,45.454,1,1,753,997
12295,4.805e+07,1,0.0018557,-0.0020855,0.0091434,-0.34684,-0.11001,-9.8039,0,0,45.454,1,1,753,997
12326,4.8052e+07,1,0.00575,-0.0039532,0.010406,-0.33236,-0.12205,-9.79,0,0,45.454,1,1,753,997
12330,4.8054e+07,1,0.0075798,-0.0042452,0.0102,-0.33032,-0.13029,-9.7829,0,0,45.454,1,1,753,997
12333,4.8057e+07,1,0.0091975,-0.0030049,0.0079916,-0.3184,-0.12443,-9.7844,0,0,45.454,1,1,753,997
12336,4.806e+07,1,0.0062811,0.00012277,0.0053753,-0.31016,-0.10432,-9.7734,0,0,45.454,1,1,753,997
12367,4.8062e+07,1,0.0029999,0.0027372,0.0037707,-0.29548,-0.086681,-9.7514,0,0,45.454,1,1,753,997
12370,4.8065e+07,1,0.001881,0.0006144,0.0032674,-0.28399,-0.096952,-9.7424,0,0,45.454,1,1,753,997
12373,4.8068e+07,1,0.0019626,-0.0016662,0.0043178,-0.28645,-0.10351,-9.7381,0,0,45.454,1,1,753,997
12376,4.807e+07,1,0.0017906,-0.00012752,0.0067762,-0.28778,-0.10086,-9.7413,0,0,45.454,1,1,753,997
12407,4.8073e+07,1,0.0019192,0.0021201,0.010203,-0.28814,-0.095512,-9.7644,0,0,45.454,1,1,753,997
12411,4.8075e+07,1,0.0040621,0.0031042,0.010496,-0.30131,-0.078287,-9.8116,0,0,45.454,1,1,753,997
12414,4.8077e+07,1,0.0057626,0.0049576,0.010044,-0.30718,-0.072991,-9.8245,0,0,45.454,1,1,753,997
12417,4.8081e+07,1,0.0061668,0.0070397,0.0099811,-0.30784,-0.081286,-9.818,0,0,45.454,1,1,753,997
12448,4.8083e+07,1,0.0038753,0.0099539,0.010408,-0.32,-0.099383,-9.7849,0,0,45.454,1,1,753,997
12452,4.8086e+07,1,0.002059,0.0082399,0.010491,-0.32612,-0.10707,-9.772,0,0,45.454,1,1,753,997
12455,4.8088e+07,1,0.00043713,0.0059093,0.0072294,-0.32926,-0.11155,-9.7731,0,0,45.454,1,1,753,997
12458,4.809e+07,1,0.00025687,0.0067873,0.0054711,-0.32744,-0.10492,-9.7751,0,0,45.454,1,1,753,997
12493,4.8094e+07,1,0.0017627,0.010873,0.0032525,-0.3029,-0.095166,-9.7687,0,0,45.454,1,1,753,997
12496,4.8096e+07,1,0.0013064,0.011352,0.0035727,-0.26954,-0.085365,-9.7553,0,0,45.454,1,1,753,997
12499,4.8098e+07,1,-0.0004771,0.0091057,0.0032395,-0.22363,-0.056729,-9.7269,0,0,45.454,1,1,753,997
12502,4.81e+07,1,-0.0016253,0.0078166,0.0025866,-0.20868,-0.024973,-9.7221,0,0,45.454,1,1,753,997
12533,4.8103e+07,1,-0.0027817,0.0081698,0.0026369,-0.20072,0.019838,-9.7247,0,0,45.454,1,1,753,997
12537,4.8106e+07,1,-0.0008734,0.0076673,0.0030602,-0.20371,0.031135,-9.73,0,0,45.454,1,1,753,997
12540,4.8108e+07,1,0.0026714,0.00576,0.0033984,-0.20615,0.026173,-9.7485,0,0,45.454,1,1,753,997
12543,4.8111e+07,1,0.0035721,0.0047507,0.0032808,-0.2026,0.025307,-9.7759,0,0,45.454,1,1,753,997
12574,4.8113e+07,1,0.0012562,0.0037899,0.0037257,-0.20723,0.036775,-9.8039,0,0,45.454,1,1,753,997
12577,4.8115e+07,1,-0.00032879,0.0038238,0.0041024,-0.2223,0.04573,-9.7998,0,0,45.454,1,1,753,997
12581,4.8118e+07,1,-0.00091089,0.0068363,0.0031098,-0.25803,0.056275,-9.7898,0,0,45.454,1,1,753,997
12584,4.8121e+07,1,-0.0017099,0.0075149,0.002773,-0.27678,0.054924,-9.7843,0,0,45.454,1,1,753,997
12615,4.8124e+07,1,-0.0043986,0.0082154,0.0031397,-0.28986,0.038467,-9.8003,0,0,45.454,1,1,753,997
12619,4.8125e+07,1,-0.0038937,0.0086124,0.0043617,-0.28789,0.020415,-9.8189,0,0,45.454,1,1,753,997
12622,4.8128e+07,1,-0.0017178,0.0091498,0.0053377,-0.28566,-0.013519,-9.8374,0,0,45.454,1,1,753,997
12625,4.8131e+07,1,-0.00051785,0.0093551,0.0048239,-0.28809,-0.039403,-9.8357,0,0,45.454,1,1,753,997
12656,4.8133e+07,1,0.0023514,0.011753,0.00059787,-0.27678,-0.055406,-9.8356,0,0,45.454,1,1,753,997
12659,4.8138e+07,1,0.0039737,0.013834,0.00033074,-0.23444,-0.063583,-9.8669,0,0,45.454,1,1,753,997
12663,4.814e+07,1,0.0034617,0.012847,0.0022113,-0.22548,-0.067038,-9.8816,0,0,45.454,1,1,753,997
12694,4.8143e+07,1,0.0016636,0.011464,0.0049519,-0.21753,-0.071333,-9.8912,0,0,45.454,1,1,753,997
12698,4.8147e+07,1,0.0011611,0.011056,0.0063235,-0.21278,-0.071872,-9.9006,0,0,45.454,1,1,753,997
12701,4.8148e+07,1,7.5333e-05,0.011111,0.0062185,-0.20694,-0.069145,-9.9172,0,0,45.454,1,1,753,997
12704,4.815e+07,1,0.0014604,0.010655,0.0048325,-0.20574,-0.061587,-9.9271,0,0,45.454,1,1,753,997
12735,4.8153e+07,1,0.0031161,0.0097078,0.00243,-0.20837,-0.040236,-9.9284,0,0,45.454,1,1,753,997
12739,4.8155e+07,1,0.0041478,0.0063853,-0.0015785,-0.2189,-0.035612,-9.919,0,0,45.454,1,1,753,997
12742,4.8158e+07,1,0.0034467,0.0045566,-0.00020304,-0.23043,-0.03872,-9.8819,0,0,45.454,1,1,753,997
12746,4.8161e+07,1,0.0025434,0.0046296,0.0012688,-0.23549,-0.041279,-9.8532,0,0,45.454,1,1,753,997
12777,4.8163e+07,1,0.00075582,0.0074091,0.0040493,-0.2483,-0.043173,-9.8151,0,0,45.454,1,1,753,997
12780,4.8165e+07,1,0.001454,0.0080223,0.0051295,-0.25444,-0.043135,-9.7965,0,0,45.454,1,1,753,997
12783,4.8168e+07,1,0.0039399,0.0090084,0.0048301,-0.26547,-0.052406,-9.7628,0,0,45.454,1,1,753,997
12786,4.8171e+07,1,0.0059981,0.0092013,0.0034911,-0.27427,-0.055845,-9.7558,0,0,45.454,1,1,753,997
12817,4.8173e+07,1,0.0049185,0.008038,0.003747,-0.2837,-0.052324,-9.7596,0,0,45.454,1,1,753,997
12821,4.8176e+07,1,0.0022396,0.0046388,0.006448,-0.29122,-0.043466,-9.7562,0,0,45.454,1,1,753,997
12824,4.8178e+07,1,0.0010312,0.00084493,0.0069951,-0.30051,-0.036894,-9.751,0,0,45.454,1,1,753,997
12827,4.8181e+07,1,-0.00019124,0.00031207,0.0058337,-0.30671,-0.041117,-9.7384,0,0,45.454,1,1,753,997
12858,4.8183e+07,1,-0.0025908,0.0012805,0.0031639,-0.30821,-0.054859,-9.7162,0,0,45.454,1,1,753,997
12861,4.8186e+07,1,-0.0021411,0.001804,0.0027975,-0.30223,-0.057772,-9.7118,0,0,45.454,1,1,753,997
12864,4.8188e+07,1,-0.00026673,0.0040466,0.00087092,-0.28931,-0.061811,-9.6997,0,0,45.454,1,1,753,997
12867,4.819e+07,1,0.0028695,0.0051188,-0.0002815,-0.27706,-0.056292,-9.6888,0,0,45.454,1,1,753,997
12902,4.8193e+07,1,0.0058397,0.0041785,0.0016214,-0.25285,-0.058138,-9.7137,0,0,45.454,1,1,753,997
12906,4.8196e+07,1,0.0066398,0.0064229,0.0046104,-0.251,-0.062524,-9.7295,0,0,45.454,1,1,753,997
12909,4.8198e+07,1,0.0039492,0.010389,0.0042104,-0.26104,-0.075208,-9.7771,0,0,45.454,1,1,753,997
12912,4.8201e+07,1,0.0020367,0.011018,0.0026898,-0.26976,-0.086156,-9.8054,0,0,45.454,1,1,753,997
12943,4.8203e+07,1,-0.00020734,0.00516,0.0017638,-0.28748,-0.088982,-9.84,0,0,45.454,1,1,753,997
12946,4.8206e+07,1,0.001453,-0.00062614,0.0028213,-0.3196,-0.085599,-9.8796,0,0,45.454,1,1,753,997
12952,4.8209e+07,1,0.0024807,-0.003338,0.0021699,-0.34255,-0.083814,-9.919,0,0,45.454,1,1,753,997
12955,4.8211e+07,1,0.0018683,-0.0046921,0.0023205,-0.36594,-0.072098,-9.9594,0,0,45.454,1,1,753,997
12986,4.8214e+07,1,0.001416,-0.0036799,0.0028391,-0.37218,-0.064171,-9.9633,0,0,45.454,1,1,753,997
12990,4.8216e+07,1,0.001998,0.0016081,0.0080628,-0.37123,-0.055925,-9.9635,0,0,45.454,1,1,753,997
12993,4.8218e+07,1,0.0024342,0.0018821,0.009462,-0.3632,-0.062907,-9.9613,0,0,45.454,1,1,753,997
12996,4.8221e+07,1,0.0043365,0.0024547,0.010427,-0.34603,-0.077073,-9.9544,0,0,45.454,1,1,753,997
13027,4.8227e+07,1,0.0025875,0.0045978,0.0087775,-0.31428,-0.062663,-9.9514,0,0,45.455,1,1,753,997
13030,4.8228e+07,1,-0.00080211,0.0044854,0.0052603,-0.30241,-0.023286,-9.9523,0,0,45.455,1,1,753,997
13034,4.8231e+07,1,-0.0011794,0.0038661,0.0018301,-0.28887,-0.0086438,-9.9363,0,0,45.455,1,1,753,997
13065,4.8233e+07,1,-0.00016742,0.0042172,0.00058494,-0.27689,-0.0039909,-9.9081,0,0,45.455,1,1,753,997
13068,4.8236e+07,1,0.0038192,0.0049128,-0.001054,-0.2641,0.002257,-9.8567,0,0,45.455,1,1,753,997
13071,4.8242e+07,1,0.0028817,0.005553,0.0012563,-0.27507,0.019419,-9.8154,0,0,45.455,1,1,753,997
13075,4.8244e+07,1,-0.0003919,0.0060217,0.0036269,-0.29967,0.037529,-9.8092,0,0,45.455,1,1,753,997
13106,4.8246e+07,1,-0.0015683,0.0054767,0.0030533,-0.30958,0.049352,-9.8019,0,0,45.455,1,1,753,997
13109,4.8248e+07,1,-0.00054246,0.0032092,0.0042364,-0.30863,0.053102,-9.7969,0,0,45.455,1,1,753,997
13112,4.8251e+07,1,0.0017262,0.00064229,0.0060618,-0.276,0.055846,-9.8004,0,0,45.455,1,1,753,997
13115,4.8254e+07,1,0.0027234,-0.00013738,0.005375,-0.25355,0.060289,-9.803,0,0,45.455,1,1,753,997
13146,4.8256e+07,1,0.0037599,0.0023126,0.0034831,-0.2421,0.06796,-9.8179,0,0,45.455,1,1,753,997
13149,4.8258e+07,1,0.0044987,0.0043849,0.0029026,-0.23951,0.053836,-9.826,0,0,45.455,1,1,753,997
13152,4.8261e+07,1,0.0033586,0.0088504,0.0022376,-0.25074,0.021632,-9.8394,0,0,45.455,1,1,753,997
13156,4.8264e+07,1,0.002718,0.0097012,0.0018201,-0.273,0.0063909,-9.8515,0,0,45.455,1,1,753,997
13187,4.8266e+07,1,0.0010425,0.010469,0.0035779,-0.28933,-0.012855,-9.877,0,0,45.455,1,1,753,997
13190,4.8269e+07,1,-0.0025242,0.011831,0.0095884,-0.28844,-0.02544,-9.8821,0,0,45.455,1,1,753,997
13194,4.8271e+07,1,-0.0037506,0.011934,0.013736,-0.28481,-0.04474,-9.8678,0,0,45.455,1,1,753,997
13197,4.8273e+07,1,-0.0011486,0.0089744,0.012426,-0.28358,-0.048251,-9.8539,0,0,45.455,1,1,753,997
13228,4.8276e+07,1,0.0021803,0.0045577,0.0083868,-0.2898,-0.050014,-9.8438,0,0,45.455,1,1,753,997
13232,4.8278e+07,1,0.0031813,0.0019552,0.0064936,-0.30264,-0.052783,-9.842,0,0,45.455,1,1,753,997
13235,4.8281e+07,1,0.0023032,-7.6471e-05,0.0018799,-0.30924,-0.066249,-9.8182,0,0,45.455,1,1,753,997
13239,4.8284e+07,1,0.0013073,0.00070796,0.00056588,-0.30997,-0.069593,-9.7991,0,0,45.455,1,1,753,997
13270,4.8286e+07,1,6.5467e-05,0.0028719,0.000277,-0.3201,-0.07093,-9.7783,0,0,45.455,1,1,753,997
13273,4.8289e+07,1,-0.00042028,0.0035015,0.0012135,-0.33211,-0.076543,-9.7769,0,0,45.455,1,1,753,997
13276,4.8291e+07,1,0.0018963,0.0046595,0.0026672,-0.34868,-0.080457,-9.7482,0,0,45.455,1,1,753,997
13284,4.8294e+07,1,0.0048463,0.0063611,0.004918,-0.35441,-0.080009,-9.7314,0,0,45.455,1,1,753,997
13315,4.8296e+07,1,0.0070131,0.0073827,0.006818,-0.35612,-0.071505,-9.7048,0,0,45.455,1,1,753,997
13318,4.8299e+07,1,0.0074999,0.006816,0.007253,-0.3471,-0.0554,-9.6709,0,0,45.455,1,1,753,997
13321,4.8302e+07,1,0.0056074,0.0036951,0.0076998,-0.33088,-0.047032,-9.6547,0,0,45.455,1,1,753,997
13324,4.8304e+07,1,0.0047328,0.0032735,0.0083408,-0.30532,-0.033934,-9.6632,0,0,45.456,1,1,753,997
13355,4.8306e+07,1,0.0043427,0.0062782,0.0068871,-0.28961,-0.02387,-9.6813,0,0,45.456,1,1,753,997
13358,4.8309e+07,1,0.0021502,0.0069846,0.0053489,-0.27345,-0.011063,-9.7192,0,0,45.456,1,1,753,997
13361,4.8311e+07,1,0.00011396,0.0065689,0.0046116,-0.26467,-0.015654,-9.7476,0,0,45.456,1,1,753,997
13365,4.8314e+07,1,-0.0047771,0.0043663,0.002479,-0.26817,-0.038273,-9.7877,0,0,45.456,1,1,753,997
13396,4.8317e+07,1,-0.004379,0.0038649,0.0019587,-0.27791,-0.055987,-9.8418,0,0,45.456,1,1,753,997
13399,4.8319e+07,1,-0.0038883,0.0043489,0.0018047,-0.29038,-0.053148,-9.8854,0,0,45.456,1,1,753,997
13403,4.8321e+07,1,-0.0022283,0.0068877,0.0022526,-0.30018,-0.054406,-9.9205,0,0,45.456,1,1,753,997
13406,4.8324e+07,1,-0.00055331,0.0063345,0.0024741,-0.31112,-0.062805,-9.9416,0,0,45.456,1,1,753,997
13437,4.8326e+07,1,0.0016709,0.0056329,0.00069159,-0.32083,-0.054086,-9.9268,0,0,45.456,1,1,753,997
13440,4.8329e+07,1,0.0033772,0.0046076,-0.0015133,-0.33121,-0.030219,-9.8949,0,0,45.456,1,1,753,997
13443,4.8332e+07,1,0.0036852,0.00033088,-0.0019438,-0.33503,-0.010654,-9.8824,0,0,45.456,1,1,753,997
13447,4.8334e+07,1,0.0021597,-0.00056278,-0.0051574,-0.33088,0.01713,-9.8754,0,0,45.456,1,1,753,997
13478,4.8337e+07,1,0.0019702,-0.0004767,-0.0061742,-0.32264,0.038877,-9.8632,0,0,45.456,1,1,753,997
13481,4.8339e+07,1,0.0038714,0.00061461,-0.00096387,-0.31355,0.055753,-9.8396,0,0,45.456,1,1,753,997
13484,4.8341e+07,1,0.0032896,0.0011647,0.0017137,-0.32031,0.056126,-9.8154,0,0,45.456,1,1,753,997
13487,4.8348e+07,1,0.0043942,0.0013737,0.0036221,-0.37063,0.028351,-9.7758,0,0,45.456,1,1,753,997
13518,4.835e+07,1,0.0042547,0.00087056,0.0030327,-0.37191,0.0052499,-9.7781,0,0,45.456,1,1,753,997
13521,4.8353e+07,1,0.0028241,0.0013518,0.0023101,-0.38101,-0.0039781,-9.7811,0,0,45.456,1,1,753,997
13525,4.8356e+07,1,-0.002991,0.0038223,-0.0026611,-0.40483,-0.01935,-9.7986,0,0,45.456,1,1,753,997
13528,4.8358e+07,1,-0.004124,0.0040257,-0.0045032,-0.40888,-0.027466,-9.8049,0,0,45.456,1,1,753,997
13559,4.8361e+07,1,-0.0035337,0.0053152,-0.0058327,-0.39147,-0.039088,-9.8113,0,0,45.457,1,1,753,997
13562,4.8362e+07,1,0.00018996,0.0070585,-0.0051693,-0.37818,-0.052995,-9.8215,0,0,45.457,1,1,753,997
13566,4.8365e+07,1,0.0030321,0.0078813,-0.0039081,-0.35335,-0.061966,-9.8161,0,0,45.457,1,1,753,997
13570,4.8367e+07,1,0.0017417,0.0073269,-0.0028075,-0.33517,-0.058802,-9.8135,0,0,45.457,1,1,753,997
13601,4.837e+07,1,0.00084861,0.0051237,-0.0016564,-0.31226,-0.046033,-9.827,0,0,45.457,1,1,753,997
13604,4.8373e+07,1,0.0011977,0.0050696,-0.0012012,-0.30326,-0.03272,-9.8335,0,0,45.457,1,1,753,997
13608,4.8375e+07,1,0.0025714,0.006627,0.0040932,-0.29772,-0.0036671,-9.8376,0,0,45.457,1,1,753,997
13611,4.8378e+07,1,0.0029104,0.0060652,0.0060251,-0.29387,0.0094801,-9.8458,0,0,45.457,1,1,753,997
13642,4.838e+07,1,0.0049769,0.0045992,0.0088588,-0.29485,0.011002,-9.8539,0,0,45.457,1,1,753,997
13645,4.8383e+07,1,0.0059968,0.0048329,0.0091371,-0.31303,0.0085707,-9.861,0,0,45.457,1,1,753,997
13649,4.8386e+07,1,0.0049232,0.0057703,0.0076694,-0.32643,0.011859,-9.8563,0,0,45.457,1,1,753,997
13652,4.8388e+07,1,0.0014116,0.0078784,0.0031512,-0.3479,0.024058,-9.8597,0,0,45.457,1,1,753,997
13683,4.8391e+07,1,3.9547e-05,0.0061658,0.001627,-0.35974,0.03478,-9.862,0,0,45.457,1,1,753,997
13686,4.8393e+07,1,0.00067545,0.0048545,0.00095053,-0.36214,0.041344,-9.8607,0,0,45.457,1,1,753,997
13693,4.8396e+07,1,0.003611,0.0034388,-0.0013041,-0.35983,0.047932,-9.8607,0,0,45.457,1,1,753,997
13696,4.8398e+07,1,0.0062172,0.0041223,-0.0027385,-0.35512,0.043837,-9.8628,0,0,45.457,1,1,753,997
13727,4.8401e+07,1,0.0048356,0.0025484,0.0013145,-0.34865,0.031207,-9.8533,0,0,45.457,1,1,753,997
13730,4.8403e+07,1,0.0012759,-0.00069261,0.005222,-0.33319,0.0090621,-9.8289,0,0,45.457,1,1,753,997
13734,4.8406e+07,1,-0.00011114,-0.0012784,0.0057174,-0.30813,-0.013222,-9.7881,0,0,45.457,1,1,753,997
13737,4.8408e+07,1,-0.0015256,0.0026998,0.0076128,-0.29305,-0.038522,-9.7509,0,0,45.457,1,1,753,997
13770,4.8411e+07,1,-0.0013855,0.0042601,0.0089926,-0.29141,-0.055009,-9.7577,0,0,45.457,1,1,753,997
13773,4.8413e+07,1,-0.0014506,0.0066151,0.010327,-0.27197,-0.073589,-9.7633,0,0,45.458,1,1,753,997
13777,4.8416e+07,1,-0.0027544,0.0062735,0.0077246,-0.25474,-0.081002,-9.7671,0,0,45.458,1,1,753,997
13781,4.8418e+07,1,-0.0037812,0.0050679,0.0033024,-0.23798,-0.069687,-9.7588,0,0,45.458,1,1,753,997
13812,4.8424e+07,1,-6.0386e-05,0.0031865,0.0056828,-0.23694,-0.053561,-9.7849,0,0,45.458,1,1,753,997
13816,4.8426e+07,1,0.0013723,0.0023472,0.0062419,-0.23334,-0.054671,-9.8011,0,0,45.458,1,1,753,997
13819,4.8429e+07,1,0.0042005,-0.002793,0.0065827,-0.23792,-0.063807,-9.811,0,0,45.458,1,1,753,997
13850,4.8431e+07,1,0.0050444,-0.0028974,0.0066975,-0.24498,-0.090626,-9.8313,0,0,45.458,1,1,753,997
13853,4.8434e+07,1,0.0055601,-0.0020681,0.0072671,-0.24408,-0.10532,-9.8445,0,0,45.458,1,1,753,997
13856,4.8436e+07,1,0.0056732,-0.0023664,0.0075645,-0.238,-0.1068,-9.8452,0,0,45.458,1,1,753,997
13859,4.8438e+07,1,0.0030376,-0.0016701,0.0054143,-0.23092,-0.097044,-9.8501,0,0,45.458,1,1,753,997
13890,4.8442e+07,1,-0.00037143,0.00082904,0.0024695,-0.21294,-0.077328,-9.8786,0,0,45.458,1,1,753,997
13893,4.8445e+07,1,-0.0029832,0.0033614,0.0018224,-0.19898,-0.061168,-9.9157,0,0,45.458,1,1,753,997
13897,4.8446e+07,1,-0.0030171,0.0044067,0.002343,-0.19415,-0.05609,-9.9252,0,0,45.458,1,1,753,997
13900,4.8448e+07,1,-0.002279,0.0065605,0.0040968,-0.19141,-0.062583,-9.9246,0,0,45.458,1,1,753,997
13931,4.8451e+07,1,-0.0019575,0.007326,0.0047261,-0.17584,-0.086936,-9.9168,0,0,45.458,1,1,753,997
13934,4.8455e+07,1,-0.0014217,0.0080838,0.0050112,-0.15883,-0.10161,-9.9118,0,0,45.458,1,1,753,997
13938,4.8456e+07,1,-0.00055586,0.0087142,0.004852,-0.15032,-0.10034,-9.8997,0,0,45.458,1,1,753,997
13941,4.8459e+07,1,0.0012503,0.0083451,0.0035762,-0.14814,-0.091283,-9.8798,0,0,45.459,1,1,753,997
13972,4.8461e+07,1,0.00267,0.0067044,0.0055791,-0.16542,-0.081482,-9.8674,0,0,45.459,1,1,753,997
13976,4.8464e+07,1,0.0017502,0.0068567,0.0054169,-0.17241,-0.081327,-9.8613,0,0,45.459,1,1,753,997
13980,4.8467e+07,1,-0.0010019,0.0084896,0.0025473,-0.19592,-0.077213,-9.8437,0,0,45.459,1,1,753,997
13983,4.847e+07,1,-0.002081,0.009709,0.0014377,-0.22879,-0.075357,-9.8327,0,0,45.459,1,1,753,997
14014,4.8472e+07,1,-0.00053765,0.012235,-0.00060818,-0.291,-0.097881,-9.8264,0,0,45.459,1,1,753,997
14017,4.8475e+07,1,0.0027777,0.013325,-0.00034088,-0.34894,-0.11968,-9.8456,0,0,45.459,1,1,753,997
14021,4.8477e+07,1,0.0025932,0.0099999,0.00033148,-0.37573,-0.13355,-9.8612,0,0,45.459,1,1,753,997
14024,4.848e+07,1,0.0019661,0.0056048,0.000868,-0.40122,-0.14955,-9.8488,0,0,45.459,1,1,753,997
14055,4.8483e+07,1,-0.00068107,0.00062878,0.00010104,-0.39616,-0.14957,-9.8498,0,0,45.459,1,1,753,997
14058,4.8485e+07,1,-0.0056364,-0.0009601,-0.00098062,-0.39049,-0.13794,-9.841,0,0,45.459,1,1,753,997
