LineNo,TimeUS,I,GyrX,GyrY,GyrZ,AccX,AccY,AccZ,EG,EA,T,GH,AH,GHz,AHz
182,4.4956e+07,0,-0.0044501,0.0010225,-0.0022723,-0.25456,0.072057,-9.741,0,0,44.659,1,1,8008,4004
293,4.499e+07,0,-0.0025163,0.0022246,-0.0013854,-0.23852,0.087941,-9.7593,0,0,44.659,1,1,8008,4004
409,4.5015e+07,0,-0.0005404,0.0019012,-0.00066086,-0.24167,0.10582,-9.7523,0,0,44.659,1,1,8008,4004
440,4.5018e+07,0,-0.0003834,0.0025731,-0.00057575,-0.23956,0.1084,-9.7524,0,0,44.659,1,1,8008,4004
520,4.5037e+07,0,0.0012668,-0.00087869,0.0017746,-0.25157,0.10665,-9.7636,0,0,44.659,1,1,8008,4004
635,4.5057e+07,0,0.0028703,-0.00090969,0.00029541,-0.23339,0.088123,-9.756,0,0,44.659,1,1,8008,4004
751,4.5078e+07,0,-0.00010786,0.00021526,0.0015329,-0.24517,0.088133,-9.7469,0,0,44.659,1,1,8008,4004
866,4.5101e+07,0,-0.003734,0.0028544,-0.0014295,-0.25455,0.086156,-9.7509,0,0,44.658,1,1,8008,4004
897,4.5103e+07,0,-0.0044514,0.0027085,-0.000546,-0.25381,0.084273,-9.7517,0,0,44.658,1,1,8008,4004
978,4.5128e+07,0,-0.0070769,0.0037417,-0.0016189,-0.23438,0.077132,-9.7399,0,0,44.657,1,1,8008,4004
1093,4.5179e+07,0,-0.0002788,-0.0011157,0.0014036,-0.24727,0.10041,-9.7525,0,0,44.657,1,1,8008,4004
1124,4.5182e+07,0,0.00047118,-0.0012963,0.0017562,-0.25206,0.10559,-9.7471,0,0,44.657,1,1,8008,4004
1204,4.5259e+07,0,0.00065286,0.0035849,-0.0007046,-0.23316,0.0877,-9.7543,0,0,44.659,1,1,8008,4004
1292,4.5304e+07,0,-0.005681,0.00094965,0.0012122,-0.23972,0.095413,-9.7516,0,0,44.66,1,1,8008,4004
1295,4.5306e+07,0,-0.0052776,0.0008875,0.00063829,-0.24065,0.098575,-9.7566,0,0,44.66,1,1,8008,4004
1326,4.5308e+07,0,-0.0053238,0.0010238,0.00036776,-0.2403,0.10126,-9.7577,0,0,44.66,1,1,8008,4004
1389,4.5323e+07,0,-0.003751,-5.5148e-05,-0.00119,-0.23424,0.10355,-9.7529,0,0,44.66,1,1,8008,4004
1481,4.5338e+07,0,-0.0024902,0.0021811,-0.00064159,-0.24102,0.11524,-9.7562,0,0,44.661,1,1,8008,4004
1545,4.5343e+07,0,-0.0020163,0.0034555,0.00020098,-0.24296,0.11854,-9.7661,0,0,44.661,1,1,8008,4004
1548,4.5344e+07,0,-0.0012308,0.0040901,0.0011699,-0.24313,0.11789,-9.7725,0,0,44.661,1,1,8008,4004
1565,4.5359e+07,0,-0.0012503,0.0016735,0.00079531,-0.22802,0.096962,-9.7588,0,0,44.662,1,1,8008,4004
1568,4.5362e+07,0,-0.00089787,0.0015251,0.0004427,-0.22851,0.096179,-9.7613,0,0,44.662,1,1,8008,4004
1571,4.5365e+07,0,-0.00077177,0.0021362,-0.00054828,-0.22858,0.097283,-9.7654,0,0,44.662,1,1,8008,4004
1602,4.5367e+07,0,-0.00016526,0.0028483,-0.00042464,-0.22926,0.097976,-9.7674,0,0,44.662,1,1,8008,4004
1605,4.537e+07,0,0.0011599,0.0035169,0.00024277,-0.22959,0.098173,-9.7691,0,0,44.663,1,1,8008,4004
1609,4.5372e+07,0,0.0016364,0.0038132,0.00096893,-0.22887,0.098354,-9.7669,0,0,44.663,1,1,8008,4004
1613,4.5375e+07,0,0.0015922,0.0030288,0.00099307,-0.22711,0.097425,-9.7657,0,0,44.663,1,1,8008,4004
1644,4.5378e+07,0,0.001152,0.0017796,-0.00018679,-0.2243,0.093481,-9.7687,0,0,44.663,1,1,8008,4004
1647,4.538e+07,0,0.00063596,0.0016937,-0.00056752,-0.2229,0.090502,-9.771,0,0,44.663,1,1,8008,4004
1650,4.5382e+07,0,0.00053527,0.0020747,-0.00028661,-0.22238,0.089236,-9.7713,0,0,44.663,1,1,8008,4004
1654,4.5385e+07,0,0.0011847,0.0026176,6.5401e-05,-0.22119,0.088437,-9.7674,0,0,44.663,1,1,8008,4004
1685,4.5388e+07,0,0.0022053,0.0027478,0.00017523,-0.22031,0.08803,-9.7649,0,0,44.663,1,1,8008,4004
1688,4.5391e+07,0,0.0018599,0.002749,-0.0001024,-0.22126,0.088723,-9.7625,0,0,44.664,1,1,8008,4004
1691,4.5392e+07,0,0.00064848,0.0018766,-0.00061637,-0.2251,0.09058,-9.7644,0,0,44.664,1,1,8008,4004
1694,4.5395e+07,0,0.00048268,0.00081043,-0.0010673,-0.22807,0.091631,-9.7655,0,0,44.664,1,1,8008,4004
1725,4.5398e+07,0,0.0010725,-0.0010549,-0.0010565,-0.23285,0.090373,-9.7698,0,0,44.664,1,1,8008,4004
1728,4.54e+07,0,0.0011316,-0.0014867,-0.0013414,-0.2364,0.089139,-9.7711,0,0,44.664,1,1,8008,4004
1731,4.5403e+07,0,0.00088122,-0.002015,-0.00088981,-0.23902,0.088235,-9.7705,0,0,44.664,1,1,8008,4004
1735,4.5405e+07,0,0.00025568,-0.0020164,0.00015099,-0.23784,0.086369,-9.7703,0,0,44.664,1,1,8008,4004
1768,4.5408e+07,0,-0.00020033,-0.0017682,0.00018627,-0.23475,0.084464,-9.7703,0,0,44.664,1,1,8008,4004
1771,4.541e+07,0,0.00039721,-0.0010825,0.00080685,-0.23261,0.083365,-9.7719,0,0,44.665,1,1,8008,4004
1774,4.5412e+07,0,0.0010998,-8.0034e-05,0.0010751,-0.23301,0.084093,-9.7739,0,0,44.665,1,1,8008,4004
1777,4.5415e+07,0,0.0013649,0.00018756,0.0014924,-0.23477,0.084363,-9.7794,0,0,44.665,1,1,8008,4004
1808,4.5417e+07,0,2.9058e-05,-0.00056014,0.0018383,-0.23788,0.085824,-9.7851,0,0,44.665,1,1,8008,4004
1811,4.542e+07,0,0.00035727,-0.0014117,0.0025201,-0.23961,0.089374,-9.788,0,0,44.665,1,1,8008,4004
1814,4.5423e+07,0,0.00051546,-0.0030596,0.0028241,-0.24106,0.093198,-9.7895,0,0,44.665,1,1,8008,4004
1819,4.5425e+07,0,-4.6372e-05,-0.0033865,0.0023748,-0.24267,0.093456,-9.7886,0,0,44.665,1,1,8008,4004
1850,4.5428e+07,0,-0.00093402,-0.0027443,0.0015453,-0.24694,0.092622,-9.7823,0,0,44.665,1,1,8008,4004
1853,4.543e+07,0,-0.0013616,-0.0029001,0.0012319,-0.25026,0.092652,-9.7772,0,0,44.665,1,1,8008,4004
1856,4.5433e+07,0,-0.0021188,-0.0028814,0.0010538,-0.25427,0.093113,-9.7703,0,0,44.665,1,1,8008,4004
1859,4.5436e+07,0,-0.0014219,-0.0022207,0.00077217,-0.25652,0.093023,-9.7666,0,0,44.665,1,1,8008,4004
1890,4.5438e+07,0,-7.2309e-06,-0.0012094,0.00027829,-0.25911,0.092393,-9.7625,0,0,44.665,1,1,8008,4004
1893,4.5441e+07,0,5.0014e-05,-0.00034392,0.00099566,-0.26046,0.091645,-9.7593,0,0,44.665,1,1,8008,4004
1896,4.5443e+07,0,-0.00023769,-7.2869e-05,0.0012976,-0.26059,0.091004,-9.7566,0,0,44.665,1,1,8008,4004
1900,4.5446e+07,0,-0.0011226,1.3721e-05,0.00014631,-0.2635,0.089234,-9.7523,0,0,44.666,1,1,8008,4004
1931,4.5449e+07,0,-0.0022459,0.0008025,-0.00029577,-0.2666,0.088605,-9.751,0,0,44.666,1,1,8008,4004
1934,4.5451e+07,0,-0.003295,0.0017163,-0.00040645,-0.26656,0.089376,-9.7541,0,0,44.666,1,1,8008,4004
1937,4.5454e+07,0,-0.0055357,0.002648,-0.00033371,-0.2636,0.088748,-9.7566,0,0,44.666,1,1,8008,4004
1945,4.5457e+07,0,-0.0055209,0.0024936,-0.00021759,-0.26066,0.087365,-9.7576,0,0,44.666,1,1,8008,4004
1976,4.5459e+07,0,-0.0048286,0.0026199,0.00038264,-0.25596,0.08707,-9.7592,0,0,44.666,1,1,8008,4004
1979,4.5462e+07,0,-0.0045125,0.002574,0.0019042,-0.25316,0.089023,-9.7589,0,0,44.666,1,1,8008,4004
1982,4.5464e+07,0,-0.0035154,0.0013005,0.0028177,-0.25195,0.090159,-9.7579,0,0,44.666,1,1,8008,4004
1985,4.5466e+07,0,-0.0034774,9.1566e-05,0.0030615,-0.24944,0.092477,-9.7577,0,0,44.666,1,1,8008,4004
2016,4.5469e+07,0,-0.0040716,0.00031595,0.0022125,-0.24786,0.092531,-9.7588,0,0,44.666,1,1,8008,4004
2020,4.5472e+07,0,-0.0043775,0.0011346,0.0005887,-0.24765,0.090956,-9.7613,0,0,44.666,1,1,8008,4004
2024,4.5474e+07,0,-0.003274,0.0015996,0.0005044,-0.24954,0.090343,-9.7624,0,0,44.666,1,1,8008,4004
2028,4.5476e+07,0,-0.0014072,0.0018691,0.00045445,-0.25268,0.090807,-9.7629,0,0,44.666,1,1,8008,4004
2059,4.5479e+07,0,-0.0010108,0.0027892,0.00018514,-0.25435,0.092037,-9.7635,0,0,44.667,1,1,8008,4004
2062,4.5482e+07,0,-0.0019421,0.0028427,6.4487e-05,-0.25529,0.093119,-9.7612,0,0,44.667,1,1,8008,4004
2065,4.5485e+07,0,-0.0022295,0.0027616,0.00079421,-0.25578,0.09362,-9.7584,0,0,44.667,1,1,8008,4004
2068,4.5487e+07,0,-0.0011799,0.0033373,0.00035179,-0.25644,0.093237,-9.7551,0,0,44.667,1,1,8008,4004
2099,4.5489e+07,0,-0.0011443,0.0041859,0.0004379,-0.25826,0.09346,-9.7534,0,0,44.667,1,1,8008,4004
2102,4.5492e+07,0,-0.0018633,0.0045581,0.0016474,-0.25911,0.09427,-9.7525,0,0,44.667,1,1,8008,4004
2105,4.5496e+07,0,-0.0023627,0.0048231,0.0017428,-0.25857,0.095205,-9.7514,0,0,44.667,1,1,8008,4004
2109,4.5499e+07,0,-0.0027433,0.0040155,0.00080504,-0.25706,0.094592,-9.7504,0,0,44.667,1,1,8008,4004
2112,4.55e+07,0,-0.0028631,0.0027497,-0.00049359,-0.25536,0.09436,-9.7492,0,0,44.667,1,1,8008,4004
2143,4.5503e+07,0,-0.0026923,0.0024971,-0.001537,-0.25356,0.094987,-9.75,0,0,44.667,1,1,8008,4004
2146,4.5505e+07,0,-0.0025549,0.0027275,-0.00090005,-0.25175,0.096202,-9.7512,0,0,44.668,1,1,8008,4004
2149,4.5508e+07,0,-0.0018287,0.0018635,-0.00064847,-0.25039,0.097792,-9.7522,0,0,44.668,1,1,8008,4004
2152,4.5511e+07,0,-0.0024647,0.00041182,-0.00069455,-0.25116,0.097933,-9.7543,0,0,44.668,1,1,8008,4004
2183,4.5513e+07,0,-0.0031742,0.00032494,-0.00026074,-0.25198,0.09894,-9.7609,0,0,44.668,1,1,8008,4004
2186,4.5515e+07,0,-0.002984,0.00058989,-4.0914e-05,-0.25036,0.09767,-9.765,0,0,44.668,1,1,8008,4004
2190,4.5518e+07,0,-0.0034517,0.00085885,0.0010898,-0.24676,0.092364,-9.7706,0,0,44.668,1,1,8008,4004
2193,4.5521e+07,0,-0.0040676,0.00097639,0.001286,-0.24551,0.08851,-9.772,0,0,44.668,1,1,8008,4004
2224,4.5524e+07,0,-0.003979,0.00087722,0.00038544,-0.24667,0.085204,-9.7708,0,0,44.668,1,1,8008,4004
2228,4.5526e+07,0,-0.0035457,0.0012738,0.00013855,-0.24664,0.085341,-9.7685,0,0,44.668,1,1,8008,4004
2231,4.5528e+07,0,-0.002915,0.0013263,2.5816e-06,-0.2468,0.085897,-9.7674,0,0,44.668,1,1,8008,4004
2237,4.5531e+07,0,-0.0021105,0.0015416,-0.00055568,-0.24785,0.087018,-9.7633,0,0,44.668,1,1,8008,4004
2268,4.5533e+07,0,-0.0015546,0.001909,0.0002433,-0.24811,0.090021,-9.7596,0,0,44.668,1,1,8008,4004
2271,4.5537e+07,0,-0.0011316,0.0023199,0.0011236,-0.24655,0.0929,-9.7555,0,0,44.668,1,1,8008,4004
2275,4.5539e+07,0,-0.00016807,0.0021002,0.0012016,-0.24437,0.09817,-9.7461,0,0,44.668,1,1,8008,4004
2278,4.5541e+07,0,0.00032408,0.0017197,0.0014403,-0.2436,0.10255,-9.7389,0,0,44.668,1,1,8008,4004
2309,4.5544e+07,0,0.0012377,0.0008225,0.0010834,-0.23942,0.10957,-9.7306,0,0,44.668,1,1,8008,4004
2312,4.5546e+07,0,0.0013569,0.00040804,0.00031811,-0.23569,0.1132,-9.7281,0,0,44.669,1,1,8008,4004
2316,4.5549e+07,0,0.0010705,0.00041481,-0.00052665,-0.23236,0.11533,-9.7245,0,0,44.669,1,1,8008,4004
2319,4.5551e+07,0,0.0013522,0.00079226,-0.00019978,-0.23071,0.11516,-9.7248,0,0,44.669,1,1,8008,4004
2352,4.5554e+07,0,0.0015114,0.0009402,0.00040256,-0.22808,0.11048,-9.7316,0,0,44.669,1,1,8008,4004
2355,4.5557e+07,0,0.0011328,0.0010158,0.00048262,-0.2277,0.10627,-9.7372,0,0,44.669,1,1,8008,4004
2362,4.556e+07,0,0.00065403,0.0013839,0.0007189,-0.22922,0.10131,-9.7465,0,0,44.668,1,1,8008,4004
2365,4.5561e+07,0,9.4985e-05,0.0010904,0.0017227,-0.23082,0.098852,-9.7525,0,0,44.668,1,1,8008,4004
2396,4.5564e+07,0,-0.00040272,0.00046285,0.0028351,-0.23649,0.096188,-9.7596,0,0,44.668,1,1,8008,4004
2399,4.5566e+07,0,-0.00028226,0.0014082,0.0031284,-0.24249,0.096256,-9.7617,0,0,44.668,1,1,8008,4004
2403,4.5569e+07,0,0.0011103,0.0029432,0.0025581,-0.24955,0.098255,-9.7632,0,0,44.668,1,1,8008,4004
2406,4.5572e+07,0,0.0016431,0.0026647,0.0019594,-0.25087,0.098591,-9.7644,0,0,44.668,1,1,8008,4004
2437,4.5574e+07,0,0.0014217,0.0031019,0.0013699,-0.25154,0.097331,-9.7673,0,0,44.668,1,1,8008,4004
2442,4.5577e+07,0,0.0011442,0.0035256,0.0015687,-0.24897,0.096061,-9.7675,0,0,44.668,1,1,8008,4004
2445,4.558e+07,0,0.0015992,0.0041504,0.00074953,-0.24043,0.093273,-9.7645,0,0,44.668,1,1,8008,4004
2448,4.5582e+07,0,0.0019494,0.004232,-0.00014465,-0.23366,0.092257,-9.7624,0,0,44.668,1,1,8008,4004
2479,4.5585e+07,0,0.0021557,0.0037334,-0.00036862,-0.22753,0.091584,-9.7594,0,0,44.668,1,1,8008,4004
2482,4.5587e+07,0,0.0014985,0.003208,-5.5328e-05,-0.22722,0.090614,-9.7581,0,0,44.668,1,1,8008,4004
2486,4.559e+07,0,-7.8191e-06,0.0025219,-0.00030012,-0.23005,0.088651,-9.7607,0,0,44.668,1,1,8008,4004
2489,4.5592e+07,0,-0.00089144,0.0023178,-0.0010227,-0.2333,0.087754,-9.7637,0,0,44.668,1,1,8008,4004
2520,4.5596e+07,0,-0.00018583,0.0029207,-0.0011403,-0.23725,0.088996,-9.7665,0,0,44.668,1,1,8008,4004
2523,4.5598e+07,0,0.000351,0.0038159,9.7628e-05,-0.23771,0.089083,-9.7658,0,0,44.668,1,1,8008,4004
2526,4.56e+07,0,-0.00039855,0.0030614,0.0010983,-0.23573,0.088893,-9.7653,0,0,44.668,1,1,8008,4004
2529,4.5603e+07,0,-0.001674,0.0017401,0.0010178,-0.23452,0.090943,-9.7655,0,0,44.668,1,1,8008,4004
2560,4.5606e+07,0,-0.0019059,0.0010813,0.0010905,-0.23393,0.094171,-9.7658,0,0,44.668,1,1,8008,4004
2563,4.5608e+07,0,-0.00010995,0.0013538,0.0014691,-0.23281,0.098896,-9.7635,0,0,44.667,1,1,8008,4004
2567,4.561e+07,0,0.00063078,0.0018487,0.00137,-0.23124,0.10044,-9.7599,0,0,44.667,1,1,8008,4004
2572,4.5613e+07,0,-0.00011862,0.001674,0.00097054,-0.22933,0.10227,-9.7532,0,0,44.667,1,1,8008,4004
2603,4.5617e+07,0,-0.00085881,0.00045631,0.00050279,-0.22698,0.10315,-9.7456,0,0,44.667,1,1,8008,4004
2606,4.5619e+07,0,-0.00051852,0.00040106,-0.00061094,-0.22368,0.10229,-9.7384,0,0,44.667,1,1,8008,4004
2610,4.5621e+07,0,-0.00077223,0.00030251,-0.0015658,-0.22241,0.098321,-9.7338,0,0,44.667,1,1,8008,4004
2614,4.5624e+07,0,-0.0023391,0.000248,-0.0016673,-0.22336,0.09053,-9.7295,0,0,44.667,1,1,8008,4004
2645,4.5627e+07,0,-0.00257,-0.00042066,-0.00096317,-0.22409,0.085673,-9.7285,0,0,44.667,1,1,8008,4004
2648,4.5629e+07,0,-0.0020411,-0.0010137,-0.00057024,-0.22569,0.079175,-9.734,0,0,44.667,1,1,8008,4004
2651,4.5632e+07,0,-0.001201,-0.00093918,-0.00053442,-0.22731,0.07515,-9.7411,0,0,44.667,1,1,8008,4004
2654,4.5634e+07,0,-0.0017331,-0.0014212,-0.00026776,-0.22899,0.069622,-9.7471,0,0,44.667,1,1,8008,4004
2685,4.5636e+07,0,-0.002969,-0.0018692,-0.00012764,-0.22943,0.067681,-9.7472,0,0,44.667,1,1,8008,4004
2688,4.5639e+07,0,-0.0041494,-0.0028251,-0.00011987,-0.22872,0.06689,-9.7475,0,0,44.667,1,1,8008,4004
2692,4.5641e+07,0,-0.0040989,-0.0022234,-0.00022663,-0.22768,0.066874,-9.7472,0,0,44.667,1,1,8008,4004
2695,4.5644e+07,0,-0.0041213,-0.0016641,-0.00072697,-0.22505,0.066922,-9.7473,0,0,44.667,1,1,8008,4004
2726,4.5646e+07,0,-0.0044298,-0.0017014,-0.00094076,-0.22587,0.067469,-9.7494,0,0,44.667,1,1,8008,4004
2729,4.5649e+07,0,-0.0051091,-0.0014867,-0.0016613,-0.22863,0.069846,-9.7513,0,0,44.667,1,1,8008,4004
2732,4.5652e+07,0,-0.0050952,-0.0020157,-0.0015328,-0.23204,0.076831,-9.7527,0,0,44.667,1,1,8008,4004
2735,4.5654e+07,0,-0.0057481,-0.0015141,-0.00083393,-0.23316,0.082411,-9.7528,0,0,44.667,1,1,8008,4004
2766,4.5657e+07,0,-0.0055482,-0.00057381,-0.00061795,-0.23322,0.090107,-9.7529,0,0,44.667,1,1,8008,4004
2769,4.566e+07,0,-0.0046774,-0.00016218,-0.00057425,-0.2333,0.094499,-9.7514,0,0,44.667,1,1,8008,4004
2777,4.5662e+07,0,-0.0048784,-0.00011712,-0.001383,-0.23591,0.1,-9.7474,0,0,44.667,1,1,8008,4004
2781,4.5664e+07,0,-0.0055373,-0.00052965,-0.0015792,-0.24022,0.102,-9.7473,0,0,44.667,1,1,8008,4004
2812,4.5667e+07,0,-0.0062037,-0.0017544,-0.0013676,-0.24741,0.09969,-9.7482,0,0,44.667,1,1,8008,4004
2815,4.5669e+07,0,-0.0063549,-0.0019243,-0.0012617,-0.24967,0.097028,-9.7498,0,0,44.667,1,1,8008,4004
2819,4.5672e+07,0,-0.0051748,-0.0010341,-0.0013509,-0.25075,0.093271,-9.7534,0,0,44.667,1,1,8008,4004
2822,4.5674e+07,0,-0.0044744,9.8542e-05,-0.0011647,-0.24971,0.089805,-9.7551,0,0,44.667,1,1,8008,4004
2853,4.5677e+07,0,-0.0037867,0.0013845,-0.00061636,-0.24462,0.08796,-9.7568,0,0,44.667,1,1,8008,4004
2856,4.568e+07,0,-0.0027639,0.002313,-0.00068788,-0.23912,0.088047,-9.7611,0,0,44.667,1,1,8008,4004
2859,4.5682e+07,0,-0.0023112,0.0026344,-0.00013565,-0.23819,0.089783,-9.7653,0,0,44.667,1,1,8008,4004
2863,4.5685e+07,0,-0.0019084,0.002336,0.0012529,-0.23966,0.094875,-9.7715,0,0,44.667,1,1,8008,4004
2894,4.5687e+07,0,-0.0011876,0.0015169,0.0016121,-0.24082,0.099007,-9.7746,0,0,44.667,1,1,8008,4004
2898,4.569e+07,0,-0.0004889,0.0014697,0.001286,-0.24385,0.1014,-9.7761,0,0,44.667,1,1,8008,4004
2902,4.5693e+07,0,-0.00095327,0.0021991,0.00055332,-0.24773,0.10182,-9.7754,0,0,44.667,1,1,8008,4004
2905,4.5695e+07,0,-0.0015284,0.0032355,0.00010373,-0.25285,0.10151,-9.7728,0,0,44.667,1,1,8008,4004
2936,4.5698e+07,0,-0.0015378,0.0026412,0.00012738,-0.25398,0.099187,-9.7699,0,0,44.667,1,1,8008,4004
2939,4.57e+07,0,-0.0011076,0.002176,0.00014348,-0.25339,0.098174,-9.7684,0,0,44.667,1,1,8008,4004
2942,4.5702e+07,0,-0.0010403,0.001754,1.1479e-05,-0.25318,0.098072,-9.7682,0,0,44.667,1,1,8008,4004
2945,4.5705e+07,0,-0.00061998,0.0022654,0.00085771,-0.25398,0.098217,-9.7707,0,0,44.667,1,1,8008,4004
2976,4.5708e+07,0,0.00057243,0.0024274,0.0016044,-0.25581,0.097629,-9.7716,0,0,44.667,1,1,8008,4004
2979,4.5713e+07,0,0.00088868,0.0010865,0.0018496,-0.25996,0.099394,-9.7678,0,0,44.667,1,1,8008,4004
2983,4.5716e+07,0,0.00064667,0.00074331,0.00098184,-0.25967,0.10478,-9.7664,0,0,44.667,1,1,8008,4004
3014,4.5718e+07,0,0.00075385,0.0013245,0.0011292,-0.25757,0.10738,-9.7668,0,0,44.667,1,1,8008,4004
3017,4.5721e+07,0,0.00098447,0.0020465,0.0010281,-0.25459,0.10712,-9.7655,0,0,44.667,1,1,8008,4004
3020,4.5724e+07,0,0.0013901,0.0027332,-9.2912e-05,-0.25159,0.10562,-9.7649,0,0,44.667,1,1,8008,4004
3024,4.5725e+07,0,0.0029087,0.0032982,-0.00077933,-0.24672,0.10384,-9.7636,0,0,44.667,1,1,8008,4004
3055,4.5728e+07,0,0.004162,0.0032182,9.8147e-05,-0.24382,0.10273,-9.7622,0,0,44.667,1,1,8008,4004
3058,4.5731e+07,0,0.0041489,0.0027314,0.0012333,-0.23952,0.10099,-9.7565,0,0,44.667,1,1,8008,4004
3061,4.5733e+07,0,0.0038669,0.0020503,0.0011801,-0.23794,0.098523,-9.7509,0,0,44.667,1,1,8008,4004
3064,4.5736e+07,0,0.0034357,0.0017834,0.0014418,-0.23716,0.094665,-9.7443,0,0,44.667,1,1,8008,4004
3095,4.5738e+07,0,0.0038656,0.0013722,0.0016375,-0.23785,0.092331,-9.7382,0,0,44.667,1,1,8008,4004
3099,4.5741e+07,0,0.0039234,0.0012974,0.0015729,-0.23814,0.09124,-9.7339,0,0,44.667,1,1,8008,4004
3102,4.5744e+07,0,0.004011,0.00038627,0.0013026,-0.23988,0.09121,-9.7321,0,0,44.667,1,1,8008,4004
3106,4.5746e+07,0,0.0042316,0.00028651,0.0014398,-0.24215,0.092334,-9.7321,0,0,44.667,1,1,8008,4004
3137,4.5749e+07,0,0.0042047,0.0011587,0.0012077,-0.24481,0.092471,-9.7357,0,0,44.667,1,1,8008,4004
3140,4.5751e+07,0,0.0038772,0.0014037,0.00042414,-0.2475,0.091469,-9.7382,0,0,44.667,1,1,8008,4004
3143,4.5754e+07,0,0.0037195,0.00075525,-0.00016408,-0.25082,0.090009,-9.7394,0,0,44.667,1,1,8008,4004
3146,4.5756e+07,0,0.0036192,0.00015787,-0.00015311,-0.25266,0.089535,-9.7388,0,0,44.667,1,1,8008,4004
3177,4.5759e+07,0,0.0029099,-0.00052608,0.0002598,-0.25447,0.088373,-9.7371,0,0,44.667,1,1,8008,4004
3180,4.5762e+07,0,0.0025212,-0.00048369,0.00068472,-0.25542,0.087191,-9.7336,0,0,44.667,1,1,8008,4004
3187,4.5764e+07,0,0.0020793,-0.00038015,0.00041931,-0.2543,0.086224,-9.7306,0,0,44.667,1,1,8008,4004
3191,4.5766e+07,0,0.0014376,-0.0007485,5.1472e-06,-0.25187,0.085674,-9.7322,0,0,44.667,1,1,8008,4004
3222,4.5769e+07,0,0.00036263,-0.00030428,-0.00039312,-0.2498,0.082949,-9.7364,0,0,44.667,1,1,8008,4004
3225,4.5772e+07,0,0.00013892,0.00055087,-0.00041299,-0.24986,0.079734,-9.7407,0,0,44.667,1,1,8008,4004
3228,4.5774e+07,0,-4.484e-05,0.0014702,-0.00024232,-0.251,0.075379,-9.7488,0,0,44.667,1,1,8008,4004
3231,4.5777e+07,0,0.00010642,0.00091505,-8.9564e-05,-0.25283,0.074787,-9.7542,0,0,44.667,1,1,8008,4004
3262,4.5779e+07,0,0.00045736,0.00064121,0.00022164,-0.25637,0.075992,-9.7604,0,0,44.667,1,1,8008,4004
3265,4.5782e+07,0,0.00052661,0.0018694,0.00061657,-0.25886,0.076582,-9.7609,0,0,44.667,1,1,8008,4004
3268,4.5785e+07,0,-0.00018062,0.0026557,0.00021708,-0.25999,0.077427,-9.7587,0,0,44.667,1,1,8008,4004
3272,4.5786e+07,0,-0.00061413,0.002925,-0.0010509,-0.25819,0.082165,-9.7541,0,0,44.667,1,1,8008,4004
3304,4.5789e+07,0,-0.00064382,0.002755,-0.001333,-0.25587,0.086696,-9.7519,0,0,44.667,1,1,8008,4004
3307,4.5791e+07,0,-0.0011714,0.0017452,-0.0012454,-0.25114,0.092054,-9.7498,0,0,44.667,1,1,8008,4004
3310,4.5794e+07,0,-0.0022236,0.0012958,-0.00070362,-0.24822,0.094258,-9.7499,0,0,44.667,1,1,8008,4004
3313,4.5797e+07,0,-0.0034146,0.00076347,0.00011354,-0.24515,0.097004,-9.7534,0,0,44.667,1,1,8008,4004
3344,4.58e+07,0,-0.0037394,0.0016375,-0.0003082,-0.24437,0.097413,-9.7588,0,0,44.667,1,1,8008,4004
3347,4.5802e+07,0,-0.0034023,0.0018743,-0.00059719,-0.24404,0.09468,-9.7644,0,0,44.667,1,1,8008,4004
3350,4.5806e+07,0,-0.0036129,0.0020135,-0.00073382,-0.24211,0.087341,-9.77,0,0,44.667,1,1,8008,4004
3354,4.5808e+07,0,-0.0049652,0.0022154,-0.0012613,-0.24016,0.081246,-9.7699,0,0,44.667,1,1,8008,4004
3387,4.581e+07,0,-0.0060259,0.0019651,-0.001323,-0.24051,0.077088,-9.7684,0,0,44.667,1,1,8008,4004
3390,4.5813e+07,0,-0.0064286,0.0022907,-0.0012297,-0.2413,0.075611,-9.7666,0,0,44.667,1,1,8008,4004
3393,4.5815e+07,0,-0.0067084,0.0031778,-0.0014551,-0.24254,0.075434,-9.7652,0,0,44.667,1,1,8008,4004
3399,4.5818e+07,0,-0.0067258,0.0042835,-0.0016976,-0.24636,0.077426,-9.7613,0,0,44.667,1,1,8008,4004
3430,4.5823e+07,0,-0.0068307,0.0045327,-0.0011491,-0.25087,0.081024,-9.7533,0,0,44.667,1,1,8008,4004
3433,4.5826e+07,0,-0.0061247,0.0043782,-0.0015135,-0.24978,0.082174,-9.7551,0,0,44.667,1,1,8008,4004
3436,4.5829e+07,0,-0.0037912,0.004455,-0.00078479,-0.24696,0.086038,-9.7582,0,0,44.667,1,1,8008,4004
3467,4.5832e+07,0,-0.0028906,0.0045584,-0.00022543,-0.24411,0.08841,-9.7598,0,0,44.667,1,1,8008,4004
3471,4.5834e+07,0,-0.0034138,0.0042221,-0.00026036,-0.24222,0.089845,-9.7587,0,0,44.667,1,1,8008,4004
3475,4.5837e+07,0,-0.0045902,0.0033425,-0.00096158,-0.23862,0.090299,-9.7582,0,0,44.667,1,1,8008,4004
3479,4.5839e+07,0,-0.0055117,0.0033307,-0.0017716,-0.23524,0.089766,-9.7574,0,0,44.667,1,1,8008,4004
3510,4.5842e+07,0,-0.0065536,0.0028265,-0.0019132,-0.22978,0.089686,-9.7552,0,0,44.667,1,1,8008,4004
3513,4.5845e+07,0,-0.0064239,0.0025181,-0.0013429,-0.22703,0.089223,-9.7534,0,0,44.667,1,1,8008,4004
3516,4.5847e+07,0,-0.0063633,0.0024613,-0.0012081,-0.22518,0.089136,-9.7505,0,0,44.667,1,1,8008,4004
3519,4.5849e+07,0,-0.0062658,0.0027447,-0.0020606,-0.22528,0.090108,-9.7472,0,0,44.667,1,1,8008,4004
3550,4.5851e+07,0,-0.0039245,0.0036312,-0.0021591,-0.2264,0.095109,-9.7433,0,0,44.667,1,1,8008,4004
3553,4.5855e+07,0,-0.0024951,0.0034501,-0.0014221,-0.22748,0.099658,-9.7434,0,0,44.667,1,1,8008,4004
3557,4.5857e+07,0,-0.0021584,0.0022982,-0.0010269,-0.23048,0.10588,-9.7455,0,0,44.667,1,1,8008,4004
3561,4.586e+07,0,-0.0021942,0.0019078,-0.0007832,-0.23247,0.10926,-9.7478,0,0,44.667,1,1,8008,4004
3592,4.5862e+07,0,-0.0021914,0.0021752,-0.00019201,-0.23428,0.11439,-9.7489,0,0,44.667,1,1,8008,4004
3598,4.5865e+07,0,-0.0020335,0.0019647,0.00054326,-0.23355,0.11836,-9.7513,0,0,44.667,1,1,8008,4004
3605,4.5868e+07,0,-0.0017692,0.0016602,0.0013131,-0.23217,0.12046,-9.7526,0,0,44.668,1,1,8008,4004
3609,4.587e+07,0,-0.0012002,0.00077273,0.00067362,-0.23168,0.11967,-9.7542,0,0,44.668,1,1,8008,4004
3640,4.5872e+07,0,-0.0011915,0.00044759,-0.00027217,-0.23195,0.11767,-9.7556,0,0,44.668,1,1,8008,4004
3643,4.5874e+07,0,-0.0016714,0.00049961,-0.00076605,-0.23184,0.115,-9.7604,0,0,44.668,1,1,8008,4004
3646,4.5877e+07,0,-0.0020515,-0.0002191,-0.00069796,-0.23006,0.11368,-9.7647,0,0,44.668,1,1,8008,4004
3649,4.588e+07,0,-0.001436,-0.00097658,-0.0003457,-0.22594,0.11077,-9.7706,0,0,44.668,1,1,8008,4004
3680,4.5882e+07,0,-0.00025613,4.0358e-05,0.00013624,-0.22194,0.10894,-9.7732,0,0,44.668,1,1,8008,4004
3683,4.5886e+07,0,0.00052232,-0.00013984,0.00055629,-0.22121,0.10792,-9.7758,0,0,44.668,1,1,8008,4004
3686,4.5887e+07,0,0.0011754,-0.00049654,0.00098099,-0.22269,0.10702,-9.7806,0,0,44.668,1,1,8008,4004
3690,4.589e+07,0,0.00125,-0.00049823,0.00094509,-0.22454,0.10701,-9.782,0,0,44.668,1,1,8008,4004
3721,4.5893e+07,0,0.0019517,-0.00092281,0.00090038,-0.22877,0.10649,-9.7823,0,0,44.668,1,1,8008,4004
3724,4.5895e+07,0,0.0028409,-0.0015066,0.00093918,-0.23178,0.10511,-9.7796,0,0,44.668,1,1,8008,4004
3728,4.5898e+07,0,0.0033646,-0.0015479,0.0002239,-0.23419,0.10304,-9.7736,0,0,44.668,1,1,8008,4004
3731,4.59e+07,0,0.0030644,-0.001626,-0.00017968,-0.23467,0.10249,-9.7696,0,0,44.668,1,1,8008,4004
3762,4.5904e+07,0,0.0030791,-0.0021004,0.00030544,-0.23661,0.10373,-9.7678,0,0,44.668,1,1,8008,4004
3765,4.5905e+07,0,0.003254,-0.00091395,0.0013578,-0.23906,0.10499,-9.7677,0,0,44.668,1,1,8008,4004
3768,4.5908e+07,0,0.0035256,-0.00073426,0.0018263,-0.24031,0.10484,-9.7659,0,0,44.668,1,1,8008,4004
3772,4.5912e+07,0,0.0034718,-0.00083288,0.0012075,-0.24189,0.10318,-9.7606,0,0,44.669,1,1,8008,4004
3775,4.5913e+07,0,0.00358,-0.00057535,0.0010766,-0.24364,0.10215,-9.7585,0,0,44.669,1,1,8008,4004
3806,4.5917e+07,0,0.0035898,-0.00052897,0.0015956,-0.2464,0.10108,-9.7586,0,0,44.669,1,1,8008,4004
3809,4.5918e+07,0,0.0039637,2.5593e-06,0.0016825,-0.24762,0.1004,-9.7598,0,0,44.669,1,1,8008,4004
3812,4.5921e+07,0,0.0045116,0.00090175,0.00082201,-0.24935,0.10039,-9.7632,0,0,44.669,1,1,8008,4004
3815,4.5923e+07,0,0.0046826,0.00033748,0.0010217,-0.25033,0.099297,-9.7654,0,0,44.669,1,1,8008,4004
3846,4.5926e+07,0,0.0042335,-0.00054845,0.0015643,-0.25218,0.096613,-9.7654,0,0,44.669,1,1,8008,4004
3849,4.5929e+07,0,0.0031342,-0.00014312,0.0004057,-0.25438,0.095503,-9.7649,0,0,44.669,1,1,8008,4004
3853,4.5931e+07,0,0.0020245,0.00041824,-0.00096969,-0.25768,0.094518,-9.7633,0,0,44.67,1,1,8008,4004
3857,4.5933e+07,0,0.0019592,0.00092367,-0.00081225,-0.25955,0.094118,-9.76,0,0,44.67,1,1,8008,4004
3888,4.5936e+07,0,0.0017139,0.0013344,0.0005974,-0.26123,0.091649,-9.753,0,0,44.67,1,1,8008,4004
3891,4.5939e+07,0,0.0014446,0.0017064,0.0013047,-0.26215,0.088029,-9.747,0,0,44.67,1,1,8008,4004
3895,4.5941e+07,0,0.00068505,0.0024565,0.0014197,-0.26213,0.081669,-9.7419,0,0,44.67,1,1,8008,4004
3898,4.5943e+07,0,0.00023374,0.0026665,0.0017795,-0.26142,0.078499,-9.7398,0,0,44.67,1,1,8008,4004
3929,4.5946e+07,0,-0.00032041,0.0022948,0.00066174,-0.26085,0.075447,-9.7414,0,0,44.67,1,1,8008,4004
3932,4.5948e+07,0,-0.0002484,0.0024725,-3.6295e-05,-0.25963,0.074787,-9.7457,0,0,44.671,1,1,8008,4004
3935,4.5951e+07,0,8.5156e-05,0.0030633,-0.0010629,-0.25779,0.075258,-9.7531,0,0,44.671,1,1,8008,4004
3938,4.5954e+07,0,-0.00025212,0.0031149,-0.0014033,-0.25698,0.074278,-9.7559,0,0,44.671,1,1,8008,4004
3969,4.5956e+07,0,-0.0018775,0.0034303,-0.00090195,-0.25712,0.070102,-9.7552,0,0,44.671,1,1,8008,4004
3972,4.5958e+07,0,-0.0022251,0.0041346,-0.0011545,-0.25806,0.067175,-9.7532,0,0,44.671,1,1,8008,4004
3976,4.5961e+07,0,-0.0014263,0.0050457,-0.0017172,-0.26008,0.065699,-9.7481,0,0,44.671,1,1,8008,4004
3979,4.5964e+07,0,-0.0011659,0.0040512,-0.0016879,-0.26049,0.067558,-9.7453,0,0,44.671,1,1,8008,4004
4010,4.5966e+07,0,-0.0021441,0.0032041,-0.0020941,-0.25878,0.070808,-9.7443,0,0,44.672,1,1,8008,4004
4017,4.5969e+07,0,-0.0032117,0.003737,-0.0020745,-0.25669,0.073302,-9.7437,0,0,44.672,1,1,8008,4004
4022,4.5971e+07,0,-0.004489,0.0045064,-0.0017835,-0.25336,0.076534,-9.7388,0,0,44.672,1,1,8008,4004
4025,4.5973e+07,0,-0.0048927,0.0039048,-0.0019033,-0.2515,0.077022,-9.734,0,0,44.672,1,1,8008,4004
4056,4.5976e+07,0,-0.0059449,0.0025657,-0.0020046,-0.25049,0.077399,-9.7292,0,0,44.672,1,1,8008,4004
4060,4.5979e+07,0,-0.0061318,0.0016755,-0.002225,-0.25195,0.077391,-9.7293,0,0,44.672,1,1,8008,4004
4064,4.5981e+07,0,-0.0057169,0.0001765,-0.0022296,-0.25536,0.078161,-9.7331,0,0,44.673,1,1,8008,4004
4067,4.5983e+07,0,-0.0058161,-0.00039797,-0.0018151,-0.25742,0.08061,-9.7351,0,0,44.673,1,1,8008,4004
4098,4.5986e+07,0,-0.0058031,0.00035422,-0.0027729,-0.25987,0.08221,-9.7366,0,0,44.673,1,1,8008,4004
4101,4.5989e+07,0,-0.0062074,0.0010273,-0.003624,-0.2612,0.082165,-9.7381,0,0,44.673,1,1,8008,4004
4104,4.5991e+07,0,-0.007026,0.00067911,-0.0025538,-0.26303,0.081628,-9.7418,0,0,44.673,1,1,8008,4004
4107,4.5993e+07,0,-0.0079115,0.00049843,-0.0023551,-0.26367,0.080373,-9.7458,0,0,44.673,1,1,8008,4004
4138,4.5996e+07,0,-0.0075464,0.00040162,-0.0021007,-0.26224,0.079944,-9.7533,0,0,44.674,1,1,8008,4004
4142,4.5998e+07,0,-0.0069062,0.00010007,-0.0013505,-0.26104,0.080039,-9.7578,0,0,44.674,1,1,8008,4004
4148,4.6002e+07,0,-0.006105,-0.00013505,0.00020383,-0.26035,0.078997,-9.761,0,0,44.674,1,1,8008,4004
4151,4.6004e+07,0,-0.00559,0.00031476,0.00065655,-0.26026,0.078186,-9.7595,0,0,44.674,1,1,8008,4004
4182,4.6006e+07,0,-0.0047961,0.00074038,0.0013144,-0.26106,0.07933,-9.7567,0,0,44.674,1,1,8008,4004
4185,4.6008e+07,0,-0.0045725,0.00038703,0.0015462,-0.26167,0.081837,-9.756,0,0,44.675,1,1,8008,4004
4188,4.6015e+07,0,-0.0048931,0.00024718,0.0010666,-0.25595,0.086079,-9.7636,0,0,44.675,1,1,8008,4004
4191,4.6016e+07,0,-0.0050414,-0.00030158,0.0010118,-0.25425,0.087317,-9.7669,0,0,44.675,1,1,8008,4004
4222,4.6018e+07,0,-0.0047247,0.0001578,0.00036871,-0.25447,0.089208,-9.7677,0,0,44.675,1,1,8008,4004
4226,4.6021e+07,0,-0.0039959,0.00088707,0.00016774,-0.25422,0.091485,-9.7688,0,0,44.675,1,1,8008,4004
4229,4.6024e+07,0,-0.0036241,0.0016355,0.00040507,-0.25271,0.093424,-9.7689,0,0,44.675,1,1,8008,4004
4232,4.6027e+07,0,-0.0036199,0.002042,-0.00012497,-0.25205,0.093951,-9.7681,0,0,44.675,1,1,8008,4004
4263,4.6029e+07,0,-0.0038432,0.001348,-0.00050601,-0.25324,0.095988,-9.7656,0,0,44.676,1,1,8008,4004
4267,4.6031e+07,0,-0.0033337,0.00013115,6.0699e-05,-0.25592,0.096671,-9.7616,0,0,44.676,1,1,8008,4004
4270,4.6034e+07,0,-0.0032722,7.1143e-05,0.0011463,-0.25711,0.096122,-9.7579,0,0,44.676,1,1,8008,4004
4273,4.6036e+07,0,-0.0031631,0.00074392,0.0015887,-0.25759,0.095259,-9.7526,0,0,44.676,1,1,8008,4004
4304,4.604e+07,0,-0.0030684,0.0010754,0.0018056,-0.25736,0.094033,-9.7506,0,0,44.676,1,1,8008,4004
4307,4.6042e+07,0,-0.0027706,0.001699,0.0021333,-0.254,0.092768,-9.7503,0,0,44.676,1,1,8008,4004
4310,4.6044e+07,0,-0.0019779,0.0023706,0.0022395,-0.25002,0.09212,-9.7528,0,0,44.676,1,1,8008,4004
4313,4.6047e+07,0,-0.00081493,0.0029692,0.0020326,-0.24348,0.092409,-9.7552,0,0,44.677,1,1,8008,4004
4346,4.6049e+07,0,-0.00012569,0.0034329,0.0023945,-0.24039,0.092328,-9.7553,0,0,44.677,1,1,8008,4004
4350,4.6052e+07,0,0.0011393,0.0029797,0.0029585,-0.23826,0.091093,-9.753,0,0,44.677,1,1,8008,4004
4353,4.6054e+07,0,0.0018054,0.0018441,0.0028124,-0.2378,0.08937,-9.7513,0,0,44.677,1,1,8008,4004
4356,4.6057e+07,0,0.0015398,0.0014154,0.002071,-0.23852,0.086926,-9.7509,0,0,44.677,1,1,8008,4004
4387,4.6059e+07,0,0.0013788,0.001662,0.0020015,-0.23924,0.086116,-9.7518,0,0,44.677,1,1,8008,4004
4390,4.6062e+07,0,0.0019071,0.0029149,0.002367,-0.23889,0.086166,-9.7526,0,0,44.678,1,1,8008,4004
4393,4.6064e+07,0,0.0018585,0.0044357,0.0027332,-0.23858,0.086584,-9.7532,0,0,44.678,1,1,8008,4004
4396,4.6067e+07,0,0.0020938,0.0053236,0.003048,-0.23731,0.087405,-9.755,0,0,44.678,1,1,8008,4004
4431,4.607e+07,0,0.0025306,0.0052692,0.0022712,-0.2361,0.089341,-9.7544,0,0,44.678,1,1,8008,4004
4435,4.6073e+07,0,0.0029883,0.0047837,0.0023018,-0.23487,0.091579,-9.7564,0,0,44.678,1,1,8008,4004
4438,4.6074e+07,0,0.0027725,0.0040128,0.0020508,-0.23396,0.095196,-9.7629,0,0,44.678,1,1,8008,4004
4442,4.6077e+07,0,0.0026707,0.0032241,0.0018901,-0.2339,0.096514,-9.7681,0,0,44.678,1,1,8008,4004
4473,4.608e+07,0,0.0031557,0.0024698,0.001301,-0.23558,0.097424,-9.773,0,0,44.679,1,1,8008,4004
4476,4.6082e+07,0,0.0032717,0.0020595,0.00086369,-0.23701,0.098645,-9.7738,0,0,44.679,1,1,8008,4004
4479,4.6085e+07,0,0.0034155,0.0021682,0.00093338,-0.23863,0.1001,-9.7735,0,0,44.679,1,1,8008,4004
4482,4.6087e+07,0,0.0029005,0.0016762,0.00082302,-0.23941,0.10117,-9.7731,0,0,44.679,1,1,8008,4004
4513,4.6089e+07,0,0.0020611,0.00020954,0.0003181,-0.23909,0.10184,-9.7717,0,0,44.679,1,1,8008,4004
4517,4.6092e+07,0,0.0023442,-0.00052271,-0.0002136,-0.23837,0.101,-9.7689,0,0,44.68,1,1,8008,4004
4520,4.6095e+07,0,0.0032113,-0.00028749,-0.00024554,-0.23922,0.097127,-9.7623,0,0,44.68,1,1,8008,4004
4523,4.6097e+07,0,0.0023254,0.0012322,-0.00031676,-0.24074,0.094806,-9.7575,0,0,44.68,1,1,8008,4004
4554,4.6099e+07,0,0.0017646,0.0029953,-0.00066669,-0.2408,0.093073,-9.753,0,0,44.68,1,1,8008,4004
4558,4.6102e+07,0,0.00217,0.0030221,-0.00097953,-0.23951,0.093079,-9.7519,0,0,44.68,1,1,8008,4004
4561,4.6105e+07,0,0.0023898,0.0027433,-0.00055592,-0.23595,0.091886,-9.752,0,0,44.681,1,1,8008,4004
4564,4.6107e+07,0,0.0022819,0.0024672,-0.00043593,-0.23311,0.090331,-9.7526,0,0,44.681,1,1,8008,4004
4595,4.6111e+07,0,0.0019142,0.0013751,-0.00058106,-0.22955,0.088457,-9.7543,0,0,44.681,1,1,8008,4004
4598,4.6112e+07,0,0.0016049,0.0012414,-0.0012841,-0.22879,0.088082,-9.754,0,0,44.681,1,1,8008,4004
4602,4.6115e+07,0,0.0019001,0.0014598,-0.001369,-0.22968,0.087237,-9.7527,0,0,44.681,1,1,8008,4004
4605,4.612e+07,0,0.00046174,-0.00018983,-0.00087194,-0.23052,0.078208,-9.7498,0,0,44.682,1,1,8008,4004
4636,4.6123e+07,0,-0.00095065,-0.0011006,-0.00037457,-0.22965,0.071342,-9.7518,0,0,44.682,1,1,8008,4004
4640,4.6125e+07,0,-0.00067593,-0.00093263,-0.00040536,-0.22858,0.06826,-9.7534,0,0,44.682,1,1,8008,4004
4644,4.6128e+07,0,-0.00044221,1.8673e-05,-0.0016702,-0.22761,0.066846,-9.7534,0,0,44.682,1,1,8008,4004
4647,4.6131e+07,0,-0.0012342,2.5931e-05,-0.0018283,-0.22777,0.06812,-9.752,0,0,44.682,1,1,8008,4004
4678,4.6133e+07,0,-0.0017685,-6.3619e-05,-0.0014121,-0.22861,0.070182,-9.75,0,0,44.682,1,1,8008,4004
4681,4.6135e+07,0,-0.0022455,0.00026154,-0.00086243,-0.22915,0.071722,-9.7488,0,0,44.682,1,1,8008,4004
4684,4.6138e+07,0,-0.0039133,0.00053676,0.00044029,-0.23147,0.0746,-9.7481,0,0,44.682,1,1,8008,4004
4687,4.6141e+07,0,-0.0042376,0.00098267,0.00080132,-0.23379,0.076708,-9.7495,0,0,44.682,1,1,8008,4004
4718,4.6143e+07,0,-0.0038818,0.0013829,0.00053974,-0.23643,0.080872,-9.753,0,0,44.683,1,1,8008,4004
4722,4.6145e+07,0,-0.0037728,0.0011763,0.00017895,-0.23804,0.082223,-9.7546,0,0,44.683,1,1,8008,4004
4725,4.6148e+07,0,-0.0042151,0.00036976,1.6105e-05,-0.24153,0.081687,-9.7532,0,0,44.683,1,1,8008,4004
4728,4.615e+07,0,-0.0054221,0.0002127,-8.3504e-05,-0.24359,0.081641,-9.7517,0,0,44.683,1,1,8008,4004
4759,4.6153e+07,0,-0.005262,-0.00033524,-0.00066575,-0.24392,0.081863,-9.7511,0,0,44.683,1,1,8008,4004
4763,4.6155e+07,0,-0.0051466,-0.00028285,-0.00072006,-0.24419,0.082336,-9.7523,0,0,44.683,1,1,8008,4004
4766,4.6158e+07,0,-0.0049567,-0.00027401,-0.00047698,-0.24669,0.081283,-9.7543,0,0,44.683,1,1,8008,4004
4769,4.616e+07,0,-0.0050869,-0.00070169,-0.0001529,-0.24855,0.080361,-9.7543,0,0,44.683,1,1,8008,4004
4800,4.6163e+07,0,-0.0059028,-0.00059467,0.00035373,-0.24926,0.080085,-9.7522,0,0,44.684,1,1,8008,4004
4803,4.6166e+07,0,-0.0061381,-0.00036688,0.00067984,-0.24885,0.080899,-9.7506,0,0,44.684,1,1,8008,4004
4806,4.6168e+07,0,-0.0058014,0.00044006,-4.7704e-05,-0.24784,0.08287,-9.7472,0,0,44.684,1,1,8008,4004
4813,4.6171e+07,0,-0.004897,0.0010593,-0.0010671,-0.24636,0.083106,-9.7453,0,0,44.684,1,1,8008,4004
4844,4.6173e+07,0,-0.0046798,0.002035,-0.0010901,-0.24297,0.081743,-9.7472,0,0,44.684,1,1,8008,4004
4848,4.6176e+07,0,-0.0052933,0.0020838,-0.00098074,-0.24182,0.082969,-9.7476,0,0,44.684,1,1,8008,4004
4851,4.6179e+07,0,-0.005339,0.0021141,-0.00099043,-0.23982,0.086548,-9.75,0,0,44.684,1,1,8008,4004
4854,4.6181e+07,0,-0.005219,0.0016402,-0.0004521,-0.23851,0.088506,-9.7514,0,0,44.685,1,1,8008,4004
4885,4.6184e+07,0,-0.0050623,0.0026646,-0.00022837,-0.23736,0.090666,-9.7521,0,0,44.685,1,1,8008,4004
4888,4.6186e+07,0,-0.0043221,0.0032689,-0.0009433,-0.23821,0.091578,-9.7542,0,0,44.685,1,1,8008,4004
4891,4.6189e+07,0,-0.0031897,0.0041812,-0.0017872,-0.24186,0.092371,-9.7574,0,0,44.685,1,1,8008,4004
4895,4.6191e+07,0,-0.0032587,0.0046676,-0.0018533,-0.24592,0.092659,-9.7609,0,0,44.685,1,1,8008,4004
4926,4.6193e+07,0,-0.0035294,0.0040421,-0.00096319,-0.25036,0.093534,-9.7662,0,0,44.685,1,1,8008,4004
4930,4.6196e+07,0,-0.003825,0.0030461,-0.00020533,-0.25486,0.093919,-9.7699,0,0,44.685,1,1,8008,4004
4933,4.6199e+07,0,-0.0040134,0.0022599,-0.00030455,-0.25452,0.092252,-9.7729,0,0,44.685,1,1,8008,4004
4936,4.6201e+07,0,-0.0040784,0.0022037,-0.00011285,-0.25257,0.090672,-9.7746,0,0,44.685,1,1,8008,4004
4969,4.6204e+07,0,-0.0044383,0.0022958,-1.8165e-05,-0.25039,0.089185,-9.7746,0,0,44.685,1,1,8008,4004
4972,4.6206e+07,0,-0.0042642,0.0022343,3.3819e-05,-0.24923,0.088462,-9.7744,0,0,44.685,1,1,8008,4004
4975,4.6209e+07,0,-0.0037456,0.002129,0.00023285,-0.24831,0.088521,-9.7732,0,0,44.685,1,1,8008,4004
4978,4.6212e+07,0,-0.0020276,0.0019747,0.00085619,-0.24866,0.089332,-9.77,0,0,44.685,1,1,8008,4004
5009,4.6214e+07,0,-0.00072885,0.0012692,0.00091336,-0.25067,0.091233,-9.7631,0,0,44.685,1,1,8008,4004
5013,4.6216e+07,0,-0.0004259,0.00038431,0.00046657,-0.25176,0.094151,-9.7584,0,0,44.685,1,1,8008,4004
5017,4.6219e+07,0,0.00020689,0.00048758,7.5221e-06,-0.25477,0.097658,-9.753,0,0,44.685,1,1,8008,4004
5020,4.6221e+07,0,0.00074601,0.00088219,-0.00025318,-0.25559,0.099062,-9.7491,0,0,44.685,1,1,8008,4004
5051,4.6225e+07,0,0.0012681,0.00085384,-0.00016086,-0.25648,0.10002,-9.7474,0,0,44.685,1,1,8008,4004
5054,4.6228e+07,0,0.00089274,0.0010026,-0.0010248,-0.25745,0.10027,-9.7473,0,0,44.685,1,1,8008,4004
5058,4.6229e+07,0,0.0011403,0.00053653,-0.0012153,-0.25592,0.10011,-9.7469,0,0,44.685,1,1,8008,4004
5061,4.6232e+07,0,0.0019769,-0.00045842,-0.00076087,-0.25499,0.1004,-9.7463,0,0,44.685,1,1,8008,4004
5092,4.6235e+07,0,0.0029928,-0.00073945,-5.0524e-05,-0.25502,0.10081,-9.7451,0,0,44.685,1,1,8008,4004
5095,4.6238e+07,0,0.0026513,-0.00075607,0.00021826,-0.25528,0.10089,-9.7459,0,0,44.685,1,1,8008,4004
5098,4.624e+07,0,0.0014071,0.00017975,0.00027786,-0.2556,0.099737,-9.748,0,0,44.685,1,1,8008,4004
5102,4.6241e+07,0,0.00054415,0.0012241,-6.41e-05,-0.25621,0.097255,-9.7504,0,0,44.685,1,1,8008,4004
5133,4.6244e+07,0,0.0014402,0.0012035,0.00039417,-0.25672,0.094784,-9.753,0,0,44.685,1,1,8008,4004
5136,4.6247e+07,0,0.0037379,5.7898e-05,0.00035015,-0.26062,0.091672,-9.7556,0,0,44.685,1,1,8008,4004
5140,4.625e+07,0,0.0039223,0.00030459,-0.00017739,-0.26386,0.090613,-9.7565,0,0,44.685,1,1,8008,4004
5143,4.6252e+07,0,0.0030934,1.8886e-05,-0.00058605,-0.26697,0.088454,-9.7616,0,0,44.685,1,1,8008,4004
5174,4.6255e+07,0,0.00303,-0.0013641,2.7603e-05,-0.26949,0.08542,-9.77,0,0,44.685,1,1,8008,4004
5177,4.6257e+07,0,0.0027898,-0.0017247,0.00054216,-0.27036,0.083374,-9.7743,0,0,44.685,1,1,8008,4004
5181,4.626e+07,0,0.0031019,-0.0010361,0.00073101,-0.27037,0.081326,-9.7751,0,0,44.685,1,1,8008,4004
5184,4.6262e+07,0,0.0029216,0.00087856,0.00029545,-0.26898,0.077913,-9.7716,0,0,44.685,1,1,8008,4004
5215,4.6264e+07,0,0.0023481,0.0011766,0.00011194,-0.26672,0.073919,-9.7637,0,0,44.685,1,1,8008,4004
5218,4.6267e+07,0,0.0021725,0.0011854,4.4657e-05,-0.26379,0.070935,-9.7587,0,0,44.685,1,1,8008,4004
5221,4.627e+07,0,0.0016592,0.0019306,-0.00074071,-0.25718,0.067072,-9.7546,0,0,44.685,1,1,8008,4004
5228,4.6273e+07,0,0.0012612,0.00283,-0.00015661,-0.25298,0.065148,-9.7531,0,0,44.685,1,1,8008,4004
5259,4.6276e+07,0,0.00040096,0.0017083,-0.00026785,-0.24842,0.063321,-9.7543,0,0,44.685,1,1,8008,4004
5262,4.6277e+07,0,0.00013718,0.00099337,-0.00035768,-0.24528,0.062988,-9.7579,0,0,44.685,1,1,8008,4004
5267,4.628e+07,0,0.00015079,0.0013021,0.0002665,-0.24355,0.063825,-9.7634,0,0,44.685,1,1,8008,4004
5270,4.6282e+07,0,-0.00018875,0.001745,0.00047475,-0.24378,0.065465,-9.7656,0,0,44.685,1,1,8008,4004
5301,4.6285e+07,0,-0.0011585,0.0015277,0.00038326,-0.24468,0.068418,-9.7655,0,0,44.685,1,1,8008,4004
5304,4.6288e+07,0,-0.0015381,0.0012386,0.0010159,-0.24479,0.071246,-9.7632,0,0,44.685,1,1,8008,4004
5307,4.6289e+07,0,-0.001722,0.0025293,0.0010235,-0.24463,0.075975,-9.761,0,0,44.684,1,1,8008,4004
5310,4.6292e+07,0,-0.0018341,0.0034508,0.00053751,-0.24355,0.077604,-9.7602,0,0,44.684,1,1,8008,4004
5341,4.6295e+07,0,-0.0014841,0.0041358,0.00079789,-0.24176,0.07914,-9.7593,0,0,44.684,1,1,8008,4004
5344,4.6297e+07,0,-0.00062945,0.0039027,0.0015734,-0.24087,0.079991,-9.7581,0,0,44.684,1,1,8008,4004
5348,4.63e+07,0,-0.00053774,0.0026652,0.0018344,-0.24,0.080812,-9.7584,0,0,44.684,1,1,8008,4004
5351,4.6302e+07,0,-0.00083929,0.0015545,0.0012,-0.23941,0.080509,-9.758,0,0,44.684,1,1,8008,4004
5382,4.6304e+07,0,-0.0015844,0.0031815,0.0010056,-0.23854,0.079596,-9.7577,0,0,44.684,1,1,8008,4004
5385,4.6308e+07,0,-0.0018584,0.0038144,0.00097242,-0.23824,0.079137,-9.7589,0,0,44.684,1,1,8008,4004
5388,4.631e+07,0,-0.0025739,0.0030692,0.00043815,-0.23895,0.077028,-9.7617,0,0,44.684,1,1,8008,4004
5391,4.6312e+07,0,-0.0032629,0.0036515,3.9918e-05,-0.23968,0.074933,-9.7626,0,0,44.684,1,1,8008,4004
5422,4.6314e+07,0,-0.0048588,0.0037237,0.00029044,-0.2383,0.072353,-9.7612,0,0,44.683,1,1,8008,4004
5425,4.6317e+07,0,-0.0059492,0.0034057,0.00050881,-0.23674,0.071637,-9.762,0,0,44.683,1,1,8008,4004
5429,4.632e+07,0,-0.006782,0.0037496,0.00076413,-0.23711,0.073178,-9.7647,0,0,44.683,1,1,8008,4004
5432,4.6324e+07,0,-0.00624,0.0035005,0.00076957,-0.23805,0.075759,-9.7674,0,0,44.683,1,1,8008,4004
5435,4.6325e+07,0,-0.0054184,0.0028887,0.00041297,-0.23864,0.080293,-9.7728,0,0,44.683,1,1,8008,4004
5466,4.6327e+07,0,-0.0064632,0.0017097,0.00085154,-0.23878,0.082641,-9.7733,0,0,44.683,1,1,8008,4004
5469,4.633e+07,0,-0.0078493,0.0017586,0.00062111,-0.23844,0.083363,-9.7718,0,0,44.683,1,1,8008,4004
5472,4.6333e+07,0,-0.0084373,0.0022637,-2.7549e-05,-0.23618,0.084253,-9.7681,0,0,44.683,1,1,8008,4004
5475,4.6336e+07,0,-0.0075183,0.0019573,-9.0041e-05,-0.2341,0.084511,-9.7646,0,0,44.683,1,1,8008,4004
5506,4.6338e+07,0,-0.0062253,0.0016521,-9.8462e-05,-0.23259,0.084084,-9.7613,0,0,44.683,1,1,8008,4004
5510,4.6341e+07,0,-0.0058345,0.0013728,0.00034051,-0.23221,0.082523,-9.7598,0,0,44.683,1,1,8008,4004
5513,4.6343e+07,0,-0.0054192,0.0016641,0.00025604,-0.233,0.082167,-9.7594,0,0,44.683,1,1,8008,4004
5517,4.6346e+07,0,-0.0053297,0.0017855,-0.00048951,-0.23286,0.082913,-9.7602,0,0,44.683,1,1,8008,4004
5548,4.6349e+07,0,-0.0046057,0.0015293,-0.0011917,-0.2327,0.084239,-9.7576,0,0,44.683,1,1,8008,4004
5553,4.6351e+07,0,-0.0053072,0.0012873,-0.0007141,-0.23407,0.085793,-9.7554,0,0,44.683,1,1,8008,4004
5556,4.6353e+07,0,-0.0063143,0.00026255,0.000821,-0.23632,0.088434,-9.7513,0,0,44.683,1,1,8008,4004
5559,4.6356e+07,0,-0.006249,3.4566e-05,0.0012101,-0.23732,0.091353,-9.7489,0,0,44.683,1,1,8008,4004
5590,4.6359e+07,0,-0.0046347,-0.00028694,0.0010734,-0.23859,0.097132,-9.749,0,0,44.683,1,1,8008,4004
5593,4.6361e+07,0,-0.0031549,-0.00041864,0.00090867,-0.23807,0.099062,-9.751,0,0,44.683,1,1,8008,4004
5596,4.6364e+07,0,-0.0025468,-0.00086085,0.0005205,-0.23585,0.098841,-9.7539,0,0,44.683,1,1,8008,4004
5599,4.6366e+07,0,-0.0020446,-0.00060223,2.7987e-05,-0.23456,0.098858,-9.753,0,0,44.683,1,1,8008,4004
5630,4.6369e+07,0,-0.0015508,-0.0015486,-0.00048496,-0.23349,0.10153,-9.7523,0,0,44.683,1,1,8008,4004
5634,4.6372e+07,0,-0.0012613,-0.0018973,-0.00077309,-0.23244,0.104,-9.7545,0,0,44.683,1,1,8008,4004
5641,4.6374e+07,0,-0.0010291,-0.0016205,-0.00021763,-0.23308,0.10635,-9.7607,0,0,44.683,1,1,8008,4004
5644,4.6377e+07,0,-0.00037844,-0.0012973,0.00076647,-0.23403,0.10722,-9.7646,0,0,44.683,1,1,8008,4004
5675,4.6379e+07,0,0.00028031,-0.0014314,0.00076157,-0.23676,0.108,-9.7679,0,0,44.683,1,1,8008,4004
5678,4.6382e+07,0,0.00096343,-0.0020548,0.00073749,-0.23868,0.1069,-9.7698,0,0,44.683,1,1,8008,4004
5681,4.6384e+07,0,0.00055018,-0.0017834,0.00056225,-0.23919,0.10623,-9.771,0,0,44.683,1,1,8008,4004
5685,4.6387e+07,0,0.00017402,-0.0009603,0.000584,-0.24157,0.10554,-9.7731,0,0,44.683,1,1,8008,4004
5716,4.639e+07,0,0.00079516,-0.00038791,0.00048831,-0.24397,0.1057,-9.7743,0,0,44.683,1,1,8008,4004
5720,4.6392e+07,0,0.0024916,-0.00011842,0.00025564,-0.24597,0.10477,-9.7746,0,0,44.683,1,1,8008,4004
5723,4.6395e+07,0,0.0029185,-3.2228e-05,-1.7946e-05,-0.24524,0.10348,-9.7724,0,0,44.683,1,1,8008,4004
5726,4.6397e+07,0,0.0030919,0.00017126,0.00081131,-0.24326,0.102,-9.7694,0,0,44.683,1,1,8008,4004
5757,4.6399e+07,0,0.0036668,-8.0399e-05,0.0007577,-0.24287,0.10244,-9.7676,0,0,44.683,1,1,8008,4004
5760,4.6402e+07,0,0.0046274,0.0010126,2.4257e-05,-0.24313,0.1027,-9.7654,0,0,44.683,1,1,8008,4004
5763,4.6404e+07,0,0.0042538,0.0017427,-0.00021224,-0.24261,0.10325,-9.7644,0,0,44.683,1,1,8008,4004
5766,4.6407e+07,0,0.0029919,0.0018265,-0.00059346,-0.24196,0.10415,-9.7659,0,0,44.683,1,1,8008,4004
5799,4.641e+07,0,0.0028489,0.0022933,-5.9556e-05,-0.24116,0.10454,-9.7692,0,0,44.683,1,1,8008,4004
5803,4.6412e+07,0,0.0024793,0.0022758,0.00060308,-0.24024,0.10437,-9.7703,0,0,44.683,1,1,8008,4004
5806,4.6416e+07,0,0.0015701,0.0021421,0.00046249,-0.24022,0.10437,-9.7699,0,0,44.683,1,1,8008,4004
5809,4.6417e+07,0,0.0016826,0.0023159,0.00031827,-0.24368,0.10398,-9.7676,0,0,44.683,1,1,8008,4004
5840,4.6422e+07,0,0.0028402,0.0028833,0.00016261,-0.254,0.097418,-9.7602,0,0,44.683,1,1,8008,4004
5844,4.6426e+07,0,0.0026327,0.0031712,0.00022513,-0.25624,0.095041,-9.7614,0,0,44.683,1,1,8008,4004
5847,4.6427e+07,0,0.0027449,0.0033586,9.9689e-05,-0.25617,0.090419,-9.7599,0,0,44.683,1,1,8008,4004
5878,4.643e+07,0,0.0028461,0.0030648,0.00016828,-0.25348,0.086671,-9.7562,0,0,44.684,1,1,8008,4004
5881,4.6433e+07,0,0.0015963,0.0027296,0.00044513,-0.24842,0.081926,-9.7491,0,0,44.684,1,1,8008,4004
5885,4.6436e+07,0,0.00092466,0.0026311,0.0010247,-0.24681,0.079897,-9.746,0,0,44.684,1,1,8008,4004
5888,4.6438e+07,0,0.0016651,0.0032196,0.00020758,-0.24548,0.076786,-9.7454,0,0,44.684,1,1,8008,4004
5919,4.644e+07,0,0.0018277,0.0030635,0.00020566,-0.24613,0.075081,-9.7465,0,0,44.684,1,1,8008,4004
5922,4.6443e+07,0,0.00090002,0.0026025,0.00035729,-0.24804,0.074924,-9.7476,0,0,44.684,1,1,8008,4004
5927,4.6446e+07,0,-0.00057465,0.0016499,0.00058823,-0.2489,0.075442,-9.7501,0,0,44.684,1,1,8008,4004
5930,4.6448e+07,0,-0.0013999,0.0010512,0.00032887,-0.24725,0.075446,-9.7521,0,0,44.684,1,1,8008,4004
5961,4.6451e+07,0,-0.00093589,0.0014076,-0.00019254,-0.24636,0.074233,-9.7535,0,0,44.684,1,1,8008,4004
5964,4.6453e+07,0,-0.00046541,0.0022873,0.00013112,-0.24611,0.071966,-9.7553,0,0,44.684,1,1,8008,4004
5967,4.6455e+07,0,-0.00023406,0.0016822,0.00069373,-0.24589,0.069202,-9.7584,0,0,44.684,1,1,8008,4004
5970,4.6458e+07,0,-0.0007043,0.00091935,0.0010196,-0.24569,0.06803,-9.7613,0,0,44.684,1,1,8008,4004
6001,4.6461e+07,0,-0.0012015,0.00025962,0.0012826,-0.24502,0.067952,-9.7666,0,0,44.684,1,1,8008,4004
6004,4.6464e+07,0,-0.0020585,-0.00040806,0.00079913,-0.24634,0.070297,-9.7692,0,0,44.685,1,1,8008,4004
6008,4.6466e+07,0,-0.002757,-0.00044542,0.00015271,-0.24886,0.071601,-9.77,0,0,44.685,1,1,8008,4004
6011,4.6469e+07,0,-0.0030526,0.00079339,-0.00052729,-0.25105,0.073704,-9.7702,0,0,44.685,1,1,8008,4004
6042,4.6471e+07,0,-0.0033408,0.0011055,-0.0007001,-0.25343,0.07959,-9.7658,0,0,44.685,1,1,8008,4004
6045,4.6474e+07,0,-0.0042327,0.0010682,-0.0015391,-0.25589,0.085877,-9.7608,0,0,44.685,1,1,8008,4004
6053,4.6477e+07,0,-0.0047007,0.00051551,-0.0014783,-0.25741,0.088779,-9.7621,0,0,44.685,1,1,8008,4004
6057,4.6478e+07,0,-0.0050532,-0.00052166,-0.00038133,-0.25773,0.088211,-9.7671,0,0,44.685,1,1,8008,4004
6088,4.6482e+07,0,-0.0057623,-0.0010299,0.0001211,-0.25891,0.085181,-9.7701,0,0,44.685,1,1,8008,4004
6091,4.6484e+07,0,-0.0059437,-0.0015249,-0.00022956,-0.26052,0.080526,-9.7725,0,0,44.685,1,1,8008,4004
6094,4.6487e+07,0,-0.005065,-0.0015293,-0.00044923,-0.26125,0.077795,-9.7701,0,0,44.685,1,1,8008,4004
6097,4.6488e+07,0,-0.0045997,-0.00033501,-0.00090616,-0.26334,0.075931,-9.764,0,0,44.686,1,1,8008,4004
6128,4.6491e+07,0,-0.0050475,0.00013202,-0.00126,-0.2635,0.076703,-9.76,0,0,44.686,1,1,8008,4004
6131,4.6494e+07,0,-0.0057815,0.00054814,-0.0016687,-0.26145,0.07763,-9.7514,0,0,44.686,1,1,8008,4004
6135,4.6496e+07,0,-0.0064179,0.00049707,-0.0014683,-0.25911,0.079663,-9.7463,0,0,44.686,1,1,8008,4004
6138,4.6499e+07,0,-0.0063103,-0.00035013,-0.00041727,-0.25525,0.083155,-9.7419,0,0,44.686,1,1,8008,4004
6169,4.6501e+07,0,-0.0056436,-0.0015603,-0.00067058,-0.25219,0.085682,-9.7433,0,0,44.686,1,1,8008,4004
6172,4.6504e+07,0,-0.0054846,-0.0014478,-0.0007198,-0.25081,0.086652,-9.7462,0,0,44.686,1,1,8008,4004
6175,4.6507e+07,0,-0.0056263,-0.00039875,-0.0010842,-0.25008,0.087932,-9.7493,0,0,44.686,1,1,8008,4004
6178,4.6509e+07,0,-0.0059192,0.0014124,-0.00097619,-0.25045,0.089888,-9.7519,0,0,44.687,1,1,8008,4004
6209,4.6512e+07,0,-0.0059009,0.001263,-0.00089421,-0.25089,0.089865,-9.7554,0,0,44.687,1,1,8008,4004
6212,4.6514e+07,0,-0.0052991,0.00069089,-0.00034019,-0.25154,0.088726,-9.7588,0,0,44.687,1,1,8008,4004
6216,4.6516e+07,0,-0.0048609,0.00057684,0.00014636,-0.25233,0.084995,-9.7638,0,0,44.687,1,1,8008,4004
6219,4.6519e+07,0,-0.0038854,0.00046373,-0.00012014,-0.25136,0.082725,-9.7655,0,0,44.687,1,1,8008,4004
6250,4.6525e+07,0,-0.0019738,0.0015125,-0.00046269,-0.25077,0.085624,-9.7583,0,0,44.687,1,1,8008,4004
6253,4.6527e+07,0,-0.0026331,0.0014567,-7.3766e-05,-0.25031,0.08975,-9.7545,0,0,44.688,1,1,8008,4004
6256,4.6529e+07,0,-0.0030307,0.0017895,0.00082333,-0.24942,0.093395,-9.7522,0,0,44.688,1,1,8008,4004
6287,4.6532e+07,0,-0.0027547,0.0021029,0.0018947,-0.24902,0.098643,-9.7505,0,0,44.688,1,1,8008,4004
6290,4.6535e+07,0,-0.0019064,0.0022414,0.001348,-0.24957,0.10274,-9.7505,0,0,44.688,1,1,8008,4004
6294,4.6537e+07,0,-0.00090292,0.0027029,-0.00022256,-0.25119,0.10732,-9.7518,0,0,44.688,1,1,8008,4004
6298,4.6539e+07,0,-0.00086555,0.0028782,-0.0010358,-0.25164,0.10893,-9.7527,0,0,44.688,1,1,8008,4004
6331,4.6542e+07,0,-0.0016767,0.0027936,-0.0010716,-0.25191,0.11081,-9.7551,0,0,44.688,1,1,8008,4004
6335,4.6544e+07,0,-0.0019891,0.0025487,-0.00088607,-0.25204,0.11133,-9.7565,0,0,44.689,1,1,8008,4004
6339,4.6547e+07,0,-0.0018065,0.0020872,0.00012265,-0.25117,0.10965,-9.7533,0,0,44.689,1,1,8008,4004
6343,4.655e+07,0,-0.00096527,0.0021592,0.00025747,-0.25001,0.10793,-9.7471,0,0,44.689,1,1,8008,4004
6374,4.6552e+07,0,-0.00031484,0.0022076,0.00089459,-0.24596,0.1038,-9.7341,0,0,44.689,1,1,8008,4004
6377,4.6555e+07,0,0.00047009,0.0030126,0.001168,-0.24397,0.10157,-9.7309,0,0,44.689,1,1,8008,4004
6380,4.6558e+07,0,0.00082098,0.0038384,0.00074837,-0.24105,0.10044,-9.7323,0,0,44.69,1,1,8008,4004
6383,4.656e+07,0,0.00070904,0.0038353,0.00039,-0.23877,0.10058,-9.7367,0,0,44.69,1,1,8008,4004
6414,4.6563e+07,0,0.0014741,0.0024036,0.00076153,-0.23537,0.10039,-9.7466,0,0,44.69,1,1,8008,4004
6417,4.6565e+07,0,0.0021211,0.0016724,0.00092605,-0.23341,0.10018,-9.7523,0,0,44.69,1,1,8008,4004
6421,4.6567e+07,0,0.002425,0.001058,0.000953,-0.23157,0.10015,-9.7583,0,0,44.691,1,1,8008,4004
6424,4.6571e+07,0,0.0017512,0.000713,0.00099115,-0.23168,0.099885,-9.7618,0,0,44.691,1,1,8008,4004
6455,4.6573e+07,0,0.00092528,0.0012589,0.00098266,-0.23366,0.098157,-9.7665,0,0,44.691,1,1,8008,4004
6458,4.6576e+07,0,0.0027106,0.0023442,0.00056033,-0.23521,0.097205,-9.7711,0,0,44.691,1,1,8008,4004
6465,4.6578e+07,0,0.0035888,0.0023496,0.00020472,-0.23627,0.09763,-9.7727,0,0,44.691,1,1,8008,4004
6468,4.6581e+07,0,0.0042757,0.0020452,-1.2635e-05,-0.23601,0.095993,-9.7746,0,0,44.692,1,1,8008,4004
6499,4.6583e+07,0,0.0036161,0.0025012,2.8095e-05,-0.23518,0.094362,-9.7733,0,0,44.692,1,1,8008,4004
6502,4.6586e+07,0,0.0032459,0.0030319,0.00056251,-0.23396,0.094247,-9.7701,0,0,44.692,1,1,8008,4004
6507,4.6588e+07,0,0.0030784,0.0024468,0.0011961,-0.23321,0.096123,-9.7692,0,0,44.692,1,1,8008,4004
6510,4.6591e+07,0,0.0024098,0.00090102,0.0012203,-0.2325,0.09824,-9.7661,0,0,44.692,1,1,8008,4004
6543,4.6594e+07,0,0.0020367,-0.00040513,0.00056755,-0.23374,0.098276,-9.7631,0,0,44.692,1,1,8008,4004
6546,4.6596e+07,0,0.0012946,-0.00040409,6.1191e-07,-0.23788,0.098575,-9.7607,0,0,44.692,1,1,8008,4004
6549,4.6599e+07,0,0.0011063,-7.161e-05,-0.00061995,-0.24049,0.098967,-9.7618,0,0,44.692,1,1,8008,4004
6552,4.6601e+07,0,0.0010888,0.0003815,-0.0011333,-0.24383,0.097508,-9.7618,0,0,44.692,1,1,8008,4004
6583,4.6603e+07,0,0.0012429,0.00064916,-0.0012454,-0.2454,0.095731,-9.7588,0,0,44.692,1,1,8008,4004
6586,4.6606e+07,0,0.00075767,0.0005759,-0.0019165,-0.24484,0.094735,-9.7525,0,0,44.693,1,1,8008,4004
6590,4.6608e+07,0,-7.0715e-05,0.00039198,-0.0019223,-0.24341,0.093996,-9.7494,0,0,44.693,1,1,8008,4004
6593,4.6611e+07,0,-0.00095316,0.0006055,-0.0017289,-0.24063,0.091641,-9.7486,0,0,44.693,1,1,8008,4004
6624,4.6613e+07,0,-0.0014681,0.00023345,-0.0012065,-0.23949,0.088777,-9.7502,0,0,44.693,1,1,8008,4004
6627,4.6616e+07,0,-0.0010201,-0.0004929,-0.0012472,-0.2405,0.085955,-9.7517,0,0,44.693,1,1,8008,4004
6631,4.6621e+07,0,-0.0020742,-0.00084052,-0.0014173,-0.243,0.08072,-9.7537,0,0,44.693,1,1,8008,4004
6662,4.6625e+07,0,-0.0027273,0.00052786,-0.0010397,-0.24363,0.079988,-9.7566,0,0,44.693,1,1,8008,4004
6665,4.6626e+07,0,-0.0028707,0.00112,-0.00078206,-0.24342,0.079353,-9.7599,0,0,44.693,1,1,8008,4004
6668,4.6629e+07,0,-0.0030281,0.0020134,-0.0015847,-0.24166,0.078677,-9.7651,0,0,44.693,1,1,8008,4004
6671,4.6631e+07,0,-0.0035041,0.0018469,-0.0013635,-0.24128,0.07844,-9.7693,0,0,44.693,1,1,8008,4004
6702,4.6634e+07,0,-0.0041765,0.00081568,-0.00064461,-0.24318,0.07859,-9.7761,0,0,44.693,1,1,8008,4004
6705,4.6636e+07,0,-0.0036633,-0.00058838,-0.00076215,-0.24524,0.079035,-9.7784,0,0,44.693,1,1,8008,4004
6710,4.6639e+07,0,-0.0022864,-0.00091093,-0.0011241,-0.24764,0.079035,-9.7748,0,0,44.693,1,1,8008,4004
6713,4.6642e+07,0,-0.0021426,0.00012603,-0.0010077,-0.24858,0.078691,-9.7705,0,0,44.693,1,1,8008,4004
6744,4.6644e+07,0,-0.0032602,0.0010433,0.00017046,-0.24973,0.078865,-9.7651,0,0,44.693,1,1,8008,4004
6747,4.6647e+07,0,-0.004152,0.0013807,0.00042787,-0.25101,0.079341,-9.7618,0,0,44.693,1,1,8008,4004
6751,4.6649e+07,0,-0.0043155,0.0013409,0.00074952,-0.25145,0.08042,-9.7613,0,0,44.693,1,1,8008,4004
6754,4.6652e+07,0,-0.0038046,0.00043478,0.0010842,-0.25076,0.084283,-9.7616,0,0,44.693,1,1,8008,4004
6785,4.6654e+07,0,-0.0032608,-0.00032458,0.00036739,-0.24783,0.086839,-9.7624,0,0,44.693,1,1,8008,4004
6788,4.6657e+07,0,-0.0032968,-0.00076217,-0.0011604,-0.24225,0.091266,-9.7633,0,0,44.693,1,1,8008,4004
6792,4.6659e+07,0,-0.0043421,-0.00092743,-0.0020144,-0.23937,0.095116,-9.7628,0,0,44.693,1,1,8008,4004
6795,4.6662e+07,0,-0.0047524,-0.0015425,-0.0016974,-0.23721,0.10204,-9.7649,0,0,44.693,1,1,8008,4004
6826,4.6664e+07,0,-0.0049448,-0.00080302,-0.0015457,-0.23851,0.10579,-9.7689,0,0,44.693,1,1,8008,4004
6829,4.6667e+07,0,-0.0065102,0.0004199,-0.00048604,-0.24367,0.10802,-9.7707,0,0,44.693,1,1,8008,4004
6832,4.6669e+07,0,-0.006717,0.0008939,-0.00030346,-0.24613,0.10708,-9.7688,0,0,44.693,1,1,8008,4004
6836,4.6672e+07,0,-0.0063286,0.0010108,-0.00063762,-0.24759,0.10671,-9.7664,0,0,44.693,1,1,8008,4004
6867,4.6674e+07,0,-0.0060369,0.0013857,-0.0003963,-0.24926,0.10765,-9.7642,0,0,44.693,1,1,8008,4004
6870,4.6677e+07,0,-0.0056355,0.00215,5.4733e-05,-0.24985,0.10793,-9.761,0,0,44.693,1,1,8008,4004
6878,4.6679e+07,0,-0.0053153,0.0027432,0.00053073,-0.25011,0.10832,-9.7591,0,0,44.693,1,1,8008,4004
6881,4.6681e+07,0,-0.004714,0.0034216,0.00058728,-0.25144,0.10802,-9.7562,0,0,44.693,1,1,8008,4004
6912,4.6684e+07,0,-0.0043949,0.0029904,0.00046412,-0.25231,0.10734,-9.7546,0,0,44.693,1,1,8008,4004
6915,4.6687e+07,0,-0.0032474,0.0017713,0.00052282,-0.25333,0.10854,-9.7522,0,0,44.693,1,1,8008,4004
6919,4.6689e+07,0,-0.0020621,0.0016266,0.00052881,-0.25402,0.10957,-9.753,0,0,44.693,1,1,8008,4004
6922,4.6691e+07,0,-0.00011565,0.001415,0.00054028,-0.25435,0.10923,-9.7547,0,0,44.693,1,1,8008,4004
6953,4.6694e+07,0,5.5651e-05,0.0012918,0.00037349,-0.25404,0.10694,-9.7543,0,0,44.693,1,1,8008,4004
6956,4.6697e+07,0,-0.0012528,0.0012449,0.0003027,-0.25393,0.10397,-9.7524,0,0,44.693,1,1,8008,4004
6959,4.6699e+07,0,-0.0017928,0.0012555,0.00038704,-0.2529,0.10369,-9.7505,0,0,44.693,1,1,8008,4004
6962,4.6702e+07,0,-0.00043471,0.0019602,-0.00014074,-0.25053,0.10533,-9.7472,0,0,44.693,1,1,8008,4004
6993,4.6704e+07,0,0.00046472,0.0020656,-0.00074361,-0.24812,0.10492,-9.7464,0,0,44.693,1,1,8008,4004
6996,4.6707e+07,0,0.00024009,0.0025817,-0.0013825,-0.24551,0.10251,-9.7461,0,0,44.693,1,1,8008,4004
7000,4.6709e+07,0,0.00028123,0.003048,-0.0016264,-0.24439,0.10177,-9.7487,0,0,44.693,1,1,8008,4004
7003,4.6712e+07,0,0.0013531,0.0027665,-0.0021118,-0.24416,0.10291,-9.7536,0,0,44.693,1,1,8008,4004
7034,4.6715e+07,0,0.0018549,0.0019493,-0.0018463,-0.24513,0.10263,-9.757,0,0,44.693,1,1,8008,4004
7037,4.6717e+07,0,0.0018082,0.00060092,-0.00022249,-0.24661,0.099364,-9.759,0,0,44.693,1,1,8008,4004
7040,4.6719e+07,0,0.0017493,-0.00059432,0.0005859,-0.24663,0.096951,-9.7589,0,0,44.693,1,1,8008,4004
7043,4.6722e+07,0,0.002541,-0.0010477,0.00094777,-0.24736,0.094021,-9.7609,0,0,44.693,1,1,8008,4004
7074,4.6725e+07,0,0.0026453,0.00040184,0.0012833,-0.24769,0.092774,-9.762,0,0,44.693,1,1,8008,4004
7078,4.6727e+07,0,0.0026412,0.002554,0.0013457,-0.24622,0.091455,-9.7639,0,0,44.693,1,1,8008,4004
7082,4.673e+07,0,0.0031415,0.0032353,5.1859e-05,-0.24574,0.091525,-9.7634,0,0,44.693,1,1,8008,4004
7085,4.6732e+07,0,0.0035992,0.0030733,-0.00013842,-0.24645,0.090338,-9.76,0,0,44.693,1,1,8008,4004
7116,4.6734e+07,0,0.0025873,0.0032229,-6.1746e-05,-0.24798,0.087376,-9.7551,0,0,44.693,1,1,8008,4004
7119,4.6737e+07,0,0.0015787,0.0027191,0.00012099,-0.24843,0.087275,-9.7512,0,0,44.693,1,1,8008,4004
7123,4.6742e+07,0,0.0026818,-5.3972e-05,4.8275e-05,-0.24716,0.090319,-9.7484,0,0,44.693,1,1,8008,4004
7154,4.6744e+07,0,0.0031027,-0.00047419,-0.00064311,-0.24745,0.090472,-9.7441,0,0,44.693,1,1,8008,4004
7157,4.6747e+07,0,0.0031959,-0.00037347,-0.00053442,-0.24819,0.089558,-9.7412,0,0,44.693,1,1,8008,4004
7160,4.675e+07,0,0.0033534,0.00038997,0.00029745,-0.24994,0.086747,-9.7427,0,0,44.693,1,1,8008,4004
7164,4.6752e+07,0,0.0034952,0.00089157,0.00079742,-0.25221,0.083676,-9.7471,0,0,44.693,1,1,8008,4004
7195,4.6755e+07,0,0.0032842,0.0016872,0.00086595,-0.25481,0.076911,-9.7535,0,0,44.693,1,1,8008,4004
7198,4.6757e+07,0,0.0027172,0.0018237,0.00035801,-0.2559,0.072319,-9.7567,0,0,44.693,1,1,8008,4004
7202,4.676e+07,0,0.0017304,0.0020874,0.00063856,-0.25823,0.067247,-9.7599,0,0,44.693,1,1,8008,4004
7205,4.6763e+07,0,0.00061852,0.002208,0.00021755,-0.25957,0.064899,-9.7618,0,0,44.693,1,1,8008,4004
7236,4.6766e+07,0,0.00092479,0.0025138,-0.0008375,-0.25808,0.062777,-9.7587,0,0,44.693,1,1,8008,4004
7239,4.6768e+07,0,0.0016269,0.0023745,-0.0010288,-0.25527,0.063031,-9.7557,0,0,44.693,1,1,8008,4004
7242,4.6771e+07,0,0.0019391,0.0022433,-0.0011594,-0.24906,0.062465,-9.754,0,0,44.693,1,1,8008,4004
7245,4.6773e+07,0,0.0013508,0.0026656,-0.0013094,-0.24542,0.062578,-9.7554,0,0,44.693,1,1,8008,4004
7276,4.6776e+07,0,0.00024413,0.0024508,-0.0015203,-0.24092,0.064203,-9.7578,0,0,44.693,1,1,8008,4004
7280,4.6778e+07,0,-0.00055991,0.0026876,-0.0015351,-0.23882,0.066158,-9.7602,0,0,44.694,1,1,8008,4004
7289,4.6781e+07,0,-0.0019557,0.001734,-0.0019798,-0.23811,0.068448,-9.7621,0,0,44.694,1,1,8008,4004
7292,4.6783e+07,0,-0.001997,0.0013025,-0.0015361,-0.23878,0.069463,-9.7626,0,0,44.694,1,1,8008,4004
7323,4.6785e+07,0,-0.0021499,0.0017928,-0.0012954,-0.23972,0.072658,-9.7623,0,0,44.694,1,1,8008,4004
7326,4.6788e+07,0,-0.0026019,0.0015261,-0.00095001,-0.23927,0.074292,-9.7604,0,0,44.694,1,1,8008,4004
7329,4.6791e+07,0,-0.0037658,0.0013244,0.00053394,-0.23795,0.077039,-9.7589,0,0,44.694,1,1,8008,4004
7332,4.6793e+07,0,-0.0042184,0.0018634,0.0009633,-0.23603,0.078854,-9.7593,0,0,44.694,1,1,8008,4004
7365,4.6796e+07,0,-0.0042338,0.0026868,0.00042389,-0.23214,0.080531,-9.7615,0,0,44.694,1,1,8008,4004
7368,4.6798e+07,0,-0.0033983,0.0028753,0.00067163,-0.23006,0.081374,-9.7612,0,0,44.694,1,1,8008,4004
7372,4.6801e+07,0,-0.0030114,0.0027689,-0.0001041,-0.23015,0.082018,-9.7602,0,0,44.694,1,1,8008,4004
7375,4.6804e+07,0,-0.0035723,0.0024103,-0.00092058,-0.231,0.083794,-9.7577,0,0,44.694,1,1,8008,4004
7406,4.6807e+07,0,-0.0038058,0.002733,-0.00093348,-0.23051,0.085307,-9.7562,0,0,44.694,1,1,8008,4004
7409,4.6809e+07,0,-0.0037779,0.0037282,-0.00049183,-0.22936,0.088804,-9.7545,0,0,44.694,1,1,8008,4004
7412,4.6811e+07,0,-0.0036282,0.0042721,-0.00022638,-0.23001,0.090062,-9.7528,0,0,44.694,1,1,8008,4004
7415,4.6814e+07,0,-0.0047136,0.0040965,-0.00056025,-0.23133,0.088976,-9.749,0,0,44.694,1,1,8008,4004
7446,4.6816e+07,0,-0.0051756,0.0035102,-0.00046759,-0.23198,0.085913,-9.7466,0,0,44.694,1,1,8008,4004
7449,4.6819e+07,0,-0.004093,0.0024062,0.0007986,-0.23331,0.082861,-9.7476,0,0,44.694,1,1,8008,4004
7454,4.6822e+07,0,-0.0030398,0.0020607,0.00071426,-0.23504,0.081777,-9.7502,0,0,44.694,1,1,8008,4004
7457,4.6824e+07,0,-0.0031839,0.0019884,0.00014019,-0.23793,0.08131,-9.7528,0,0,44.694,1,1,8008,4004
7488,4.6827e+07,0,-0.0037459,0.0012244,-0.00038213,-0.23986,0.082424,-9.7534,0,0,44.694,1,1,8008,4004
7491,4.6829e+07,0,-0.0031654,-0.00042396,-0.00018158,-0.24008,0.084862,-9.7577,0,0,44.694,1,1,8008,4004
7495,4.6833e+07,0,-0.0026586,-0.00079359,-0.00040453,-0.23955,0.086271,-9.7624,0,0,44.694,1,1,8008,4004
7498,4.6834e+07,0,-0.0027981,-0.00089332,-0.0011048,-0.23995,0.089981,-9.7703,0,0,44.694,1,1,8008,4004
7529,4.6836e+07,0,-0.0028954,-0.00013956,-0.00080894,-0.23985,0.093428,-9.7739,0,0,44.694,1,1,8008,4004
7533,4.6839e+07,0,-0.0037207,0.00064224,-0.0001604,-0.23915,0.095246,-9.7739,0,0,44.694,1,1,8008,4004
7536,4.6842e+07,0,-0.0046164,0.00074517,0.00049845,-0.23893,0.096333,-9.7729,0,0,44.694,1,1,8008,4004
7539,4.6844e+07,0,-0.0043767,0.00088722,0.00033125,-0.23635,0.10015,-9.7729,0,0,44.694,1,1,8008,4004
7570,4.6848e+07,0,-0.003852,0.0015283,-0.0014214,-0.23353,0.10449,-9.7738,0,0,44.694,1,1,8008,4004
7573,4.6849e+07,0,-0.0043401,0.0021877,-0.0016114,-0.23329,0.10637,-9.7745,0,0,44.694,1,1,8008,4004
7577,4.6851e+07,0,-0.0038026,0.0018982,-0.0006111,-0.23482,0.10959,-9.7742,0,0,44.694,1,1,8008,4004
7581,4.6854e+07,0,-0.0028663,0.0018923,0.0001025,-0.23516,0.11285,-9.7731,0,0,44.694,1,1,8008,4004
7612,4.6857e+07,0,-0.0020691,0.00015967,0.00036892,-0.23565,0.11698,-9.7715,0,0,44.694,1,1,8008,4004
7615,4.686e+07,0,-0.0020997,-0.00030913,0.0010315,-0.23558,0.11824,-9.768,0,0,44.694,1,1,8008,4004
7618,4.6862e+07,0,-0.0021053,-0.00022379,0.0014329,-0.23648,0.11941,-9.7615,0,0,44.694,1,1,8008,4004
7622,4.6865e+07,0,-0.0011002,-7.5601e-05,0.00080032,-0.23785,0.11901,-9.7592,0,0,44.694,1,1,8008,4004
7653,4.6867e+07,0,-0.00015155,-0.00026675,-0.00048946,-0.23898,0.11657,-9.7618,0,0,44.694,1,1,8008,4004
7657,4.687e+07,0,-2.3686e-05,-0.00018388,-0.0010924,-0.23991,0.11518,-9.7643,0,0,44.694,1,1,8008,4004
7661,4.6872e+07,0,0.0010092,-0.00056522,-0.00044315,-0.24045,0.11557,-9.7653,0,0,44.694,1,1,8008,4004
7664,4.6874e+07,0,0.001989,-0.0010141,-0.0001504,-0.24053,0.11653,-9.7639,0,0,44.694,1,1,8008,4004
7695,4.6876e+07,0,0.0026068,-0.00085957,0.00017721,-0.24363,0.11715,-9.7567,0,0,44.694,1,1,8008,4004
7698,4.6879e+07,0,0.002479,-0.00060387,0.00068488,-0.24711,0.11627,-9.7508,0,0,44.694,1,1,8008,4004
7706,4.6882e+07,0,0.0016862,0.00021762,0.00056464,-0.25166,0.11337,-9.745,0,0,44.694,1,1,8008,4004
7709,4.6885e+07,0,0.0012479,0.00065814,0.00023825,-0.25395,0.11098,-9.7431,0,0,44.695,1,1,8008,4004
7740,4.6887e+07,0,0.0016867,0.00065765,-0.00015938,-0.2531,0.10706,-9.7434,0,0,44.695,1,1,8008,4004
7743,4.689e+07,0,0.0028023,0.00015109,-3.4762e-06,-0.25074,0.10061,-9.7428,0,0,44.695,1,1,8008,4004
7746,4.6892e+07,0,0.0033399,-0.00061513,4.707e-05,-0.24958,0.09576,-9.7423,0,0,44.695,1,1,8008,4004
7749,4.6895e+07,0,0.0034327,-0.00017378,0.00087725,-0.24914,0.089955,-9.7426,0,0,44.695,1,1,8008,4004
7780,4.6898e+07,0,0.0034309,0.00055888,0.00075785,-0.24992,0.08632,-9.7432,0,0,44.695,1,1,8008,4004
7783,4.69e+07,0,0.0035723,0.0014929,0.00042783,-0.25018,0.084374,-9.7443,0,0,44.695,1,1,8008,4004
7787,4.6902e+07,0,0.0028845,0.0020701,0.00013255,-0.25042,0.083716,-9.7479,0,0,44.695,1,1,8008,4004
7790,4.6905e+07,0,0.0025495,0.0026488,-5.0927e-05,-0.25094,0.084261,-9.7508,0,0,44.695,1,1,8008,4004
7821,4.6908e+07,0,0.0024305,0.0021744,0.00047204,-0.25379,0.085906,-9.7552,0,0,44.695,1,1,8008,4004
7824,4.691e+07,0,0.0018175,0.0021639,0.0010475,-0.25509,0.087766,-9.7598,0,0,44.695,1,1,8008,4004
7827,4.6913e+07,0,0.00086556,0.0026969,0.001388,-0.25703,0.089716,-9.7698,0,0,44.695,1,1,8008,4004
7830,4.6915e+07,0,0.00090099,0.0023935,0.00076157,-0.25774,0.090402,-9.771,0,0,44.695,1,1,8008,4004
7861,4.6918e+07,0,0.0015675,0.0028641,0.00079293,-0.26021,0.091405,-9.768,0,0,44.695,1,1,8008,4004
7864,4.6921e+07,0,0.0015418,0.0030873,0.00024427,-0.2604,0.091724,-9.7624,0,0,44.695,1,1,8008,4004
7869,4.6924e+07,0,0.0014072,0.0033159,-0.00013819,-0.25833,0.089148,-9.7541,0,0,44.695,1,1,8008,4004
7872,4.6925e+07,0,0.0013184,0.0034359,-0.00028625,-0.25602,0.087252,-9.7524,0,0,44.695,1,1,8008,4004
7903,4.6928e+07,0,0.0014224,0.0029916,-0.0004102,-0.25391,0.084688,-9.7492,0,0,44.695,1,1,8008,4004
7906,4.6931e+07,0,0.0011963,0.0021511,-0.0001452,-0.25356,0.08403,-9.7465,0,0,44.695,1,1,8008,4004
7909,4.6933e+07,0,0.0002707,0.0014255,-8.0867e-05,-0.25341,0.083838,-9.7444,0,0,44.695,1,1,8008,4004
7912,4.6936e+07,0,-8.0078e-05,0.0007329,-0.00071067,-0.2532,0.083283,-9.7431,0,0,44.695,1,1,8008,4004
7915,4.6938e+07,0,-5.4211e-05,-0.00041297,-0.00017903,-0.25355,0.081651,-9.7418,0,0,44.695,1,1,8008,4004
7946,4.694e+07,0,0.00014006,-0.00027315,0.00068892,-0.25342,0.080699,-9.7423,0,0,44.695,1,1,8008,4004
7950,4.6943e+07,0,-0.00078797,0.00028303,0.0013209,-0.25256,0.079905,-9.7471,0,0,44.695,1,1,8008,4004
7953,4.6945e+07,0,-0.0011444,0.00076114,0.00086007,-0.25191,0.079192,-9.7498,0,0,44.695,1,1,8008,4004
7956,4.6948e+07,0,-0.0019849,0.0009229,-3.99e-05,-0.24939,0.07812,-9.7517,0,0,44.695,1,1,8008,4004
7987,4.6952e+07,0,-0.0033454,0.00030198,-3.7322e-06,-0.24666,0.078825,-9.7517,0,0,44.695,1,1,8008,4004
7990,4.6953e+07,0,-0.0041402,-7.685e-05,0.00078997,-0.24415,0.081117,-9.7523,0,0,44.695,1,1,8008,4004
7993,4.6956e+07,0,-0.0047653,0.00022106,0.00051359,-0.24206,0.082003,-9.7516,0,0,44.695,1,1,8008,4004
7996,4.6958e+07,0,-0.0061967,0.00061211,-0.00010066,-0.24138,0.081151,-9.7495,0,0,44.695,1,1,8008,4004
8027,4.6961e+07,0,-0.006738,0.00094397,-0.00071193,-0.24276,0.078407,-9.7466,0,0,44.695,1,1,8008,4004
8030,4.6964e+07,0,-0.0057872,0.00081383,-0.00074703,-0.2443,0.077886,-9.7462,0,0,44.695,1,1,8008,4004
8035,4.6966e+07,0,-0.0036501,0.0006945,0.00051543,-0.24399,0.078589,-9.7467,0,0,44.695,1,1,8008,4004
8038,4.6968e+07,0,-0.0026229,0.00033656,0.0016485,-0.24368,0.079441,-9.7474,0,0,44.695,1,1,8008,4004
8069,4.6971e+07,0,-0.0026495,0.00020553,0.0014439,-0.24377,0.081058,-9.7497,0,0,44.695,1,1,8008,4004
8072,4.6974e+07,0,-0.0030152,-7.6748e-05,0.00085728,-0.24438,0.082938,-9.7498,0,0,44.695,1,1,8008,4004
8076,4.6976e+07,0,-0.0038595,0.00019567,-3.2272e-05,-0.24671,0.087467,-9.7492,0,0,44.695,1,1,8008,4004
8079,4.6978e+07,0,-0.0042143,0.00040797,2.9052e-05,-0.24704,0.090695,-9.7483,0,0,44.695,1,1,8008,4004
8110,4.6981e+07,0,-0.0045497,0.00017462,-0.00012056,-0.2461,0.091524,-9.7452,0,0,44.695,1,1,8008,4004
8117,4.6983e+07,0,-0.0050217,0.0002468,-0.00071168,-0.24405,0.09062,-9.7428,0,0,44.695,1,1,8008,4004
8122,4.6986e+07,0,-0.0049482,0.00034387,-0.00085891,-0.24022,0.090173,-9.7417,0,0,44.696,1,1,8008,4004
8125,4.6989e+07,0,-0.005157,0.00093984,-0.00072193,-0.2386,0.090182,-9.7412,0,0,44.696,1,1,8008,4004
8156,4.6991e+07,0,-0.0051729,0.0011084,-0.00025811,-0.23775,0.092101,-9.7441,0,0,44.696,1,1,8008,4004
8159,4.6993e+07,0,-0.0044456,0.001309,0.00026576,-0.23665,0.094523,-9.7485,0,0,44.696,1,1,8008,4004
8163,4.6996e+07,0,-0.0040442,0.0011544,0.00046284,-0.23522,0.097017,-9.7544,0,0,44.696,1,1,8008,4004
8167,4.6999e+07,0,-0.0040375,0.0019513,0.00045764,-0.23452,0.097344,-9.7587,0,0,44.696,1,1,8008,4004
8198,4.7002e+07,0,-0.0041809,0.0017925,0.00069993,-0.23387,0.097758,-9.762,0,0,44.696,1,1,8008,4004
8201,4.7003e+07,0,-0.0034153,0.00093727,0.0011763,-0.2342,0.097437,-9.7634,0,0,44.696,1,1,8008,4004
8204,4.7006e+07,0,-0.0027098,0.0010494,0.0015771,-0.23501,0.097076,-9.7624,0,0,44.696,1,1,8008,4004
8207,4.7009e+07,0,-0.0029899,0.00086818,0.0008406,-0.23523,0.096161,-9.7623,0,0,44.696,1,1,8008,4004
8238,4.7011e+07,0,-0.0036854,0.0009884,0.00020273,-0.23449,0.095188,-9.7615,0,0,44.696,1,1,8008,4004
8241,4.7014e+07,0,-0.0031214,0.0022266,-0.00078758,-0.23391,0.092611,-9.7577,0,0,44.697,1,1,8008,4004
8245,4.7016e+07,0,-0.0019553,0.0032537,-0.00059401,-0.2344,0.091203,-9.755,0,0,44.697,1,1,8008,4004
8250,4.7019e+07,0,-0.00091565,0.0040079,-0.00082026,-0.23508,0.091461,-9.7542,0,0,44.697,1,1,8008,4004
8281,4.7025e+07,0,-0.00047254,0.0024377,-0.00043122,-0.23887,0.099595,-9.7564,0,0,44.697,1,1,8008,4004
8284,4.7027e+07,0,9.228e-05,0.0021101,-0.00056802,-0.2408,0.10418,-9.7576,0,0,44.697,1,1,8008,4004
8287,4.7029e+07,0,0.00063145,0.0017845,-0.0009151,-0.24251,0.10737,-9.7577,0,0,44.697,1,1,8008,4004
8318,4.7031e+07,0,0.0011972,0.0018869,-0.0010688,-0.24322,0.10786,-9.757,0,0,44.697,1,1,8008,4004
8321,4.7034e+07,0,0.0015399,0.0023548,-0.00045487,-0.24255,0.10744,-9.7543,0,0,44.697,1,1,8008,4004
8325,4.7036e+07,0,0.0011671,0.0023743,-0.00012267,-0.24044,0.10703,-9.7527,0,0,44.698,1,1,8008,4004
8328,4.7039e+07,0,0.00070846,0.0013255,0.0008379,-0.2359,0.10905,-9.7529,0,0,44.698,1,1,8008,4004
8361,4.7044e+07,0,0.0012339,0.00088431,0.00048664,-0.23084,0.11305,-9.7574,0,0,44.698,1,1,8008,4004
8365,4.7047e+07,0,0.00077122,0.001433,-0.001084,-0.22933,0.11116,-9.7598,0,0,44.698,1,1,8008,4004
8368,4.7049e+07,0,-0.00015468,0.0021861,-0.0026538,-0.22841,0.10625,-9.7618,0,0,44.698,1,1,8008,4004
8399,4.7052e+07,0,0.00011235,0.0035173,-0.0019757,-0.22826,0.101,-9.762,0,0,44.698,1,1,8008,4004
8402,4.7054e+07,0,-5.2308e-05,0.0043916,-0.001348,-0.22879,0.09755,-9.7614,0,0,44.698,1,1,8008,4004
8405,4.7057e+07,0,-4.4625e-05,0.0040862,-0.0010334,-0.23031,0.09505,-9.7607,0,0,44.698,1,1,8008,4004
8408,4.7059e+07,0,0.00092283,0.0037342,-1.863e-06,-0.23387,0.093076,-9.7598,0,0,44.698,1,1,8008,4004
8439,4.7061e+07,0,0.0013501,0.0030249,0.00071615,-0.2361,0.093548,-9.7582,0,0,44.698,1,1,8008,4004
8442,4.7065e+07,0,0.0025591,0.0016724,0.0010866,-0.23915,0.093939,-9.7532,0,0,44.698,1,1,8008,4004
8446,4.7066e+07,0,0.0027634,0.0011286,0.00075356,-0.24057,0.093399,-9.7501,0,0,44.698,1,1,8008,4004
8451,4.7069e+07,0,0.0025179,0.0010794,0.00040285,-0.24206,0.092894,-9.7426,0,0,44.698,1,1,8008,4004
8482,4.7071e+07,0,0.0025599,0.0015952,0.00052152,-0.2429,0.091052,-9.7401,0,0,44.698,1,1,8008,4004
8485,4.7074e+07,0,0.0023697,0.0026685,4.3184e-05,-0.24514,0.087177,-9.7396,0,0,44.699,1,1,8008,4004
8489,4.7077e+07,0,0.0022359,0.0025893,-0.00020689,-0.24702,0.086727,-9.7398,0,0,44.699,1,1,8008,4004
8492,4.7079e+07,0,0.0028273,0.00072038,-0.00093884,-0.25017,0.086397,-9.7419,0,0,44.699,1,1,8008,4004
8523,4.7082e+07,0,0.001939,-0.00054124,-0.0011352,-0.25255,0.084873,-9.7451,0,0,44.699,1,1,8008,4004
8530,4.7084e+07,0,0.00075407,-0.0011517,-0.0015721,-0.25339,0.083554,-9.7483,0,0,44.699,1,1,8008,4004
8533,4.7086e+07,0,-0.0004209,-0.0018408,-0.0018412,-0.25345,0.083212,-9.7527,0,0,44.699,1,1,8008,4004
8536,4.7089e+07,0,-0.001674,-0.0015505,-0.00023084,-0.2509,0.08302,-9.7558,0,0,44.699,1,1,8008,4004
8567,4.7092e+07,0,-0.0016689,-0.00098373,0.0004676,-0.24788,0.082976,-9.7564,0,0,44.699,1,1,8008,4004
8570,4.7094e+07,0,-0.0017456,6.1669e-05,0.00091726,-0.24195,0.082752,-9.7577,0,0,44.699,1,1,8008,4004
8574,4.7097e+07,0,-0.0019315,0.00065895,0.00074197,-0.23957,0.083496,-9.7567,0,0,44.699,1,1,8008,4004
8577,4.7099e+07,0,-0.0018801,0.0010785,0.0010427,-0.23776,0.084004,-9.7515,0,0,44.699,1,1,8008,4004
8608,4.7102e+07,0,-0.0011197,0.001171,0.0008633,-0.23729,0.083824,-9.7491,0,0,44.699,1,1,8008,4004
8611,4.7104e+07,0,-0.001066,0.0013585,0.0010362,-0.23784,0.084575,-9.7494,0,0,44.7,1,1,8008,4004
8614,4.7107e+07,0,-0.00086269,0.0014604,0.0011897,-0.23838,0.086459,-9.7499,0,0,44.7,1,1,8008,4004
8617,4.711e+07,0,-0.00067495,0.0019156,0.0010335,-0.23802,0.088362,-9.7497,0,0,44.7,1,1,8008,4004
8648,4.7112e+07,0,-0.0014416,0.0013372,0.00095431,-0.23821,0.089146,-9.7466,0,0,44.7,1,1,8008,4004
8651,4.7114e+07,0,-0.0022685,-0.00027409,0.00064725,-0.2401,0.088598,-9.7425,0,0,44.7,1,1,8008,4004
8655,4.7117e+07,0,-0.0027224,-0.00054561,0.0011199,-0.24294,0.086493,-9.7375,0,0,44.7,1,1,8008,4004
8658,4.712e+07,0,-0.0032054,-0.00051119,0.0011376,-0.24404,0.083815,-9.7374,0,0,44.7,1,1,8008,4004
8689,4.7123e+07,0,-0.0034563,-0.00037722,0.0010406,-0.24784,0.08032,-9.7409,0,0,44.7,1,1,8008,4004
8692,4.7125e+07,0,-0.003077,0.00032259,0.0012896,-0.25157,0.079952,-9.7428,0,0,44.7,1,1,8008,4004
8695,4.7127e+07,0,-0.0027698,0.0010867,0.0014207,-0.25293,0.079279,-9.7434,0,0,44.7,1,1,8008,4004
8698,4.713e+07,0,-0.0029531,0.0020951,0.0011007,-0.25273,0.079569,-9.7453,0,0,44.7,1,1,8008,4004
8729,4.7134e+07,0,-0.0031585,0.0012315,0.0013839,-0.25287,0.081365,-9.7473,0,0,44.7,1,1,8008,4004
8732,4.7136e+07,0,-0.00287,0.00055972,0.001534,-0.2541,0.083049,-9.7482,0,0,44.7,1,1,8008,4004
8736,4.7137e+07,0,-0.0025515,7.2912e-05,0.0012513,-0.2551,0.084874,-9.7483,0,0,44.7,1,1,8008,4004
8739,4.714e+07,0,-0.0026976,0.00056809,0.00083459,-0.25413,0.085613,-9.7497,0,0,44.7,1,1,8008,4004
8770,4.7142e+07,0,-0.003003,0.0015925,-0.00010868,-0.25208,0.087039,-9.7525,0,0,44.7,1,1,8008,4004
8773,4.7145e+07,0,-0.0037521,0.0021507,-0.00099609,-0.24997,0.088109,-9.7531,0,0,44.7,1,1,8008,4004
8776,4.7148e+07,0,-0.0049052,0.0027042,-0.0015308,-0.24816,0.089071,-9.753,0,0,44.7,1,1,8008,4004
8779,4.7151e+07,0,-0.0054164,0.0033018,-0.0016304,-0.24518,0.090242,-9.7518,0,0,44.7,1,1,8008,4004
8782,4.7152e+07,0,-0.005613,0.0028452,-0.0017542,-0.24311,0.089313,-9.7491,0,0,44.7,1,1,8008,4004
8813,4.7155e+07,0,-0.0060369,0.0020844,-0.0011634,-0.24364,0.087357,-9.7472,0,0,44.7,1,1,8008,4004
8817,4.7157e+07,0,-0.0060856,0.0013599,-0.0006309,-0.24415,0.086447,-9.7469,0,0,44.7,1,1,8008,4004
8820,4.716e+07,0,-0.0043364,0.0011275,-0.00087681,-0.24483,0.08725,-9.7461,0,0,44.7,1,1,8008,4004
8823,4.7163e+07,0,-0.0025932,0.001417,-0.0011765,-0.24573,0.088341,-9.7454,0,0,44.7,1,1,8008,4004
8854,4.7165e+07,0,-0.0013855,0.0011597,-0.0012597,-0.24696,0.090343,-9.7444,0,0,44.7,1,1,8008,4004
8858,4.7168e+07,0,-0.0025326,0.0012114,-0.0014612,-0.24859,0.092933,-9.7472,0,0,44.7,1,1,8008,4004
8861,4.717e+07,0,-0.0030201,0.001691,-0.0012357,-0.25033,0.094637,-9.7509,0,0,44.7,1,1,8008,4004
8864,4.7173e+07,0,-0.0026885,0.0016905,-0.00064683,-0.25195,0.096855,-9.7533,0,0,44.7,1,1,8008,4004
8895,4.7176e+07,0,-0.0016459,0.0016547,0.00013336,-0.25384,0.097895,-9.7543,0,0,44.7,1,1,8008,4004
8898,4.7178e+07,0,-0.00086591,0.0010112,0.00020413,-0.25468,0.097873,-9.7547,0,0,44.7,1,1,8008,4004
8902,4.718e+07,0,-0.0010047,0.00031846,-0.00019192,-0.25519,0.098211,-9.7546,0,0,44.7,1,1,8008,4004
8905,4.7183e+07,0,-0.00165,0.00038168,-0.0015077,-0.25595,0.09704,-9.7527,0,0,44.7,1,1,8008,4004
8940,4.7186e+07,0,-0.0016849,0.00041285,-0.0019504,-0.25599,0.096277,-9.7514,0,0,44.7,1,1,8008,4004
8944,4.7188e+07,0,-0.0015009,0.00083954,-0.00092873,-0.25494,0.096504,-9.7504,0,0,44.7,1,1,8008,4004
8947,4.719e+07,0,-0.0012501,0.00093821,0.00030607,-0.25335,0.096673,-9.7504,0,0,44.7,1,1,8008,4004
8950,4.7193e+07,0,-0.00018839,0.00072843,0.00040997,-0.24936,0.095857,-9.7475,0,0,44.7,1,1,8008,4004
8981,4.7195e+07,0,0.0007395,0.00055264,-2.0982e-05,-0.2467,0.095018,-9.7468,0,0,44.7,1,1,8008,4004
8984,4.7198e+07,0,0.0014296,0.00093235,-0.0013201,-0.24433,0.094514,-9.7481,0,0,44.7,1,1,8008,4004
8989,4.7201e+07,0,0.0015828,0.00079911,-0.0019935,-0.24321,0.094851,-9.7486,0,0,44.7,1,1,8008,4004
8992,4.7203e+07,0,0.00033326,0.00048603,-0.0016755,-0.24284,0.092253,-9.7485,0,0,44.7,1,1,8008,4004
9023,4.7206e+07,0,-0.00087577,0.0007874,-0.00051194,-0.24434,0.091577,-9.7493,0,0,44.7,1,1,8008,4004
9028,4.7208e+07,0,-0.0007789,0.0013895,0.0004995,-0.24639,0.092483,-9.748,0,0,44.7,1,1,8008,4004
9031,4.7211e+07,0,9.7287e-05,0.0015875,0.001221,-0.24834,0.093529,-9.7455,0,0,44.7,1,1,8008,4004
9034,4.7213e+07,0,0.0013265,0.00099213,0.0014705,-0.25179,0.093736,-9.7431,0,0,44.7,1,1,8008,4004
9065,4.7216e+07,0,0.0017625,0.00075923,0.0011098,-0.25361,0.093336,-9.7422,0,0,44.7,1,1,8008,4004
9069,4.7217e+07,0,0.0017509,0.0011803,-0.00028122,-0.25581,0.092804,-9.7398,0,0,44.7,1,1,8008,4004
9072,4.722e+07,0,0.0018447,0.0018178,-0.001627,-0.25638,0.09185,-9.7404,0,0,44.7,1,1,8008,4004
9075,4.7223e+07,0,0.0023732,0.0011558,-0.0022225,-0.25519,0.090714,-9.7452,0,0,44.7,1,1,8008,4004
9106,4.7226e+07,0,0.003178,0.00057576,-0.0010348,-0.25282,0.089189,-9.7489,0,0,44.7,1,1,8008,4004
9109,4.7229e+07,0,0.0024495,0.00078192,-0.0006228,-0.25189,0.087699,-9.7497,0,0,44.7,1,1,8008,4004
9112,4.723e+07,0,0.0016799,0.00046916,-0.00037516,-0.25143,0.087372,-9.7518,0,0,44.7,1,1,8008,4004
9115,4.7233e+07,0,0.0013165,0.00064,-0.00047618,-0.25154,0.087619,-9.7532,0,0,44.7,1,1,8008,4004
9146,4.7238e+07,0,0.0013909,1.3777e-05,0.00011727,-0.25402,0.084895,-9.7541,0,0,44.7,1,1,8008,4004
9149,4.7241e+07,0,0.0019123,0.00053819,9.421e-05,-0.25263,0.086518,-9.7524,0,0,44.7,1,1,8008,4004
9152,4.7243e+07,0,0.0015466,0.0013546,-0.00021554,-0.25035,0.089372,-9.7519,0,0,44.7,1,1,8008,4004
9183,4.7246e+07,0,-0.00059624,0.0023444,-0.00064383,-0.24779,0.093364,-9.7531,0,0,44.7,1,1,8008,4004
9186,4.7249e+07,0,-0.00056597,0.0025406,-0.00051522,-0.24662,0.094804,-9.7539,0,0,44.7,1,1,8008,4004
9190,4.7251e+07,0,0.00016326,0.0018608,-0.0001368,-0.24535,0.09445,-9.7558,0,0,44.7,1,1,8008,4004
9193,4.7254e+07,0,0.00053291,0.0014661,-0.0003962,-0.24586,0.091683,-9.758,0,0,44.7,1,1,8008,4004
9206,4.7278e+07,0,-0.0033127,0.0023717,0.0016672,-0.25325,0.075021,-9.7428,0,0,44.701,1,1,8008,4004
9209,4.7281e+07,0,-0.0028599,0.0017965,0.00065493,-0.25165,0.076519,-9.7415,0,0,44.7,1,1,8008,4004
9212,4.7283e+07,0,-0.0027888,0.0020553,0.0006445,-0.25055,0.077702,-9.74,0,0,44.7,1,1,8008,4004
9247,4.7286e+07,0,-0.003131,0.0022469,0.0006113,-0.2499,0.078686,-9.7409,0,0,44.7,1,1,8008,4004
9251,4.7288e+07,0,-0.0033176,0.0023438,6.0704e-05,-0.24951,0.079427,-9.744,0,0,44.7,1,1,8008,4004
9255,4.7291e+07,0,-0.0039619,0.0022492,-1.6769e-05,-0.24974,0.080535,-9.7507,0,0,44.7,1,1,8008,4004
9258,4.7293e+07,0,-0.0039403,0.0023771,0.00038914,-0.24991,0.079982,-9.7554,0,0,44.7,1,1,8008,4004
9289,4.7295e+07,0,-0.0043555,0.0028867,0.00016959,-0.24971,0.078006,-9.7598,0,0,44.7,1,1,8008,4004
9292,4.7299e+07,0,-0.0046225,0.002726,-0.00035403,-0.24872,0.077861,-9.7606,0,0,44.7,1,1,8008,4004
9295,4.7301e+07,0,-0.0047115,0.0030886,-0.0013677,-0.24781,0.079927,-9.7596,0,0,44.701,1,1,8008,4004
9298,4.7303e+07,0,-0.0048271,0.0031612,-0.0019344,-0.24722,0.081275,-9.7573,0,0,44.701,1,1,8008,4004
9329,4.7306e+07,0,-0.0047358,0.0026804,-0.0020059,-0.24799,0.083251,-9.7514,0,0,44.701,1,1,8008,4004
9332,4.7308e+07,0,-0.0046023,0.0015318,-0.0016592,-0.24787,0.08528,-9.748,0,0,44.701,1,1,8008,4004
9336,4.7311e+07,0,-0.0049916,7.6659e-05,-0.00027019,-0.2479,0.089713,-9.7464,0,0,44.701,1,1,8008,4004
9339,4.7314e+07,0,-0.0048484,-0.00021435,0.00081834,-0.24681,0.091301,-9.747,0,0,44.701,1,1,8008,4004
9370,4.7316e+07,0,-0.0037307,-0.00028693,0.00089042,-0.24377,0.093462,-9.7481,0,0,44.701,1,1,8008,4004
9373,4.7318e+07,0,-0.003289,0.00015536,0.00015658,-0.24153,0.094685,-9.7472,0,0,44.701,1,1,8008,4004
9376,4.7321e+07,0,-0.003326,0.0007535,-0.00071986,-0.23832,0.095786,-9.7478,0,0,44.701,1,1,8008,4004
9379,4.7324e+07,0,-0.0030361,0.0013688,-0.0012522,-0.23663,0.095204,-9.7494,0,0,44.701,1,1,8008,4004
9382,4.7327e+07,0,-0.0023563,0.0022367,-0.0010701,-0.23573,0.093804,-9.7515,0,0,44.702,1,1,8008,4004
9385,4.7328e+07,0,-0.0026592,0.0019801,-0.0006182,-0.23611,0.092656,-9.7543,0,0,44.702,1,1,8008,4004
9416,4.733e+07,0,-0.0042362,0.0015347,-0.00020963,-0.23703,0.092817,-9.7589,0,0,44.702,1,1,8008,4004
9420,4.7333e+07,0,-0.0046375,0.0010932,-0.00029607,-0.23726,0.093911,-9.7619,0,0,44.702,1,1,8008,4004
9423,4.7336e+07,0,-0.0044996,0.00087413,-0.00079721,-0.23598,0.094396,-9.7686,0,0,44.702,1,1,8008,4004
9426,4.7339e+07,0,-0.0039631,0.00069962,-0.0012828,-0.23498,0.094473,-9.7735,0,0,44.702,1,1,8008,4004
9457,4.7341e+07,0,-0.0036031,0.00028152,-0.0023631,-0.23505,0.094518,-9.7781,0,0,44.702,1,1,8008,4004
9461,4.7344e+07,0,-0.0030636,0.00095709,-0.0016893,-0.23685,0.09385,-9.7751,0,0,44.703,1,1,8008,4004
9464,4.7346e+07,0,-0.0027135,0.0012015,-0.0011002,-0.23705,0.094206,-9.7697,0,0,44.703,1,1,8008,4004
9468,4.7349e+07,0,-0.0018575,0.0016094,-0.00077049,-0.23637,0.096308,-9.7605,0,0,44.703,1,1,8008,4004
9499,4.7351e+07,0,-0.0022114,0.0013689,-0.00079847,-0.23505,0.097691,-9.756,0,0,44.703,1,1,8008,4004
9502,4.7354e+07,0,-0.0020028,-7.3446e-05,-0.0011146,-0.2344,0.099641,-9.7497,0,0,44.703,1,1,8008,4004
9505,4.7356e+07,0,-0.0012086,-0.00053698,-0.00076327,-0.23465,0.10089,-9.7457,0,0,44.703,1,1,8008,4004
9508,4.7358e+07,0,-0.00063494,-5.9849e-05,-0.00013392,-0.23594,0.10349,-9.7453,0,0,44.703,1,1,8008,4004
9539,4.7362e+07,0,-0.00065502,-4.8835e-05,0.00026717,-0.23662,0.10417,-9.7474,0,0,44.703,1,1,8008,4004
9543,4.7364e+07,0,-0.0017386,-0.00045562,0.00031082,-0.23835,0.10384,-9.7492,0,0,44.703,1,1,8008,4004
9546,4.7366e+07,0,-0.002088,-0.00052115,0.00029548,-0.24064,0.10258,-9.751,0,0,44.703,1,1,8008,4004
9549,4.7368e+07,0,-0.0011929,-5.9526e-05,-0.00022778,-0.24459,0.10123,-9.7518,0,0,44.703,1,1,8008,4004
9580,4.7371e+07,0,-0.00034596,0.00076662,-0.00043771,-0.24622,0.10064,-9.7522,0,0,44.703,1,1,8008,4004
9583,4.7374e+07,0,0.0013018,0.0015396,-0.0011227,-0.24733,0.099351,-9.7546,0,0,44.704,1,1,8008,4004
9586,4.7376e+07,0,0.0017249,0.0018729,-0.0021252,-0.24554,0.097868,-9.7572,0,0,44.704,1,1,8008,4004
9589,4.7379e+07,0,0.0015232,0.00079093,-0.0021282,-0.24114,0.096345,-9.7565,0,0,44.704,1,1,8008,4004
9620,4.7381e+07,0,0.0012701,0.00011254,-0.0013771,-0.23982,0.096376,-9.7528,0,0,44.704,1,1,8008,4004
9624,4.7384e+07,0,0.0005577,0.00018326,-0.00058488,-0.23914,0.097811,-9.7484,0,0,44.704,1,1,8008,4004
9631,4.7387e+07,0,-0.00023013,0.0005315,0.00015269,-0.2401,0.099044,-9.7485,0,0,44.704,1,1,8008,4004
9634,4.7388e+07,0,-0.00068949,0.0020583,0.0001688,-0.24006,0.098584,-9.7522,0,0,44.704,1,1,8008,4004
9665,4.7391e+07,0,-0.00078713,0.002552,-8.0572e-05,-0.23978,0.09618,-9.7559,0,0,44.704,1,1,8008,4004
9668,4.7394e+07,0,2.7313e-05,0.0024351,0.00021194,-0.23834,0.093289,-9.7586,0,0,44.704,1,1,8008,4004
9673,4.7396e+07,0,0.00065793,0.002152,0.00079296,-0.23805,0.091859,-9.7594,0,0,44.704,1,1,8008,4004
9676,4.7399e+07,0,0.0012085,0.0014814,0.00099793,-0.23899,0.090835,-9.7591,0,0,44.705,1,1,8008,4004
9709,4.7402e+07,0,0.0008824,0.00076478,0.00093323,-0.24026,0.090377,-9.7572,0,0,44.705,1,1,8008,4004
9713,4.7404e+07,0,0.0004283,0.00082591,0.00053981,-0.24093,0.089301,-9.7549,0,0,44.705,1,1,8008,4004
9716,4.7407e+07,0,0.00017877,0.0020745,-0.0004786,-0.24057,0.087256,-9.7519,0,0,44.705,1,1,8008,4004
9719,4.7409e+07,0,-0.00025798,0.0023878,-0.0016257,-0.24007,0.085754,-9.7503,0,0,44.705,1,1,8008,4004
9750,4.7412e+07,0,-0.0013925,0.0019628,-0.0019239,-0.2405,0.082447,-9.7507,0,0,44.705,1,1,8008,4004
9754,4.7417e+07,0,-0.0013169,0.0022628,-0.0016689,-0.2409,0.077666,-9.7542,0,0,44.705,1,1,8008,4004
9757,4.7419e+07,0,-0.00092399,0.0018623,-0.0011935,-0.24099,0.077471,-9.7554,0,0,44.705,1,1,8008,4004
9788,4.7422e+07,0,-0.00083655,0.0017772,-0.00062911,-0.24148,0.076907,-9.7571,0,0,44.705,1,1,8008,4004
9791,4.7426e+07,0,-0.0010437,0.0019179,-0.00026412,-0.24252,0.077103,-9.7555,0,0,44.705,1,1,8008,4004
9794,4.7427e+07,0,-0.001318,0.0026068,-0.00010165,-0.24579,0.078236,-9.748,0,0,44.706,1,1,8008,4004
9797,4.7429e+07,0,-0.0010378,0.0029765,-8.9811e-05,-0.24819,0.078903,-9.7422,0,0,44.706,1,1,8008,4004
9828,4.7432e+07,0,-0.00063306,0.0019342,-0.00013368,-0.25046,0.080759,-9.7363,0,0,44.706,1,1,8008,4004
9832,4.7434e+07,0,-0.00046006,0.0021576,-1.8527e-05,-0.25173,0.081592,-9.7349,0,0,44.706,1,1,8008,4004
9835,4.7437e+07,0,-0.00014556,0.0025886,0.00054531,-0.25199,0.083117,-9.7355,0,0,44.706,1,1,8008,4004
9838,4.7441e+07,0,-0.0011639,0.0026349,0.00065272,-0.25092,0.083972,-9.735,0,0,44.706,1,1,8008,4004
9841,4.7442e+07,0,-0.0031493,0.0016065,0.00071293,-0.24919,0.084449,-9.7351,0,0,44.706,1,1,8008,4004
9872,4.7444e+07,0,-0.0042426,-0.00034234,0.0013677,-0.24694,0.085079,-9.7364,0,0,44.706,1,1,8008,4004
9875,4.7447e+07,0,-0.0043565,-0.0012849,0.0011245,-0.24492,0.086349,-9.7387,0,0,44.706,1,1,8008,4004
9879,4.745e+07,0,-0.0036155,-0.0019141,0.001228,-0.24308,0.089052,-9.7424,0,0,44.706,1,1,8008,4004
9882,4.7452e+07,0,-0.003654,-0.0017167,0.0016532,-0.23781,0.092414,-9.748,0,0,44.707,1,1,8008,4004
9913,4.7455e+07,0,-0.0042189,-0.00047087,0.001297,-0.23172,0.09387,-9.7511,0,0,44.707,1,1,8008,4004
9917,4.7457e+07,0,-0.0037703,0.00073136,0.00074794,-0.23024,0.094571,-9.7511,0,0,44.707,1,1,8008,4004
9920,4.746e+07,0,-0.0031108,0.0015423,0.0001678,-0.23216,0.095347,-9.7492,0,0,44.707,1,1,8008,4004
9923,4.7462e+07,0,-0.002425,0.0014432,0.00036522,-0.23473,0.095641,-9.7479,0,0,44.707,1,1,8008,4004
9954,4.7465e+07,0,-0.0029082,0.00074185,0.00099704,-0.23867,0.094518,-9.7455,0,0,44.707,1,1,8008,4004
9958,4.7467e+07,0,-0.0036199,-2.565e-05,0.001652,-0.24197,0.093943,-9.7425,0,0,44.707,1,1,8008,4004
9961,4.747e+07,0,-0.0035853,0.00018697,0.0024462,-0.24503,0.091955,-9.7411,0,0,44.707,1,1,8008,4004
9964,4.7473e+07,0,-0.003317,0.001093,0.0022022,-0.24523,0.090431,-9.743,0,0,44.708,1,1,8008,4004
9995,4.7475e+07,0,-0.0020754,0.0018457,0.0008063,-0.24608,0.088519,-9.7478,0,0,44.708,1,1,8008,4004
9998,4.7477e+07,0,-0.001639,0.002457,-0.00029428,-0.24801,0.087352,-9.7512,0,0,44.708,1,1,8008,4004
10001,4.748e+07,0,-0.0019601,0.0032766,-0.0013483,-0.24991,0.086576,-9.7522,0,0,44.708,1,1,8008,4004
10004,4.7482e+07,0,-0.0020264,0.0026596,-0.0016958,-0.25147,0.086636,-9.7524,0,0,44.708,1,1,8008,4004
10035,4.7485e+07,0,-0.0017731,0.0024698,-0.0013244,-0.25289,0.087901,-9.7553,0,0,44.708,1,1,8008,4004
10043,4.7488e+07,0,-0.0019698,0.0028175,-0.0014932,-0.25206,0.089451,-9.7567,0,0,44.708,1,1,8008,4004
10046,4.749e+07,0,-0.0030131,0.0021943,-0.001683,-0.25177,0.091888,-9.7554,0,0,44.709,1,1,8008,4004
10049,4.7492e+07,0,-0.0039142,0.0021541,-0.0013686,-0.25306,0.093115,-9.7529,0,0,44.709,1,1,8008,4004
10080,4.7495e+07,0,-0.0035741,0.0018657,-0.00072658,-0.254,0.094108,-9.7503,0,0,44.709,1,1,8008,4004
10083,4.7498e+07,0,-0.0024168,0.0020339,7.2543e-05,-0.25313,0.094707,-9.748,0,0,44.709,1,1,8008,4004
10087,4.7501e+07,0,-0.0012869,0.0026754,-0.00035325,-0.25039,0.097447,-9.7454,0,0,44.709,1,1,8008,4004
10090,4.7503e+07,0,-0.00057214,0.0024654,-0.0013168,-0.24838,0.09702,-9.7439,0,0,44.709,1,1,8008,4004
10121,4.7505e+07,0,-0.00058957,0.0026165,-0.0020927,-0.24534,0.096428,-9.7412,0,0,44.709,1,1,8008,4004
10125,4.7507e+07,0,-0.00086356,0.0029716,-0.0026326,-0.24362,0.097655,-9.7398,0,0,44.709,1,1,8008,4004
10128,4.751e+07,0,-0.00076428,0.003064,-0.0034368,-0.24189,0.098982,-9.7377,0,0,44.709,1,1,8008,4004
10132,4.7513e+07,0,-0.00048436,0.0025721,-0.0033218,-0.2422,0.098787,-9.7384,0,0,44.71,1,1,8008,4004
10163,4.7515e+07,0,0.00037031,0.001836,-0.0027912,-0.24351,0.09843,-9.741,0,0,44.71,1,1,8008,4004
10166,4.7518e+07,0,0.00053243,0.0014831,-0.0033319,-0.24369,0.098626,-9.7422,0,0,44.71,1,1,8008,4004
10169,4.752e+07,0,-0.00036741,0.0023706,-0.0044373,-0.24427,0.096528,-9.7442,0,0,44.71,1,1,8008,4004
10172,4.7522e+07,0,-0.00095037,0.0032491,-0.0039203,-0.24606,0.09495,-9.7463,0,0,44.71,1,1,8008,4004
10203,4.7526e+07,0,0.00010582,0.0029812,-0.0029164,-0.24891,0.094726,-9.7495,0,0,44.71,1,1,8008,4004
10207,4.7528e+07,0,0.0015344,0.0028313,-0.0016097,-0.25101,0.095786,-9.7519,0,0,44.709,1,1,8008,4004
10210,4.753e+07,0,0.0015244,0.0025409,-0.00083849,-0.25373,0.09621,-9.7511,0,0,44.709,1,1,8008,4004
10213,4.7532e+07,0,0.00062714,0.0022541,-0.00055099,-0.25636,0.095805,-9.7494,0,0,44.709,1,1,8008,4004
10246,4.7535e+07,0,-5.8621e-05,0.0018722,-0.00084666,-0.25971,0.096538,-9.7439,0,0,44.709,1,1,8008,4004
10250,4.7538e+07,0,3.1925e-05,0.002404,-0.0014252,-0.26028,0.097086,-9.7393,0,0,44.709,1,1,8008,4004
10253,4.754e+07,0,0.0008489,0.0025005,-0.0015855,-0.25849,0.095739,-9.7373,0,0,44.709,1,1,8008,4004
10256,4.7542e+07,0,0.0015903,0.0025905,-0.0012104,-0.25623,0.094866,-9.7386,0,0,44.709,1,1,8008,4004
10287,4.7545e+07,0,0.00078549,0.0021985,-0.0013787,-0.25193,0.094806,-9.7432,0,0,44.709,1,1,8008,4004
10291,4.7547e+07,0,0.00041576,0.0024843,-0.00074867,-0.24957,0.095815,-9.7453,0,0,44.709,1,1,8008,4004
10294,4.755e+07,0,0.00049564,0.0032855,-0.00011498,-0.24652,0.095804,-9.7475,0,0,44.71,1,1,8008,4004
10297,4.7553e+07,0,0.00035785,0.0035517,7.9238e-05,-0.24455,0.095286,-9.7495,0,0,44.71,1,1,8008,4004
10328,4.7556e+07,0,0.00011271,0.0031051,0.0002729,-0.24239,0.095267,-9.7509,0,0,44.71,1,1,8008,4004
10332,4.7557e+07,0,7.5998e-06,0.002508,-2.1885e-05,-0.24186,0.094482,-9.7515,0,0,44.71,1,1,8008,4004
10336,4.756e+07,0,0.00010767,0.0025579,-0.00052887,-0.24155,0.09257,-9.7531,0,0,44.71,1,1,8008,4004
10339,4.7563e+07,0,2.2494e-05,0.0025949,-0.00038788,-0.24088,0.091504,-9.7543,0,0,44.71,1,1,8008,4004
10370,4.7565e+07,0,0.00061695,0.0028756,0.00064229,-0.24051,0.090854,-9.7552,0,0,44.71,1,1,8008,4004
10373,4.7567e+07,0,0.00092121,0.002398,0.00074993,-0.24012,0.088233,-9.7556,0,0,44.71,1,1,8008,4004
10376,4.757e+07,0,0.00010987,0.0011742,0.00056215,-0.24017,0.083739,-9.7532,0,0,44.711,1,1,8008,4004
10379,4.7572e+07,0,-0.00038016,0.00085229,0.0010081,-0.23992,0.081566,-9.7512,0,0,44.711,1,1,8008,4004
10410,4.7575e+07,0,-0.0013316,0.00062591,0.00076898,-0.23805,0.079088,-9.7497,0,0,44.711,1,1,8008,4004
10414,4.7577e+07,0,-0.0012513,0.00017105,1.1495e-05,-0.23769,0.078464,-9.7491,0,0,44.711,1,1,8008,4004
10417,4.758e+07,0,-0.00057834,-0.00029973,-9.3659e-05,-0.23677,0.078379,-9.7495,0,0,44.711,1,1,8008,4004
10420,4.7582e+07,0,-0.00016113,6.2364e-05,0.0003695,-0.23693,0.079432,-9.7512,0,0,44.711,1,1,8008,4004
10451,4.7585e+07,0,-0.0004613,0.00058637,0.0012319,-0.23892,0.081561,-9.7535,0,0,44.711,1,1,8008,4004
10458,4.7588e+07,0,-0.00054279,0.00042973,0.0016999,-0.24082,0.083303,-9.7548,0,0,44.712,1,1,8008,4004
10461,4.759e+07,0,-0.00056955,0.00077487,0.0014717,-0.24417,0.085031,-9.7565,0,0,44.712,1,1,8008,4004
10464,4.7592e+07,0,-0.00076215,0.0014611,0.0010691,-0.24587,0.085712,-9.7583,0,0,44.712,1,1,8008,4004
10495,4.7595e+07,0,-0.0017956,0.0014221,0.0022362,-0.24691,0.085476,-9.7611,0,0,44.712,1,1,8008,4004
10499,4.7597e+07,0,-0.002306,0.0013964,0.0026364,-0.24698,0.086283,-9.7643,0,0,44.712,1,1,8008,4004
10502,4.76e+07,0,-0.001766,0.0014625,0.001815,-0.24699,0.087648,-9.7663,0,0,44.712,1,1,8008,4004
10507,4.7603e+07,0,-0.0016759,0.0013592,0.0015326,-0.2474,0.087221,-9.7641,0,0,44.712,1,1,8008,4004
10538,4.7605e+07,0,-0.0024208,0.001484,0.00010925,-0.24731,0.085482,-9.7588,0,0,44.712,1,1,8008,4004
10542,4.7607e+07,0,-0.0024221,0.0013238,-0.0002395,-0.24743,0.084005,-9.7559,0,0,44.712,1,1,8008,4004
10547,4.7613e+07,0,-0.0011005,0.00064621,0.00055633,-0.24659,0.083558,-9.7502,0,0,44.713,1,1,8008,4004
10578,4.7615e+07,0,-0.0019096,0.00058184,0.0014841,-0.2463,0.083815,-9.7492,0,0,44.713,1,1,8008,4004
10581,4.7617e+07,0,-0.0031177,0.0012762,0.0018255,-0.24587,0.08443,-9.7498,0,0,44.713,1,1,8008,4004
10584,4.762e+07,0,-0.0029158,0.001303,0.0010096,-0.24566,0.085823,-9.7495,0,0,44.713,1,1,8008,4004
10587,4.7623e+07,0,-0.0024038,0.00077212,0.00064415,-0.24597,0.087135,-9.7483,0,0,44.713,1,1,8008,4004
10618,4.7626e+07,0,-0.0025944,0.0002071,0.0011573,-0.2461,0.088341,-9.7474,0,0,44.713,1,1,8008,4004
10622,4.7628e+07,0,-0.0026982,-0.00013918,0.0010558,-0.24501,0.089207,-9.7472,0,0,44.713,1,1,8008,4004
10625,4.763e+07,0,-0.0028785,1.289e-05,0.00099812,-0.24313,0.090018,-9.7484,0,0,44.713,1,1,8008,4004
10628,4.7634e+07,0,-0.0038128,1.0311e-05,0.00030895,-0.23908,0.089668,-9.7511,0,0,44.713,1,1,8008,4004
10631,4.7635e+07,0,-0.0038421,-9.6203e-05,-1.5633e-05,-0.23761,0.087908,-9.753,0,0,44.713,1,1,8008,4004
10662,4.7638e+07,0,-0.0031127,0.00087112,-0.00032786,-0.2396,0.086321,-9.7548,0,0,44.713,1,1,8008,4004
10665,4.764e+07,0,-0.0029828,0.00064048,-0.00053562,-0.24067,0.085676,-9.7548,0,0,44.713,1,1,8008,4004
10668,4.7643e+07,0,-0.0029847,-0.0003596,-0.0012453,-0.24086,0.086371,-9.7536,0,0,44.713,1,1,8008,4004
10671,4.7646e+07,0,-0.0034912,7.2798e-05,-0.0013475,-0.24178,0.087635,-9.7532,0,0,44.713,1,1,8008,4004
10702,4.7648e+07,0,-0.0026754,0.0012221,-0.00074858,-0.24414,0.089347,-9.7541,0,0,44.713,1,1,8008,4004
10706,4.7651e+07,0,-0.0023976,0.0015454,-0.00032946,-0.2471,0.089446,-9.7545,0,0,44.712,1,1,8008,4004
10709,4.7653e+07,0,-0.0019105,0.00094393,-2.9379e-05,-0.24983,0.08945,-9.7566,0,0,44.712,1,1,8008,4004
10712,4.7655e+07,0,-0.00177,0.00056477,-0.0002746,-0.25102,0.090472,-9.7592,0,0,44.712,1,1,8008,4004
10743,4.7658e+07,0,-0.0021348,0.0012325,-7.6655e-05,-0.25064,0.091856,-9.7587,0,0,44.712,1,1,8008,4004
10746,4.766e+07,0,-0.0015128,0.0019686,-0.00067468,-0.2498,0.092774,-9.7567,0,0,44.712,1,1,8008,4004
10749,4.7663e+07,0,-0.0013027,0.0019019,-0.0016494,-0.2478,0.095591,-9.7567,0,0,44.712,1,1,8008,4004
10753,4.7665e+07,0,-0.00093583,0.0015257,-0.0012435,-0.2463,0.098829,-9.7585,0,0,44.712,1,1,8008,4004
10784,4.7667e+07,0,-0.0008566,0.00096011,-0.0017883,-0.24626,0.10466,-9.7623,0,0,44.712,1,1,8008,4004
10787,4.7671e+07,0,-0.00072338,0.00032644,-0.0019924,-0.246,0.10861,-9.764,0,0,44.712,1,1,8008,4004
10790,4.7673e+07,0,-0.0010799,-0.00042931,-0.0022023,-0.24513,0.10802,-9.763,0,0,44.712,1,1,8008,4004
10793,4.7676e+07,0,-0.0019289,-0.00056024,-0.0014511,-0.24553,0.10495,-9.7604,0,0,44.712,1,1,8008,4004
10824,4.7678e+07,0,-0.0024866,-0.00087221,-0.0007975,-0.24784,0.10241,-9.7582,0,0,44.712,1,1,8008,4004
10828,4.768e+07,0,-0.0023765,-0.00068743,-0.00067851,-0.24893,0.10196,-9.7569,0,0,44.712,1,1,8008,4004
10831,4.7683e+07,0,-0.0016997,0.00069911,-0.00078461,-0.24996,0.10103,-9.7551,0,0,44.712,1,1,8008,4004
10834,4.7685e+07,0,-0.0013512,0.001968,-0.0013774,-0.25032,0.10009,-9.7542,0,0,44.712,1,1,8008,4004
10869,4.7688e+07,0,-0.0011255,0.0018511,-0.0019064,-0.25152,0.098753,-9.7522,0,0,44.712,1,1,8008,4004
10872,4.769e+07,0,-0.0010798,0.001314,-0.0015721,-0.25348,0.098475,-9.7515,0,0,44.712,1,1,8008,4004
10875,4.7693e+07,0,-7.132e-05,0.0011162,-0.00066936,-0.25776,0.098362,-9.7505,0,0,44.712,1,1,8008,4004
10878,4.7696e+07,0,0.0014805,0.00046829,-0.00087073,-0.25945,0.097934,-9.7496,0,0,44.712,1,1,8008,4004
10909,4.7698e+07,0,0.0015857,-0.00011575,-0.00052863,-0.25994,0.094563,-9.7504,0,0,44.712,1,1,8008,4004
10913,4.7701e+07,0,0.0011354,-0.00056643,-0.00010202,-0.25833,0.090365,-9.7498,0,0,44.712,1,1,8008,4004
10916,4.7703e+07,0,0.00084101,-0.00061094,0.00031519,-0.257,0.087132,-9.7476,0,0,44.712,1,1,8008,4004
10919,4.7706e+07,0,0.00062906,-0.00040994,0.00059271,-0.25522,0.080672,-9.7439,0,0,44.712,1,1,8008,4004
10950,4.7708e+07,0,0.00090497,0.00048167,0.0002463,-0.25296,0.078005,-9.7428,0,0,44.712,1,1,8008,4004
10953,4.7711e+07,0,0.0017315,0.0015657,0.00072616,-0.24884,0.076637,-9.7438,0,0,44.712,1,1,8008,4004
10956,4.7714e+07,0,0.0012041,0.00096578,0.00094221,-0.24513,0.075374,-9.7428,0,0,44.712,1,1,8008,4004
10959,4.7715e+07,0,0.00051895,0.00026627,0.0013004,-0.24065,0.075885,-9.7409,0,0,44.712,1,1,8008,4004
10990,4.7718e+07,0,0.00058554,0.00040645,0.0016359,-0.2391,0.077778,-9.7419,0,0,44.712,1,1,8008,4004
10995,4.7721e+07,0,0.00050275,0.00096555,0.0018853,-0.23721,0.081881,-9.7444,0,0,44.712,1,1,8008,4004
10998,4.7723e+07,0,0.00035239,0.0012891,0.0013389,-0.23567,0.083756,-9.7462,0,0,44.712,1,1,8008,4004
11002,4.7727e+07,0,0.00042337,0.0012142,0.00077571,-0.23465,0.085306,-9.7472,0,0,44.712,1,1,8008,4004
11005,4.7728e+07,0,0.00080832,0.0014193,0.00065927,-0.2356,0.086297,-9.7479,0,0,44.712,1,1,8008,4004
11037,4.7732e+07,0,0.00086156,0.0028733,-0.00016032,-0.23871,0.088022,-9.7482,0,0,44.712,1,1,8008,4004
11040,4.7733e+07,0,0.00061507,0.0031725,-0.00025957,-0.24068,0.089344,-9.7503,0,0,44.712,1,1,8008,4004
11043,4.7736e+07,0,0.00079465,0.002978,0.00061039,-0.24399,0.09071,-9.7551,0,0,44.712,1,1,8008,4004
11046,4.7739e+07,0,0.00082181,0.0026774,0.0014465,-0.24658,0.091164,-9.758,0,0,44.712,1,1,8008,4004
11049,4.7741e+07,0,0.00070989,0.0027031,0.0010337,-0.25008,0.091366,-9.7615,0,0,44.712,1,1,8008,4004
11080,4.7743e+07,0,0.00062793,0.0030033,0.00080865,-0.25317,0.090585,-9.7596,0,0,44.712,1,1,8008,4004
11083,4.7746e+07,0,0.00022897,0.0039582,0.00061574,-0.25684,0.088314,-9.7558,0,0,44.712,1,1,8008,4004
11086,4.7748e+07,0,-0.00037765,0.0039108,-0.00016888,-0.25746,0.086633,-9.7556,0,0,44.712,1,1,8008,4004
11090,4.7751e+07,0,-0.0015399,0.0027005,-0.00026447,-0.256,0.083714,-9.7563,0,0,44.712,1,1,8008,4004
11093,4.7753e+07,0,-0.0017611,0.0024499,3.1984e-05,-0.25451,0.082305,-9.7573,0,0,44.712,1,1,8008,4004
11124,4.7756e+07,0,-0.00096019,0.0018883,0.00046766,-0.2525,0.082086,-9.7603,0,0,44.712,1,1,8008,4004
11127,4.7758e+07,0,-0.00091344,0.0021925,0.00040364,-0.25177,0.081917,-9.7625,0,0,44.712,1,1,8008,4004
11130,4.7761e+07,0,-0.0019654,0.0026839,0.0010064,-0.24967,0.083222,-9.7663,0,0,44.712,1,1,8008,4004
11133,4.7764e+07,0,-0.0027716,0.0029311,0.0014975,-0.24767,0.086571,-9.7686,0,0,44.712,1,1,8008,4004
11164,4.7766e+07,0,-0.0022016,0.0022935,0.00095416,-0.2441,0.09296,-9.7693,0,0,44.712,1,1,8008,4004
11167,4.7769e+07,0,-0.001029,0.0014101,0.00042547,-0.2427,0.095203,-9.7656,0,0,44.712,1,1,8008,4004
11171,4.7771e+07,0,-0.00068749,0.00071218,0.00030956,-0.2433,0.095397,-9.7633,0,0,44.712,1,1,8008,4004
11174,4.7774e+07,0,-0.0012209,3.1199e-05,0.00030918,-0.24556,0.095611,-9.7615,0,0,44.712,1,1,8008,4004
11205,4.7776e+07,0,-0.002298,-0.00012605,0.00025896,-0.24604,0.095958,-9.7603,0,0,44.712,1,1,8008,4004
11209,4.7778e+07,0,-0.0034541,0.0011559,3.8444e-05,-0.24561,0.096851,-9.7574,0,0,44.712,1,1,8008,4004
11212,4.7781e+07,0,-0.0036921,0.0022336,-0.00021547,-0.24504,0.09774,-9.7577,0,0,44.712,1,1,8008,4004
11215,4.7784e+07,0,-0.0027565,0.003852,-4.458e-05,-0.24138,0.099065,-9.7596,0,0,44.712,1,1,8008,4004
11246,4.7786e+07,0,-0.0024687,0.0038614,0.00030676,-0.23878,0.099381,-9.7609,0,0,44.712,1,1,8008,4004
11253,4.7789e+07,0,-0.0029868,0.0035354,0.00094633,-0.23539,0.096998,-9.7625,0,0,44.712,1,1,8008,4004
11257,4.7791e+07,0,-0.0042161,0.0031805,0.0013739,-0.23384,0.09508,-9.7626,0,0,44.712,1,1,8008,4004
11260,4.7794e+07,0,-0.0049118,0.0024889,0.0022239,-0.23316,0.092581,-9.7612,0,0,44.712,1,1,8008,4004
11291,4.7796e+07,0,-0.003528,0.001247,0.0019385,-0.23237,0.090191,-9.7608,0,0,44.712,1,1,8008,4004
11294,4.7799e+07,0,-0.0024596,0.0002588,0.0010531,-0.23236,0.089352,-9.7598,0,0,44.712,1,1,8008,4004
11298,4.7801e+07,0,-0.0023373,0.0008365,0.00089779,-0.23363,0.08996,-9.7603,0,0,44.712,1,1,8008,4004
11303,4.7804e+07,0,-0.0023668,0.0015416,-4.7935e-06,-0.23548,0.09037,-9.7595,0,0,44.712,1,1,8008,4004
11334,4.7807e+07,0,-0.0023086,0.00089865,-0.00053943,-0.23769,0.090111,-9.7575,0,0,44.712,1,1,8008,4004
11337,4.7812e+07,0,-0.0025899,0.0003514,-0.0013514,-0.24051,0.093477,-9.762,0,0,44.712,1,1,8008,4004
11340,4.7814e+07,0,-0.0021613,-0.00025787,-0.00087949,-0.24164,0.093387,-9.7675,0,0,44.712,1,1,8008,4004
11371,4.7817e+07,0,-0.0026398,-0.00033363,0.00018418,-0.2429,0.09209,-9.7688,0,0,44.712,1,1,8008,4004
11374,4.782e+07,0,-0.0040203,0.00010972,0.00051391,-0.2445,0.089032,-9.7721,0,0,44.712,1,1,8008,4004
11377,4.7822e+07,0,-0.0043881,0.00025494,-0.00012364,-0.24555,0.086619,-9.7752,0,0,44.712,1,1,8008,4004
11382,4.7824e+07,0,-0.004439,0.00043431,-0.000998,-0.24689,0.084114,-9.7789,0,0,44.712,1,1,8008,4004
11413,4.7827e+07,0,-0.0045376,0.0012168,-0.00042108,-0.24857,0.084165,-9.7754,0,0,44.712,1,1,8008,4004
11416,4.7829e+07,0,-0.0044571,0.0016777,-0.00022485,-0.24958,0.085605,-9.7706,0,0,44.712,1,1,8008,4004
11419,4.7833e+07,0,-0.0040586,0.0014389,-0.0009886,-0.24956,0.089813,-9.7659,0,0,44.712,1,1,8008,4004
11423,4.7835e+07,0,-0.0031557,0.0008219,-0.001621,-0.24781,0.093796,-9.7663,0,0,44.712,1,1,8008,4004
11454,4.7837e+07,0,-0.0014522,0.00088915,-0.0019146,-0.24371,0.099168,-9.7673,0,0,44.712,1,1,8008,4004
11458,4.784e+07,0,-2.8216e-05,0.0010599,-0.0013948,-0.23933,0.10287,-9.7618,0,0,44.712,1,1,8008,4004
11461,4.7842e+07,0,0.00021755,0.00080441,-0.0011288,-0.23757,0.10438,-9.7566,0,0,44.712,1,1,8008,4004
11464,4.7845e+07,0,0.00050304,-0.00016341,-0.0022459,-0.23711,0.10422,-9.7524,0,0,44.712,1,1,8008,4004
11495,4.7848e+07,0,0.00069533,-0.00029135,-0.0027569,-0.23897,0.1018,-9.7501,0,0,44.712,1,1,8008,4004
11498,4.785e+07,0,0.00098367,0.00014685,-0.0025945,-0.24076,0.099989,-9.7478,0,0,44.712,1,1,8008,4004
11501,4.7853e+07,0,6.1915e-05,0.0011242,-0.0019064,-0.24298,0.095717,-9.7422,0,0,44.712,1,1,8008,4004
11505,4.7855e+07,0,-0.00051119,0.0015117,-0.0019896,-0.24479,0.091627,-9.7376,0,0,44.712,1,1,8008,4004
11536,4.7858e+07,0,-0.0012208,0.00063004,-0.003174,-0.24715,0.085566,-9.7332,0,0,44.712,1,1,8008,4004
11539,4.7861e+07,0,-0.00066978,-0.00028125,-0.0036496,-0.24699,0.083591,-9.7321,0,0,44.712,1,1,8008,4004
11542,4.7863e+07,0,0.00017101,-0.00018405,-0.0025993,-0.24489,0.083737,-9.7305,0,0,44.712,1,1,8008,4004
11546,4.7866e+07,0,0.00051427,0.00083692,-0.0018973,-0.24353,0.084915,-9.7311,0,0,44.712,1,1,8008,4004
11577,4.7869e+07,0,-0.00022471,0.0012381,-0.0014461,-0.2404,0.088027,-9.7373,0,0,44.712,1,1,8008,4004
11580,4.7871e+07,0,-0.00042142,0.0015505,-0.0005855,-0.23752,0.0892,-9.7414,0,0,44.712,1,1,8008,4004
11583,4.7873e+07,0,-0.00095622,0.0020299,-2.6583e-05,-0.23422,0.089752,-9.7438,0,0,44.712,1,1,8008,4004
11587,4.7875e+07,0,-0.0012411,0.0020568,-0.00046727,-0.23357,0.090253,-9.744,0,0,44.712,1,1,8008,4004
11618,4.7877e+07,0,-0.0013953,0.0019697,-0.00085017,-0.23464,0.090477,-9.7454,0,0,44.712,1,1,8008,4004
11621,4.7881e+07,0,-0.001015,0.0021794,-0.00061162,-0.23543,0.090566,-9.7445,0,0,44.712,1,1,8008,4004
11624,4.7883e+07,0,-0.0011881,0.0017787,-0.00054712,-0.23685,0.09103,-9.7415,0,0,44.712,1,1,8008,4004
11627,4.7885e+07,0,-0.0011255,0.0011631,-0.00047532,-0.23823,0.091244,-9.7411,0,0,44.712,1,1,8008,4004
11658,4.7888e+07,0,-0.0004407,0.00064925,-0.00029574,-0.23927,0.090487,-9.7436,0,0,44.712,1,1,8008,4004
11666,4.7891e+07,0,0.00015082,0.00063904,-0.00020283,-0.23986,0.088796,-9.7455,0,0,44.712,1,1,8008,4004
11669,4.7893e+07,0,8.2247e-05,0.0015202,-0.0006391,-0.24097,0.087577,-9.7531,0,0,44.712,1,1,8008,4004
11673,4.7896e+07,0,-0.00078457,0.0012734,-0.00062646,-0.24106,0.088136,-9.757,0,0,44.712,1,1,8008,4004
11704,4.7898e+07,0,-0.00066916,0.0013873,-0.00038617,-0.24199,0.089677,-9.7577,0,0,44.712,1,1,8008,4004
11707,4.7901e+07,0,0.00010132,0.0013105,0.00053058,-0.24626,0.092336,-9.7625,0,0,44.712,1,1,8008,4004
11710,4.7903e+07,0,0.00033481,0.0020001,0.0012429,-0.24959,0.093846,-9.7665,0,0,44.712,1,1,8008,4004
11714,4.7906e+07,0,0.00059693,0.0030589,0.0013941,-0.25477,0.09482,-9.7704,0,0,44.712,1,1,8008,4004
11745,4.7909e+07,0,-0.00053437,0.0024802,0.0015659,-0.26045,0.094466,-9.7707,0,0,44.712,1,1,8008,4004
11748,4.7911e+07,0,-0.0017329,0.0015057,0.0013647,-0.26411,0.093268,-9.7705,0,0,44.712,1,1,8008,4004
11751,4.7914e+07,0,-0.0027988,0.0010874,0.00094246,-0.26762,0.089707,-9.7675,0,0,44.712,1,1,8008,4004
11754,4.7917e+07,0,-0.0029664,0.00081978,0.0012578,-0.26824,0.087121,-9.7649,0,0,44.712,1,1,8008,4004
11785,4.7919e+07,0,-0.0017172,0.0017254,3.0444e-07,-0.2657,0.085292,-9.7622,0,0,44.712,1,1,8008,4004
11788,4.7921e+07,0,-0.001196,0.002036,-0.00047727,-0.26369,0.08375,-9.7599,0,0,44.712,1,1,8008,4004
11791,4.7924e+07,0,-0.00092187,0.0015279,-0.0010215,-0.26123,0.080875,-9.7552,0,0,44.712,1,1,8008,4004
11796,4.7926e+07,0,-0.0013272,0.001766,-0.00032406,-0.25983,0.078948,-9.7509,0,0,44.712,1,1,8008,4004
11827,4.7929e+07,0,-0.001667,0.0020198,0.0011735,-0.25708,0.076894,-9.7482,0,0,44.712,1,1,8008,4004
11830,4.7934e+07,0,-0.00044859,0.0017899,7.63e-06,-0.25348,0.075168,-9.7458,0,0,44.712,1,1,8008,4004
11834,4.7937e+07,0,-0.00020433,0.0019209,-0.00035742,-0.25107,0.074114,-9.7477,0,0,44.713,1,1,8008,4004
11865,4.7939e+07,0,-0.0016115,0.0015082,-0.0004919,-0.2477,0.072162,-9.7495,0,0,44.713,1,1,8008,4004
11869,4.7941e+07,0,-0.0025315,0.0012287,-0.00068746,-0.24563,0.070108,-9.7471,0,0,44.713,1,1,8008,4004
11872,4.7944e+07,0,-0.0024025,0.00049057,0.00016441,-0.24296,0.066066,-9.7448,0,0,44.713,1,1,8008,4004
11876,4.7946e+07,0,-0.0019828,0.00079743,0.0012474,-0.24294,0.06528,-9.7446,0,0,44.713,1,1,8008,4004
11907,4.7949e+07,0,-0.0020291,0.0020837,0.0015168,-0.24207,0.066929,-9.7453,0,0,44.713,1,1,8008,4004
11910,4.7952e+07,0,-0.0025856,0.0023858,0.00094037,-0.24118,0.068622,-9.7474,0,0,44.713,1,1,8008,4004
11913,4.7953e+07,0,-0.0032044,0.0016906,0.00072089,-0.24052,0.071106,-9.7501,0,0,44.713,1,1,8008,4004
11916,4.7956e+07,0,-0.0035234,0.0010063,0.0002227,-0.24155,0.072721,-9.7507,0,0,44.713,1,1,8008,4004
11947,4.7959e+07,0,-0.0028538,0.0007532,-0.00034515,-0.24334,0.075124,-9.751,0,0,44.713,1,1,8008,4004
11950,4.7961e+07,0,-0.0026422,0.00018104,-0.00010261,-0.24432,0.078518,-9.7505,0,0,44.713,1,1,8008,4004
11953,4.7964e+07,0,-0.0031238,-0.00097257,-0.00013904,-0.2474,0.084991,-9.7482,0,0,44.713,1,1,8008,4004
11957,4.7966e+07,0,-0.0026711,-0.0010621,-0.00013262,-0.24931,0.087617,-9.7469,0,0,44.713,1,1,8008,4004
11988,4.7969e+07,0,-0.0011892,-0.00026312,-0.00015191,-0.25051,0.088619,-9.7447,0,0,44.714,1,1,8008,4004
11991,4.7972e+07,0,-0.0011572,-0.00022562,0.00032715,-0.25084,0.090515,-9.7431,0,0,44.714,1,1,8008,4004
11994,4.7974e+07,0,-0.00098411,0.00065486,0.00040205,-0.25095,0.095034,-9.7401,0,0,44.714,1,1,8008,4004
11998,4.7977e+07,0,-0.0010213,0.0011288,-1.5138e-05,-0.25014,0.098212,-9.7394,0,0,44.714,1,1,8008,4004
12029,4.7979e+07,0,-0.00070126,0.0010943,-4.056e-05,-0.24879,0.10231,-9.7418,0,0,44.714,1,1,8008,4004
12032,4.7981e+07,0,-0.00090831,0.0013205,-0.00014174,-0.2478,0.10408,-9.7452,0,0,44.714,1,1,8008,4004
12036,4.7984e+07,0,-0.0015341,3.1517e-05,-0.00081107,-0.24646,0.10616,-9.7516,0,0,44.714,1,1,8008,4004
12039,4.7986e+07,0,-0.0015799,-0.00020163,-0.0015242,-0.2457,0.10596,-9.7547,0,0,44.714,1,1,8008,4004
12070,4.7989e+07,0,-0.0015019,0.0006922,-0.0019114,-0.24439,0.1048,-9.7569,0,0,44.714,1,1,8008,4004
12077,4.7991e+07,0,-0.0010521,0.0005292,-0.0019554,-0.24341,0.10339,-9.7571,0,0,44.714,1,1,8008,4004
12082,4.7994e+07,0,-0.00061421,0.00086523,-0.0016526,-0.24245,0.10036,-9.7563,0,0,44.714,1,1,8008,4004
12086,4.7997e+07,0,-0.0015371,0.0014516,-0.0014786,-0.24254,0.098221,-9.7548,0,0,44.714,1,1,8008,4004
12117,4.7999e+07,0,-0.0027434,0.001294,-0.00095219,-0.24256,0.094824,-9.7534,0,0,44.714,1,1,8008,4004
12120,4.8002e+07,0,-0.0021774,0.0012742,0.00020563,-0.24255,0.094026,-9.7534,0,0,44.714,1,1,8008,4004
12123,4.8004e+07,0,-0.0008378,0.00074774,0.00089603,-0.24262,0.093243,-9.7515,0,0,44.714,1,1,8008,4004
12128,4.8007e+07,0,-0.00045747,0.00083751,0.00067599,-0.2425,0.092368,-9.751,0,0,44.714,1,1,8008,4004
12159,4.8009e+07,0,-0.00039857,0.0017947,-0.0001327,-0.24352,0.091878,-9.7519,0,0,44.714,1,1,8008,4004
12162,4.8012e+07,0,-0.0011246,0.0026082,-0.0012768,-0.24423,0.091446,-9.7514,0,0,44.714,1,1,8008,4004
12165,4.8017e+07,0,-0.00016465,0.0018148,-0.0018039,-0.24596,0.090982,-9.7469,0,0,44.714,1,1,8008,4004
12196,4.8019e+07,0,3.2563e-05,0.000404,-0.00087366,-0.24908,0.09251,-9.7451,0,0,44.714,1,1,8008,4004
12200,4.8022e+07,0,-1.8814e-05,-7.9248e-05,-0.00018734,-0.24909,0.095409,-9.7458,0,0,44.714,1,1,8008,4004
12203,4.8025e+07,0,-8.8264e-06,0.00029768,5.7445e-05,-0.24866,0.098482,-9.7473,0,0,44.714,1,1,8008,4004
12206,4.8027e+07,0,0.0011757,0.0017137,-0.00026712,-0.24693,0.10139,-9.75,0,0,44.714,1,1,8008,4004
12239,4.8029e+07,0,0.00085568,0.0024447,-0.00067535,-0.24441,0.10453,-9.7525,0,0,44.714,1,1,8008,4004
12244,4.8032e+07,0,-0.00023878,0.0023397,-0.00096742,-0.24328,0.10606,-9.7541,0,0,44.714,1,1,8008,4004
12248,4.8036e+07,0,-0.0023344,0.0020473,-0.002118,-0.24102,0.1069,-9.7559,0,0,44.714,1,1,8008,4004
12251,4.8037e+07,0,-0.0026937,0.0022816,-0.0026232,-0.23877,0.10669,-9.7562,0,0,44.714,1,1,8008,4004
12282,4.8041e+07,0,-0.0024954,0.002001,-0.0021655,-0.23504,0.10491,-9.7563,0,0,44.714,1,1,8008,4004
12285,4.8042e+07,0,-0.0017163,0.0019996,-0.0014017,-0.23323,0.10357,-9.7545,0,0,44.714,1,1,8008,4004
12288,4.8044e+07,0,-0.00082252,0.0019191,-0.00064829,-0.23258,0.10056,-9.7533,0,0,44.714,1,1,8008,4004
12291,4.8048e+07,0,-0.0014241,0.0023428,0.00028933,-0.2336,0.098135,-9.7536,0,0,44.714,1,1,8008,4004
12294,4.805e+07,0,-0.0015783,0.0018499,0.00076899,-0.23686,0.095744,-9.7537,0,0,44.715,1,1,8008,4004
12325,4.8052e+07,0,-0.00073431,0.0010425,0.00068048,-0.23927,0.095461,-9.7526,0,0,44.715,1,1,8008,4004
12329,4.8054e+07,0,-0.00053692,0.0012185,-0.00015879,-0.24107,0.095597,-9.7501,0,0,44.715,1,1,8008,4004
12332,4.8057e+07,0,-0.00079406,0.0015158,-0.00061981,-0.24265,0.096934,-9.7486,0,0,44.715,1,1,8008,4004
12335,4.806e+07,0,-0.00056078,0.00087678,-0.00092238,-0.24523,0.097742,-9.7489,0,0,44.715,1,1,8008,4004
12366,4.8062e+07,0,0.0006927,0.00026972,-8.1987e-05,-0.24868,0.096241,-9.7505,0,0,44.715,1,1,8008,4004
12369,4.8065e+07,0,0.00081268,-0.00023846,-0.00058648,-0.25193,0.095609,-9.7507,0,0,44.715,1,1,8008,4004
12372,4.8068e+07,0,-1.8464e-05,-0.0005743,-0.00086535,-0.25633,0.094816,-9.7518,0,0,44.715,1,1,8008,4004
12375,4.807e+07,0,-0.00091827,6.7124e-05,-0.0011053,-0.25714,0.093184,-9.752,0,0,44.715,1,1,8008,4004
12406,4.8073e+07,0,-0.0020797,0.00031092,-0.00094239,-0.25822,0.091591,-9.7494,0,0,44.715,1,1,8008,4004
12410,4.8075e+07,0,-0.0019695,0.00053625,-0.00073697,-0.25872,0.091313,-9.748,0,0,44.715,1,1,8008,4004
12413,4.8077e+07,0,-0.0016462,-0.00020499,-0.00011451,-0.2584,0.090898,-9.7468,0,0,44.715,1,1,8008,4004
12416,4.8081e+07,0,-0.0016727,-0.00018336,3.479e-05,-0.25754,0.090368,-9.7462,0,0,44.715,1,1,8008,4004
12447,4.8083e+07,0,-0.0016769,0.0010426,0.0012072,-0.2558,0.090055,-9.7447,0,0,44.715,1,1,8008,4004
12451,4.8086e+07,0,-0.0017924,0.0020789,0.0023237,-0.25538,0.09028,-9.7454,0,0,44.716,1,1,8008,4004
12454,4.8088e+07,0,-0.00098176,0.0020256,0.0021703,-0.25504,0.090065,-9.747,0,0,44.716,1,1,8008,4004
12457,4.809e+07,0,7.8386e-05,0.0014341,0.0019139,-0.25306,0.086691,-9.7486,0,0,44.716,1,1,8008,4004
12492,4.8094e+07,0,-9.1732e-05,0.0012321,0.0015884,-0.25214,0.08482,-9.752,0,0,44.716,1,1,8008,4004
12495,4.8096e+07,0,-0.0011555,-0.00013079,0.0017608,-0.2515,0.080964,-9.7573,0,0,44.716,1,1,8008,4004
12498,4.8098e+07,0,-0.0014304,-0.00073857,0.0015712,-0.25059,0.078939,-9.7622,0,0,44.716,1,1,8008,4004
12501,4.81e+07,0,-0.0016279,-0.00087589,0.0012934,-0.24905,0.077857,-9.7685,0,0,44.716,1,1,8008,4004
12532,4.8103e+07,0,-0.0016959,-0.0006329,0.00097461,-0.24805,0.079189,-9.7715,0,0,44.716,1,1,8008,4004
12536,4.8106e+07,0,-0.0018909,-0.00041107,0.00095621,-0.24758,0.080327,-9.7734,0,0,44.716,1,1,8008,4004
12539,4.8108e+07,0,-0.0019794,0.00022388,0.00099787,-0.24786,0.08027,-9.7736,0,0,44.717,1,1,8008,4004
12542,4.8111e+07,0,-0.0024337,0.00065746,-0.00021172,-0.2488,0.080808,-9.7725,0,0,44.717,1,1,8008,4004
12573,4.8113e+07,0,-0.0029368,0.00069614,-0.00011674,-0.24978,0.0807,-9.7707,0,0,44.717,1,1,8008,4004
12576,4.8115e+07,0,-0.0038892,0.0019196,0.00074885,-0.24947,0.079693,-9.7668,0,0,44.717,1,1,8008,4004
12580,4.8118e+07,0,-0.004252,0.0023464,0.00019281,-0.24906,0.079025,-9.7647,0,0,44.717,1,1,8008,4004
12583,4.8121e+07,0,-0.0035731,0.0026393,-0.00032752,-0.24899,0.078094,-9.7599,0,0,44.717,1,1,8008,4004
12614,4.8124e+07,0,-0.0033243,0.0027592,-0.00078322,-0.2491,0.078734,-9.7567,0,0,44.717,1,1,8008,4004
12618,4.8125e+07,0,-0.0031522,0.0017847,-0.0015817,-0.24823,0.080528,-9.7527,0,0,44.717,1,1,8008,4004
12621,4.8128e+07,0,-0.0028552,0.0018235,-0.0017711,-0.2466,0.081679,-9.748,0,0,44.717,1,1,8008,4004
12624,4.8131e+07,0,-0.0028865,0.0024742,-0.0014917,-0.24388,0.08099,-9.7416,0,0,44.718,1,1,8008,4004
12655,4.8133e+07,0,-0.0034348,0.0024258,-0.00053074,-0.24222,0.079744,-9.7403,0,0,44.718,1,1,8008,4004
12658,4.8138e+07,0,-0.0025395,0.0035172,-6.8148e-05,-0.24205,0.07698,-9.7443,0,0,44.718,1,1,8008,4004
12662,4.814e+07,0,-0.0022242,0.002981,-0.0011544,-0.24285,0.076126,-9.7493,0,0,44.718,1,1,8008,4004
12693,4.8143e+07,0,-0.0016266,0.0026665,-0.0015477,-0.2434,0.076553,-9.7515,0,0,44.718,1,1,8008,4004
12697,4.8147e+07,0,-0.0011218,0.0026953,-0.0014595,-0.24317,0.078305,-9.7524,0,0,44.719,1,1,8008,4004
12700,4.8148e+07,0,-0.0010736,0.0020607,-0.0019889,-0.24092,0.083477,-9.7515,0,0,44.719,1,1,8008,4004
12703,4.815e+07,0,-0.0017418,0.0012103,-0.0016236,-0.23821,0.087892,-9.7512,0,0,44.719,1,1,8008,4004
12734,4.8153e+07,0,-0.0015215,0.0015991,-0.0012305,-0.23626,0.090256,-9.7517,0,0,44.719,1,1,8008,4004
12738,4.8155e+07,0,-0.0014541,0.0019612,-0.0011381,-0.2351,0.091277,-9.7537,0,0,44.719,1,1,8008,4004
12741,4.8158e+07,0,-0.0018999,0.0021582,-0.0011989,-0.2357,0.091144,-9.7553,0,0,44.719,1,1,8008,4004
12745,4.8161e+07,0,-0.0017133,0.0023596,-0.0010812,-0.23871,0.091478,-9.7542,0,0,44.72,1,1,8008,4004
12776,4.8163e+07,0,-0.0020844,0.0022138,-0.00062936,-0.24123,0.093391,-9.7516,0,0,44.72,1,1,8008,4004
12779,4.8165e+07,0,-0.0021567,0.0016408,-0.00077759,-0.24566,0.098248,-9.7476,0,0,44.72,1,1,8008,4004
12782,4.8168e+07,0,-0.0010839,0.0011672,-0.00065937,-0.24886,0.10003,-9.746,0,0,44.72,1,1,8008,4004
12785,4.8171e+07,0,-0.00024452,0.0012383,-3.37e-06,-0.25361,0.099009,-9.7466,0,0,44.72,1,1,8008,4004
12816,4.8173e+07,0,-0.00072224,0.0015727,-0.00026829,-0.25618,0.096825,-9.7488,0,0,44.72,1,1,8008,4004
12820,4.8176e+07,0,-0.0018796,0.0012336,-0.00041474,-0.25709,0.092383,-9.7526,0,0,44.72,1,1,8008,4004
12823,4.8178e+07,0,-0.0018841,0.001088,-0.00059081,-0.25571,0.089798,-9.7547,0,0,44.721,1,1,8008,4004
12826,4.8181e+07,0,-0.00099821,0.0010409,-0.00073064,-0.25237,0.0873,-9.7566,0,0,44.721,1,1,8008,4004
12857,4.8183e+07,0,-0.00089946,0.0013666,-0.00073394,-0.25033,0.085715,-9.7575,0,0,44.721,1,1,8008,4004
12860,4.8186e+07,0,-0.0012294,0.0016669,-0.00014839,-0.24807,0.082151,-9.7605,0,0,44.721,1,1,8008,4004
12863,4.8188e+07,0,-0.0012729,0.0014585,-5.8666e-05,-0.24709,0.080986,-9.7636,0,0,44.721,1,1,8008,4004
12866,4.819e+07,0,-0.00046314,0.0019281,-0.00067802,-0.24752,0.080936,-9.7647,0,0,44.721,1,1,8008,4004
12901,4.8193e+07,0,-0.00030126,0.0021921,-0.00048555,-0.24631,0.082118,-9.7636,0,0,44.721,1,1,8008,4004
12905,4.8196e+07,0,-0.00064409,0.0019898,0.00047452,-0.2429,0.08485,-9.7602,0,0,44.722,1,1,8008,4004
12908,4.8198e+07,0,-0.0005874,0.0018141,0.00097206,-0.2409,0.086387,-9.761,0,0,44.722,1,1,8008,4004
12911,4.8201e+07,0,-0.00091969,0.00093949,0.0012898,-0.23943,0.088769,-9.763,0,0,44.722,1,1,8008,4004
12942,4.8203e+07,0,-0.00032584,0.00083736,0.00068302,-0.2396,0.090221,-9.7608,0,0,44.722,1,1,8008,4004
12945,4.8206e+07,0,-0.00035526,0.0010967,3.3119e-05,-0.24046,0.089742,-9.759,0,0,44.722,1,1,8008,4004
12951,4.8209e+07,0,-0.00065836,0.0016048,-1.0356e-05,-0.24379,0.088297,-9.7578,0,0,44.722,1,1,8008,4004
12954,4.8211e+07,0,-0.0012035,0.0019178,0.0005532,-0.24624,0.08685,-9.7587,0,0,44.722,1,1,8008,4004
12985,4.8214e+07,0,-0.0020869,0.0023284,0.00098988,-0.2491,0.0846,-9.7605,0,0,44.723,1,1,8008,4004
12989,4.8216e+07,0,-0.0016647,0.0015142,0.0012753,-0.25098,0.083533,-9.7626,0,0,44.723,1,1,8008,4004
12992,4.8218e+07,0,-0.00038754,0.00020543,0.0015518,-0.25278,0.082437,-9.7652,0,0,44.723,1,1,8008,4004
12995,4.8221e+07,0,0.00024201,-7.3268e-05,0.00079496,-0.25529,0.081014,-9.7679,0,0,44.723,1,1,8008,4004
13026,4.8227e+07,0,0.00037867,0.0020603,-0.0017367,-0.25799,0.083456,-9.7712,0,0,44.723,1,1,8008,4004
13029,4.8228e+07,0,0.00022976,0.0035228,-0.0012098,-0.25692,0.085626,-9.7737,0,0,44.724,1,1,8008,4004
13033,4.8231e+07,0,0.00039544,0.0027857,-0.0013264,-0.25494,0.086748,-9.7736,0,0,44.724,1,1,8008,4004
13064,4.8233e+07,0,0.00047246,0.0020478,-0.00128,-0.2523,0.086508,-9.7731,0,0,44.724,1,1,8008,4004
13067,4.8236e+07,0,0.00058852,0.001951,-0.0012306,-0.25042,0.086308,-9.7737,0,0,44.724,1,1,8008,4004
13070,4.8242e+07,0,-0.00030428,0.002386,-0.0010158,-0.24663,0.084461,-9.7701,0,0,44.724,1,1,8008,4004
13074,4.8244e+07,0,-0.0012195,0.0025256,-0.0005423,-0.24364,0.082391,-9.7648,0,0,44.724,1,1,8008,4004
13105,4.8246e+07,0,-0.0018183,0.0025859,0.00018419,-0.24213,0.081437,-9.762,0,0,44.725,1,1,8008,4004
13108,4.8248e+07,0,-0.0023596,0.0027343,0.00083662,-0.24064,0.08093,-9.7607,0,0,44.725,1,1,8008,4004
13111,4.8251e+07,0,-0.0015325,0.0030446,0.00070028,-0.23914,0.082908,-9.7619,0,0,44.725,1,1,8008,4004
13114,4.8254e+07,0,-0.001864,0.0038436,0.0006573,-0.23816,0.087183,-9.7629,0,0,44.725,1,1,8008,4004
13145,4.8256e+07,0,-0.0014701,0.0034233,0.0002302,-0.23746,0.090107,-9.7633,0,0,44.725,1,1,8008,4004
13148,4.8258e+07,0,-0.00030995,0.0018294,0.00084026,-0.23552,0.096484,-9.7592,0,0,44.725,1,1,8008,4004
13151,4.8261e+07,0,-0.00020325,0.0011805,0.0014948,-0.2337,0.10169,-9.7551,0,0,44.725,1,1,8008,4004
13155,4.8264e+07,0,-0.0010607,0.00070866,0.0014922,-0.23322,0.1078,-9.7477,0,0,44.726,1,1,8008,4004
13186,4.8266e+07,0,-0.0022085,0.0013215,0.00039547,-0.23417,0.10958,-9.7424,0,0,44.726,1,1,8008,4004
13189,4.8269e+07,0,-0.0025901,0.0014424,0.00017447,-0.23494,0.11038,-9.74,0,0,44.726,1,1,8008,4004
13193,4.8271e+07,0,-0.0021951,0.0012798,0.00056528,-0.2369,0.11082,-9.7388,0,0,44.726,1,1,8008,4004
13196,4.8273e+07,0,-0.0015129,0.0013862,0.0020213,-0.24137,0.10919,-9.7399,0,0,44.726,1,1,8008,4004
13227,4.8276e+07,0,-0.00070328,0.0013431,0.002018,-0.24566,0.10793,-9.7419,0,0,44.726,1,1,8008,4004
13231,4.8278e+07,0,-0.00043279,0.0011404,0.00099276,-0.25008,0.1069,-9.7444,0,0,44.727,1,1,8008,4004
13234,4.8281e+07,0,-0.0010333,0.0011232,0.00011056,-0.25153,0.10489,-9.7473,0,0,44.727,1,1,8008,4004
13238,4.8284e+07,0,-0.0022509,0.00059966,-0.00065939,-0.25202,0.1002,-9.7539,0,0,44.727,1,1,8008,4004
13269,4.8286e+07,0,-0.0019269,-5.9756e-05,-0.0012206,-0.2511,0.096874,-9.7582,0,0,44.727,1,1,8008,4004
13272,4.8289e+07,0,-0.00097742,-0.00010042,-0.0011651,-0.25003,0.092811,-9.7609,0,0,44.727,1,1,8008,4004
13275,4.8291e+07,0,-0.0010191,0.00075201,-0.00087738,-0.24901,0.09119,-9.7606,0,0,44.727,1,1,8008,4004
13283,4.8294e+07,0,-0.0014314,0.0018685,-0.00053686,-0.24737,0.090864,-9.7593,0,0,44.727,1,1,8008,4004
13314,4.8296e+07,0,-0.0017023,0.0017511,-0.00065641,-0.2471,0.091995,-9.7581,0,0,44.728,1,1,8008,4004
13317,4.8299e+07,0,-0.0023476,0.00052057,-0.0007665,-0.24418,0.093596,-9.7559,0,0,44.728,1,1,8008,4004
13320,4.8302e+07,0,-0.0025158,-9.8035e-05,-0.0008825,-0.24267,0.094516,-9.754,0,0,44.728,1,1,8008,4004
13323,4.8304e+07,0,-0.0026336,-2.1651e-05,-0.0013772,-0.24078,0.09632,-9.7518,0,0,44.728,1,1,8008,4004
13354,4.8306e+07,0,-0.0023088,0.00087915,-0.00044386,-0.24008,0.097701,-9.7508,0,0,44.728,1,1,8008,4004
13357,4.8309e+07,0,-0.0019375,0.0018939,0.00058066,-0.24031,0.096984,-9.7518,0,0,44.728,1,1,8008,4004
13360,4.8311e+07,0,-0.0018825,0.0020766,0.0005131,-0.24084,0.096307,-9.7521,0,0,44.728,1,1,8008,4004
13364,4.8314e+07,0,-0.0014926,0.0018008,-8.5794e-05,-0.24314,0.09661,-9.7495,0,0,44.728,1,1,8008,4004
13395,4.8317e+07,0,-0.0017773,0.0018467,-0.00070563,-0.24675,0.095523,-9.7433,0,0,44.728,1,1,8008,4004
13398,4.8319e+07,0,-0.0021035,0.0012058,-0.0012633,-0.24924,0.094076,-9.7412,0,0,44.728,1,1,8008,4004
13402,4.8321e+07,0,-0.0023505,0.00067086,-0.001519,-0.25098,0.092007,-9.7406,0,0,44.729,1,1,8008,4004
13405,4.8324e+07,0,-0.0010165,-9.3846e-06,-0.00097533,-0.25139,0.089614,-9.7391,0,0,44.729,1,1,8008,4004
13436,4.8326e+07,0,-0.00048226,-0.00028436,-0.00116,-0.25011,0.089456,-9.7381,0,0,44.729,1,1,8008,4004
13439,4.8329e+07,0,-0.0011756,0.0004835,-0.0013457,-0.24635,0.089982,-9.7346,0,0,44.729,1,1,8008,4004
13442,4.8332e+07,0,-0.0020286,0.00066129,-0.0015968,-0.24409,0.091226,-9.7318,0,0,44.729,1,1,8008,4004
13446,4.8334e+07,0,-0.0020289,-0.00017297,-0.00072273,-0.24354,0.092422,-9.7303,0,0,44.729,1,1,8008,4004
13477,4.8337e+07,0,-0.0024771,-0.00089692,-0.00065693,-0.24443,0.091717,-9.7303,0,0,44.729,1,1,8008,4004
13480,4.8339e+07,0,-0.0029854,-0.0017388,-0.0010635,-0.24682,0.088748,-9.7319,0,0,44.729,1,1,8008,4004
13483,4.8341e+07,0,-0.002532,-0.0012158,-0.0012556,-0.24803,0.086517,-9.7335,0,0,44.729,1,1,8008,4004
13486,4.8348e+07,0,-0.00039342,0.0015075,-0.00087343,-0.24947,0.081623,-9.7393,0,0,44.729,1,1,8008,4004
13517,4.835e+07,0,3.4083e-06,0.0013509,-0.00043973,-0.24719,0.082882,-9.7413,0,0,44.729,1,1,8008,4004
13520,4.8353e+07,0,-0.00045523,0.0017806,-5.3846e-05,-0.24529,0.086303,-9.7435,0,0,44.729,1,1,8008,4004
13524,4.8356e+07,0,-0.00023791,0.0022684,-0.00051188,-0.24484,0.087657,-9.7445,0,0,44.729,1,1,8008,4004
13527,4.8358e+07,0,-0.00087004,0.0022951,-0.00052692,-0.24355,0.088244,-9.7472,0,0,44.73,1,1,8008,4004
13558,4.8361e+07,0,-0.0013114,0.0018467,-0.00012295,-0.24193,0.089318,-9.7498,0,0,44.73,1,1,8008,4004
13561,4.8362e+07,0,-0.0017627,0.0012549,0.0004126,-0.23953,0.091107,-9.7519,0,0,44.73,1,1,8008,4004
13565,4.8365e+07,0,-0.0015587,0.0012225,-0.00030676,-0.23886,0.092055,-9.75,0,0,44.73,1,1,8008,4004
13569,4.8367e+07,0,0.00016213,0.0011876,-0.0015603,-0.24009,0.092129,-9.7456,0,0,44.73,1,1,8008,4004
13600,4.837e+07,0,0.00092383,0.0012296,-0.0018482,-0.24115,0.091256,-9.7431,0,0,44.73,1,1,8008,4004
13603,4.8373e+07,0,0.0012483,0.0022847,-4.0487e-05,-0.24206,0.088351,-9.7409,0,0,44.731,1,1,8008,4004
13607,4.8375e+07,0,0.0013549,0.0027977,0.00071712,-0.24282,0.086646,-9.7416,0,0,44.731,1,1,8008,4004
13610,4.8378e+07,0,0.00013814,0.0019364,0.00058911,-0.24339,0.085919,-9.7467,0,0,44.731,1,1,8008,4004
13641,4.838e+07,0,-0.0016201,0.0014337,-0.00017667,-0.2457,0.086215,-9.7498,0,0,44.731,1,1,8008,4004
13644,4.8383e+07,0,-0.0019146,0.00039251,-0.00056049,-0.24909,0.087486,-9.7496,0,0,44.731,1,1,8008,4004
13648,4.8386e+07,0,-0.00054604,-0.00011881,0.00010218,-0.2552,0.090002,-9.7511,0,0,44.731,1,1,8008,4004
13651,4.8388e+07,0,0.00046699,-2.8607e-05,0.00055318,-0.25788,0.090932,-9.7515,0,0,44.731,1,1,8008,4004
13682,4.8391e+07,0,0.0015073,-0.00059471,0.00018891,-0.25826,0.090563,-9.7516,0,0,44.732,1,1,8008,4004
