LineNo,TimeUS,I,GyrX,GyrY,GyrZ,AccX,AccY,AccZ,EG,EA,T,GH,AH,GHz,AHz
184,4.4956e+07,2,-0.0042043,0.00070446,-0.00059374,-0.1906,0.020335,-9.8488,0,0,37.546,1,1,7746,3873
295,4.499e+07,2,-0.0036757,0.003104,-0.0033699,-0.17161,0.023262,-9.8742,0,0,37.547,1,1,7746,3873
411,4.5015e+07,2,0.0014309,0.00049951,-0.0018952,-0.18114,0.046834,-9.867,0,0,37.548,1,1,7746,3873
442,4.5018e+07,2,0.0019213,0.00048375,-0.00028952,-0.1753,0.053254,-9.867,0,0,37.548,1,1,7746,3873
522,4.5037e+07,2,0.0032411,-6.5024e-05,-0.00024994,-0.17953,0.050382,-9.859,0,0,37.548,1,1,7746,3873
637,4.5057e+07,2,0.0022033,-0.0010032,-0.00118,-0.16795,0.03761,-9.8611,0,0,37.549,1,1,7746,3873
753,4.5078e+07,2,0.0011697,0.0012319,-0.00015941,-0.18426,0.02764,-9.8641,0,0,37.549,1,1,7746,3873
868,4.5101e+07,2,-0.0022255,0.0021519,-0.00092082,-0.17232,0.012707,-9.8699,0,0,37.55,1,1,7746,3873
899,4.5103e+07,2,-0.0031492,0.0015942,0.00042202,-0.17319,0.011502,-9.8714,0,0,37.55,1,1,7746,3873
980,4.5128e+07,2,-0.0071308,0.0040998,-0.0019334,-0.16667,0.009702,-9.8757,0,0,37.551,1,1,7746,3873
1095,4.5179e+07,2,-0.00058375,-0.00052289,-6.6621e-05,-0.16866,0.030073,-9.8499,0,0,37.552,1,1,7746,3873
1126,4.5182e+07,2,0.00073791,-0.0015056,-5.2648e-05,-0.16996,0.034813,-9.8529,0,0,37.552,1,1,7746,3873
1206,4.5259e+07,2,-1.0492e-05,0.0034178,-0.00076077,-0.18638,0.016825,-9.8677,0,0,37.552,1,1,7746,3873
1294,4.5304e+07,2,-0.0054727,-0.00061984,0.00061179,-0.16596,0.050565,-9.88,0,0,37.553,1,1,7746,3873
1297,4.5306e+07,2,-0.0056919,-0.00094871,0.00029373,-0.1651,0.048483,-9.8794,0,0,37.553,1,1,7746,3873
1328,4.5308e+07,2,-0.0057159,-0.00090951,-0.00016496,-0.16635,0.047777,-9.8777,0,0,37.553,1,1,7746,3873
1391,4.5323e+07,2,-0.0037989,-0.0012779,-0.00017891,-0.16287,0.050483,-9.8721,0,0,37.553,1,1,7746,3873
1483,4.5338e+07,2,-0.0024899,0.0024917,2.484e-05,-0.16366,0.040503,-9.8417,0,0,37.553,1,1,7746,3873
1547,4.5343e+07,2,-0.0023551,0.0037652,-0.00020945,-0.16373,0.035239,-9.8385,0,0,37.553,1,1,7746,3873
1550,4.5344e+07,2,-0.0019747,0.004276,-3.5829e-05,-0.16322,0.033781,-9.8368,0,0,37.553,1,1,7746,3873
1567,4.5359e+07,2,-0.00053071,0.0040273,0.0013735,-0.16257,0.037047,-9.8302,0,0,37.553,1,1,7746,3873
1570,4.5362e+07,2,-0.00011756,0.0041742,0.00044319,-0.16248,0.038716,-9.835,0,0,37.553,1,1,7746,3873
1573,4.5365e+07,2,-6.5805e-05,0.0039346,-0.00079721,-0.16289,0.04241,-9.8445,0,0,37.553,1,1,7746,3873
1604,4.5367e+07,2,-0.0001555,0.0023903,-0.00039355,-0.16304,0.04435,-9.8513,0,0,37.553,1,1,7746,3873
1607,4.537e+07,2,0.000152,0.001931,0.00023062,-0.16269,0.042968,-9.8546,0,0,37.553,1,1,7746,3873
1611,4.5372e+07,2,0.00071773,0.0023188,0.00016239,-0.16255,0.040443,-9.8585,0,0,37.554,1,1,7746,3873
1615,4.5375e+07,2,0.0016646,0.0026302,-0.00083801,-0.16294,0.035691,-9.8622,0,0,37.554,1,1,7746,3873
1646,4.5378e+07,2,0.0012726,0.0023881,-0.0014627,-0.16268,0.032853,-9.8683,0,0,37.554,1,1,7746,3873
1649,4.538e+07,2,0.0010383,0.0018089,-0.002,-0.16142,0.031313,-9.8753,0,0,37.554,1,1,7746,3873
1652,4.5382e+07,2,0.00096665,0.001392,-0.0020593,-0.16003,0.029625,-9.8812,0,0,37.554,1,1,7746,3873
1656,4.5385e+07,2,0.001464,0.0013378,-0.001434,-0.15837,0.027759,-9.8837,0,0,37.554,1,1,7746,3873
1687,4.5388e+07,2,0.001028,0.0014329,-0.0013317,-0.15776,0.027143,-9.8826,0,0,37.554,1,1,7746,3873
1690,4.5391e+07,2,0.00041888,0.0012926,-0.0012147,-0.15661,0.026149,-9.8755,0,0,37.554,1,1,7746,3873
1693,4.5392e+07,2,-0.00035821,0.00093592,-0.0013544,-0.15852,0.026877,-9.8696,0,0,37.554,1,1,7746,3873
1696,4.5395e+07,2,-0.00054162,3.2543e-05,-0.0013324,-0.16043,0.02769,-9.8679,0,0,37.555,1,1,7746,3873
1727,4.5398e+07,2,0.00044626,2.284e-05,-0.0012785,-0.16328,0.027353,-9.8644,0,0,37.555,1,1,7746,3873
1730,4.54e+07,2,0.0013082,0.00066451,-0.0011512,-0.16407,0.027746,-9.8622,0,0,37.555,1,1,7746,3873
1733,4.5403e+07,2,0.001078,0.00058,-0.00087464,-0.16353,0.028132,-9.8613,0,0,37.555,1,1,7746,3873
1737,4.5405e+07,2,0.00010652,-0.00049172,0.0012024,-0.16273,0.027401,-9.8603,0,0,37.555,1,1,7746,3873
1770,4.5408e+07,2,-0.00034682,-0.00067995,0.0030496,-0.16165,0.027183,-9.8589,0,0,37.555,1,1,7746,3873
1773,4.541e+07,2,-0.00041408,-0.0011545,0.0028224,-0.15988,0.026446,-9.8543,0,0,37.555,1,1,7746,3873
1776,4.5412e+07,2,0.00028988,-0.0013626,0.0020625,-0.15941,0.025814,-9.8527,0,0,37.555,1,1,7746,3873
1779,4.5415e+07,2,0.00081423,-0.001259,0.0009238,-0.15976,0.025788,-9.8542,0,0,37.555,1,1,7746,3873
1810,4.5417e+07,2,6.0046e-05,-0.0013721,-6.4457e-05,-0.15925,0.026539,-9.8559,0,0,37.555,1,1,7746,3873
1813,4.542e+07,2,0.00055793,-0.00060993,-0.00043973,-0.15963,0.026971,-9.8571,0,0,37.556,1,1,7746,3873
1816,4.5423e+07,2,0.0012791,-0.00045156,-0.00037683,-0.16271,0.025939,-9.8584,0,0,37.556,1,1,7746,3873
1821,4.5425e+07,2,0.0012917,-0.00086939,0.00036893,-0.16511,0.024776,-9.8593,0,0,37.556,1,1,7746,3873
1852,4.5428e+07,2,-0.00030139,-0.0021403,0.0013464,-0.16872,0.023063,-9.8609,0,0,37.556,1,1,7746,3873
1855,4.543e+07,2,-0.001534,-0.001995,0.0015101,-0.17132,0.022985,-9.8619,0,0,37.556,1,1,7746,3873
1858,4.5433e+07,2,-0.0016495,-0.00066689,0.00053217,-0.17676,0.024543,-9.8638,0,0,37.556,1,1,7746,3873
1861,4.5436e+07,2,-0.0011602,-6.9683e-05,0.00040464,-0.18193,0.026658,-9.8664,0,0,37.556,1,1,7746,3873
1892,4.5438e+07,2,-0.00040014,0.00062881,0.00046966,-0.1881,0.028854,-9.8659,0,0,37.556,1,1,7746,3873
1895,4.5441e+07,2,-0.00055784,0.00081856,0.0013862,-0.19019,0.029602,-9.861,0,0,37.557,1,1,7746,3873
1898,4.5443e+07,2,-0.0015289,0.00066516,0.0011279,-0.18932,0.029554,-9.8581,0,0,37.557,1,1,7746,3873
1902,4.5446e+07,2,-0.001892,0.00023264,0.0010796,-0.18821,0.028786,-9.8561,0,0,37.557,1,1,7746,3873
1933,4.5449e+07,2,-0.0011709,0.0010098,0.0018533,-0.18677,0.026305,-9.8566,0,0,37.557,1,1,7746,3873
1936,4.5451e+07,2,-0.0012296,0.0014601,0.0019644,-0.18658,0.024596,-9.8567,0,0,37.557,1,1,7746,3873
1939,4.5454e+07,2,-0.0020995,0.0017775,0.00034348,-0.18634,0.025311,-9.8573,0,0,37.557,1,1,7746,3873
1947,4.5457e+07,2,-0.0020742,0.0015794,-9.1617e-05,-0.18495,0.02739,-9.8574,0,0,37.557,1,1,7746,3873
1978,4.5459e+07,2,-0.002914,0.0014747,-0.00011836,-0.18203,0.028715,-9.8569,0,0,37.558,1,1,7746,3873
1981,4.5462e+07,2,-0.0042267,0.0020685,0.00050928,-0.17921,0.02864,-9.8539,0,0,37.558,1,1,7746,3873
1984,4.5464e+07,2,-0.0051505,0.0024784,-2.5062e-05,-0.17797,0.028818,-9.8512,0,0,37.558,1,1,7746,3873
1987,4.5466e+07,2,-0.0050042,0.0028799,-0.00028871,-0.17809,0.028623,-9.8505,0,0,37.558,1,1,7746,3873
2018,4.5469e+07,2,-0.0039234,0.0027014,-0.00047638,-0.17861,0.028606,-9.8521,0,0,37.558,1,1,7746,3873
2022,4.5472e+07,2,-0.0023357,0.0022576,0.00028798,-0.17774,0.028445,-9.8546,0,0,37.558,1,1,7746,3873
2026,4.5474e+07,2,-0.0014488,0.0020334,0.00077093,-0.17697,0.028599,-9.8564,0,0,37.558,1,1,7746,3873
2030,4.5476e+07,2,-0.00050861,0.0025045,0.0012384,-0.17715,0.02989,-9.8568,0,0,37.558,1,1,7746,3873
2061,4.5479e+07,2,-0.00074817,0.002754,0.00079069,-0.17741,0.030277,-9.8559,0,0,37.559,1,1,7746,3873
2064,4.5482e+07,2,-0.0013658,0.0031954,-0.00041646,-0.17977,0.030843,-9.8529,0,0,37.559,1,1,7746,3873
2067,4.5485e+07,2,-0.002107,0.0036329,-0.00046191,-0.18157,0.030336,-9.8534,0,0,37.559,1,1,7746,3873
2070,4.5487e+07,2,-0.0029252,0.0032062,-0.00047622,-0.1842,0.028717,-9.8573,0,0,37.559,1,1,7746,3873
2101,4.5489e+07,2,-0.0037103,0.0031393,0.00016818,-0.18612,0.026851,-9.8586,0,0,37.559,1,1,7746,3873
2104,4.5492e+07,2,-0.003838,0.0030771,0.00010543,-0.18617,0.026659,-9.8574,0,0,37.559,1,1,7746,3873
2107,4.5496e+07,2,-0.0036298,0.0025857,-0.00034989,-0.18312,0.028473,-9.8583,0,0,37.559,1,1,7746,3873
2111,4.5499e+07,2,-0.0031042,0.0018929,-0.00033987,-0.17947,0.029964,-9.8588,0,0,37.56,1,1,7746,3873
2114,4.55e+07,2,-0.0030231,0.0014599,0.00060379,-0.17867,0.033302,-9.8598,0,0,37.56,1,1,7746,3873
2145,4.5503e+07,2,-0.0025974,0.0016652,-0.00010372,-0.17906,0.035814,-9.8606,0,0,37.56,1,1,7746,3873
2148,4.5505e+07,2,-0.0013771,0.0016726,-0.00070646,-0.17933,0.038207,-9.862,0,0,37.56,1,1,7746,3873
2151,4.5508e+07,2,-0.00099561,0.0012654,4.5202e-05,-0.18018,0.040821,-9.865,0,0,37.56,1,1,7746,3873
2154,4.5511e+07,2,-0.0012651,0.00059797,0.00082931,-0.18022,0.042292,-9.8688,0,0,37.56,1,1,7746,3873
2185,4.5513e+07,2,-0.0019695,0.00041318,0.00023262,-0.17957,0.043529,-9.8721,0,0,37.56,1,1,7746,3873
2188,4.5515e+07,2,-0.0024757,0.0010241,-6.167e-05,-0.17862,0.042531,-9.8752,0,0,37.56,1,1,7746,3873
2192,4.5518e+07,2,-0.0031399,0.001878,-0.00027904,-0.17631,0.040937,-9.8771,0,0,37.56,1,1,7746,3873
2195,4.5521e+07,2,-0.0034758,0.0020419,-0.0002515,-0.17384,0.039431,-9.8774,0,0,37.56,1,1,7746,3873
2226,4.5524e+07,2,-0.002393,0.0015017,0.00050188,-0.17117,0.037465,-9.8754,0,0,37.56,1,1,7746,3873
2230,4.5526e+07,2,-0.0019179,0.0006408,0.0007809,-0.1696,0.036762,-9.873,0,0,37.561,1,1,7746,3873
2233,4.5528e+07,2,-0.0018528,0.00060658,0.0011712,-0.1698,0.038166,-9.873,0,0,37.561,1,1,7746,3873
2239,4.5531e+07,2,-0.0017114,0.0014654,0.0015249,-0.17067,0.041177,-9.8737,0,0,37.561,1,1,7746,3873
2270,4.5533e+07,2,-0.001584,0.0018362,0.0012877,-0.17157,0.045815,-9.8708,0,0,37.561,1,1,7746,3873
2273,4.5537e+07,2,-0.0011495,0.0014259,0.00075564,-0.173,0.050006,-9.8685,0,0,37.561,1,1,7746,3873
2277,4.5539e+07,2,-0.00039515,-6.4656e-05,0.00095897,-0.17529,0.056626,-9.8642,0,0,37.561,1,1,7746,3873
2280,4.5541e+07,2,4.9196e-05,-0.00081784,0.0010851,-0.17547,0.059723,-9.8598,0,0,37.561,1,1,7746,3873
2311,4.5544e+07,2,0.00025195,5.5455e-05,0.00068898,-0.17458,0.06128,-9.8547,0,0,37.561,1,1,7746,3873
2314,4.5546e+07,2,0.00039559,0.00070749,0.00026235,-0.17218,0.061106,-9.8491,0,0,37.561,1,1,7746,3873
2318,4.5549e+07,2,0.0012641,0.0024372,-0.0016411,-0.16707,0.059803,-9.8419,0,0,37.562,1,1,7746,3873
2321,4.5551e+07,2,0.0016491,0.0028642,-0.001345,-0.16467,0.058309,-9.8398,0,0,37.562,1,1,7746,3873
2354,4.5554e+07,2,0.001015,0.0028266,-0.0013012,-0.1639,0.054859,-9.8396,0,0,37.562,1,1,7746,3873
2357,4.5557e+07,2,0.00071605,0.002745,-0.0012883,-0.16362,0.05196,-9.8412,0,0,37.562,1,1,7746,3873
2364,4.556e+07,2,0.0019655,0.0026714,1.8881e-05,-0.16484,0.047556,-9.8433,0,0,37.562,1,1,7746,3873
2367,4.5561e+07,2,0.0020597,0.0025462,0.00080213,-0.16624,0.044702,-9.8437,0,0,37.562,1,1,7746,3873
2398,4.5564e+07,2,0.0018744,0.0032962,0.0015361,-0.1699,0.040841,-9.8463,0,0,37.562,1,1,7746,3873
2401,4.5566e+07,2,0.0014857,0.0039176,0.0020963,-0.17266,0.039664,-9.8458,0,0,37.562,1,1,7746,3873
2405,4.5569e+07,2,0.0010335,0.0048761,0.0028041,-0.17621,0.038804,-9.8426,0,0,37.563,1,1,7746,3873
2408,4.5572e+07,2,0.0016063,0.0042445,0.0030387,-0.17716,0.037867,-9.8416,0,0,37.563,1,1,7746,3873
2439,4.5574e+07,2,0.0015269,0.0030112,0.0013018,-0.17588,0.037553,-9.8415,0,0,37.563,1,1,7746,3873
2444,4.5577e+07,2,0.00097056,0.0031204,0.0014104,-0.17415,0.038183,-9.8418,0,0,37.563,1,1,7746,3873
2447,4.558e+07,2,0.00072553,0.0033317,0.0009019,-0.16992,0.038518,-9.8417,0,0,37.563,1,1,7746,3873
2450,4.5582e+07,2,0.0014159,0.0035947,0.00033478,-0.1661,0.0372,-9.8415,0,0,37.563,1,1,7746,3873
2481,4.5585e+07,2,0.0025517,0.0038666,1.8366e-05,-0.15946,0.034273,-9.8453,0,0,37.564,1,1,7746,3873
2484,4.5587e+07,2,0.0020782,0.0040133,-0.0010303,-0.15647,0.032531,-9.8513,0,0,37.564,1,1,7746,3873
2488,4.559e+07,2,-4.0735e-05,0.0028963,-0.00058392,-0.1551,0.030666,-9.8606,0,0,37.564,1,1,7746,3873
2491,4.5592e+07,2,-0.00056404,0.0017384,0.00010161,-0.1562,0.02913,-9.8648,0,0,37.564,1,1,7746,3873
2522,4.5596e+07,2,-0.00047706,0.001931,0.00043618,-0.15693,0.029621,-9.8651,0,0,37.564,1,1,7746,3873
2525,4.5598e+07,2,-0.00028416,0.002361,0.0012373,-0.15768,0.028444,-9.8655,0,0,37.565,1,1,7746,3873
2528,4.56e+07,2,-0.00083143,0.0024407,0.0019366,-0.15832,0.026441,-9.8651,0,0,37.565,1,1,7746,3873
2531,4.5603e+07,2,-0.0015868,0.002907,0.0010123,-0.1583,0.024465,-9.8631,0,0,37.565,1,1,7746,3873
2562,4.5606e+07,2,-0.00081113,0.0030937,0.00054411,-0.1572,0.023465,-9.8627,0,0,37.565,1,1,7746,3873
2565,4.5608e+07,2,0.00015153,0.0021231,-0.00026376,-0.15583,0.022629,-9.8638,0,0,37.565,1,1,7746,3873
2569,4.561e+07,2,4.7391e-05,0.0019608,-0.00055367,-0.15462,0.022381,-9.8653,0,0,37.566,1,1,7746,3873
2574,4.5613e+07,2,-0.00049647,0.0021449,-0.0015597,-0.15424,0.02399,-9.866,0,0,37.566,1,1,7746,3873
2605,4.5617e+07,2,7.2631e-06,0.0017247,-0.002366,-0.1546,0.027187,-9.8638,0,0,37.566,1,1,7746,3873
2608,4.5619e+07,2,0.0011559,0.0013263,-0.0025809,-0.15403,0.028763,-9.8571,0,0,37.566,1,1,7746,3873
2612,4.5621e+07,2,0.00042004,0.00091849,-0.0027479,-0.1538,0.028575,-9.8554,0,0,37.566,1,1,7746,3873
2616,4.5624e+07,2,-0.0018468,-3.5614e-05,-0.0028639,-0.15352,0.026508,-9.8572,0,0,37.566,1,1,7746,3873
2647,4.5627e+07,2,-0.0025771,-0.00035635,-0.0027221,-0.15366,0.025618,-9.8591,0,0,37.566,1,1,7746,3873
2650,4.5629e+07,2,-0.0022339,-0.00025755,-0.001868,-0.1558,0.024144,-9.8609,0,0,37.566,1,1,7746,3873
2653,4.5632e+07,2,-0.0028315,-0.00079053,-0.0013769,-0.15712,0.023009,-9.8613,0,0,37.567,1,1,7746,3873
2656,4.5634e+07,2,-0.0043429,-0.0015601,-0.00072688,-0.15802,0.022447,-9.8611,0,0,37.567,1,1,7746,3873
2687,4.5636e+07,2,-0.0057721,-0.0014079,-0.0004824,-0.15774,0.022194,-9.8588,0,0,37.567,1,1,7746,3873
2690,4.5639e+07,2,-0.0062296,-0.0013016,-0.00061596,-0.15672,0.022339,-9.8544,0,0,37.567,1,1,7746,3873
2694,4.5641e+07,2,-0.0051726,-0.0015537,-0.00049945,-0.15614,0.023823,-9.8532,0,0,37.567,1,1,7746,3873
2697,4.5644e+07,2,-0.0049214,-0.001547,-0.0010576,-0.15492,0.026979,-9.8531,0,0,37.567,1,1,7746,3873
2728,4.5646e+07,2,-0.0055389,-0.0013548,-0.0022914,-0.15258,0.030208,-9.8544,0,0,37.567,1,1,7746,3873
2731,4.5649e+07,2,-0.0060332,-0.0013468,-0.0019143,-0.15228,0.032526,-9.8556,0,0,37.567,1,1,7746,3873
2734,4.5652e+07,2,-0.0053058,-0.0027767,-0.0023254,-0.15362,0.035462,-9.859,0,0,37.568,1,1,7746,3873
2737,4.5654e+07,2,-0.004389,-0.0032824,-0.0020265,-0.15449,0.037276,-9.8598,0,0,37.568,1,1,7746,3873
2768,4.5657e+07,2,-0.0042688,-0.0019402,-0.0025855,-0.15504,0.040505,-9.8578,0,0,37.568,1,1,7746,3873
2771,4.566e+07,2,-0.00438,-0.0010771,-0.002447,-0.15688,0.042728,-9.8561,0,0,37.568,1,1,7746,3873
2779,4.5662e+07,2,-0.0054692,-0.00085128,-0.00014563,-0.16096,0.044713,-9.8541,0,0,37.568,1,1,7746,3873
2783,4.5664e+07,2,-0.0050729,-0.001084,0.00072628,-0.16486,0.044992,-9.8522,0,0,37.568,1,1,7746,3873
2814,4.5667e+07,2,-0.0049633,-0.0015614,0.0007044,-0.16977,0.044234,-9.8511,0,0,37.568,1,1,7746,3873
2817,4.5669e+07,2,-0.0045165,-0.0014997,0.00010916,-0.17698,0.043707,-9.8528,0,0,37.568,1,1,7746,3873
2821,4.5672e+07,2,-0.0036434,-0.0015525,-0.0003043,-0.17961,0.043505,-9.8533,0,0,37.568,1,1,7746,3873
2824,4.5674e+07,2,-0.0024676,-0.0019717,-0.00052422,-0.18002,0.04162,-9.8547,0,0,37.569,1,1,7746,3873
2855,4.5677e+07,2,-0.0022784,-0.0023925,-0.0010367,-0.17834,0.03856,-9.8601,0,0,37.569,1,1,7746,3873
2858,4.568e+07,2,-0.0036179,-0.0025314,-0.0016875,-0.17677,0.037962,-9.8674,0,0,37.569,1,1,7746,3873
2861,4.5682e+07,2,-0.0036903,-0.0016718,-0.0021815,-0.17587,0.039307,-9.8708,0,0,37.569,1,1,7746,3873
2865,4.5685e+07,2,-0.0029859,0.00015113,-0.00088049,-0.1751,0.042298,-9.8744,0,0,37.569,1,1,7746,3873
2896,4.5687e+07,2,-0.0026117,0.0022687,0.0017613,-0.17673,0.044879,-9.8793,0,0,37.569,1,1,7746,3873
2900,4.569e+07,2,-0.0022675,0.0029377,0.0030159,-0.17865,0.045877,-9.8815,0,0,37.569,1,1,7746,3873
2904,4.5693e+07,2,-0.0016606,0.0020391,0.0024149,-0.18254,0.045833,-9.8833,0,0,37.57,1,1,7746,3873
2907,4.5695e+07,2,-0.0014135,0.0022089,0.0014105,-0.18492,0.044388,-9.883,0,0,37.57,1,1,7746,3873
2938,4.5698e+07,2,-0.001341,0.002212,0.0003349,-0.18555,0.042538,-9.8793,0,0,37.57,1,1,7746,3873
2941,4.57e+07,2,-0.001061,0.0018239,0.00093903,-0.18547,0.04146,-9.8743,0,0,37.57,1,1,7746,3873
2944,4.5702e+07,2,-0.00053495,0.0016429,0.00082949,-0.18573,0.038226,-9.8678,0,0,37.57,1,1,7746,3873
2947,4.5705e+07,2,0.00030389,0.0020045,0.00043266,-0.1861,0.035864,-9.8655,0,0,37.57,1,1,7746,3873
2978,4.5708e+07,2,-5.4074e-05,0.002018,0.00014432,-0.18693,0.03042,-9.8626,0,0,37.571,1,1,7746,3873
2981,4.5713e+07,2,0.00059527,0.00084424,0.00013577,-0.18889,0.026178,-9.8598,0,0,37.571,1,1,7746,3873
2985,4.5716e+07,2,0.00060459,0.0010071,-0.0001052,-0.18745,0.030394,-9.862,0,0,37.571,1,1,7746,3873
3016,4.5718e+07,2,0.00038696,0.001552,-5.2855e-05,-0.18637,0.035008,-9.8634,0,0,37.571,1,1,7746,3873
3019,4.5721e+07,2,0.00097459,0.0027088,0.00074204,-0.18752,0.039737,-9.8605,0,0,37.571,1,1,7746,3873
3022,4.5724e+07,2,0.0021831,0.003109,0.0018673,-0.19005,0.041868,-9.8572,0,0,37.572,1,1,7746,3873
3026,4.5725e+07,2,0.0044019,0.0025486,0.0029823,-0.19326,0.043279,-9.8499,0,0,37.572,1,1,7746,3873
3057,4.5728e+07,2,0.0051587,0.0018072,0.0023149,-0.19473,0.043223,-9.8467,0,0,37.572,1,1,7746,3873
3060,4.5731e+07,2,0.0052979,0.0027442,0.00243,-0.19628,0.042807,-9.8449,0,0,37.572,1,1,7746,3873
3063,4.5733e+07,2,0.005098,0.0033634,0.0021067,-0.19776,0.041303,-9.8419,0,0,37.572,1,1,7746,3873
3066,4.5736e+07,2,0.0049822,0.0034352,0.0015516,-0.20067,0.038539,-9.8368,0,0,37.573,1,1,7746,3873
3097,4.5738e+07,2,0.0050872,0.0027818,0.0011477,-0.2027,0.03665,-9.8368,0,0,37.573,1,1,7746,3873
3101,4.5741e+07,2,0.0046889,0.0026139,0.0011801,-0.20329,0.035848,-9.8379,0,0,37.573,1,1,7746,3873
3104,4.5744e+07,2,0.0043947,0.0022302,0.0013704,-0.20261,0.033507,-9.841,0,0,37.573,1,1,7746,3873
3108,4.5746e+07,2,0.0041491,0.0021251,0.0012361,-0.20204,0.032788,-9.8428,0,0,37.573,1,1,7746,3873
3139,4.5749e+07,2,0.0042286,0.0021119,0.00039532,-0.20084,0.033135,-9.8426,0,0,37.574,1,1,7746,3873
3142,4.5751e+07,2,0.0036433,0.0012282,-0.00060121,-0.19943,0.032889,-9.8429,0,0,37.574,1,1,7746,3873
3145,4.5754e+07,2,0.0030959,0.00062721,-0.00020192,-0.19652,0.032493,-9.8453,0,0,37.574,1,1,7746,3873
3148,4.5756e+07,2,0.0038054,0.00059382,0.00060062,-0.19422,0.032498,-9.8477,0,0,37.574,1,1,7746,3873
3179,4.5759e+07,2,0.0038098,0.00077754,0.00071131,-0.19056,0.031846,-9.8494,0,0,37.574,1,1,7746,3873
3182,4.5762e+07,2,0.0024132,0.00011362,-0.00010476,-0.18642,0.031546,-9.8501,0,0,37.574,1,1,7746,3873
3189,4.5764e+07,2,0.001785,-0.00029986,-0.0010441,-0.18219,0.030639,-9.8505,0,0,37.574,1,1,7746,3873
3193,4.5766e+07,2,0.0013228,-0.00060461,-0.0011763,-0.17768,0.028729,-9.8505,0,0,37.575,1,1,7746,3873
3224,4.5769e+07,2,0.00060563,-0.00045729,-9.8009e-05,-0.17527,0.027575,-9.8499,0,0,37.575,1,1,7746,3873
3227,4.5772e+07,2,-0.00043561,0.00035652,2.6638e-05,-0.17318,0.02697,-9.8491,0,0,37.575,1,1,7746,3873
3230,4.5774e+07,2,-0.0012298,0.00040614,-0.00027203,-0.17117,0.026248,-9.8516,0,0,37.575,1,1,7746,3873
3233,4.5777e+07,2,-0.0011697,0.00026518,-0.00082006,-0.17135,0.024328,-9.8584,0,0,37.575,1,1,7746,3873
3264,4.5779e+07,2,-0.0003401,-0.00011419,-0.00079705,-0.17343,0.019535,-9.8649,0,0,37.575,1,1,7746,3873
3267,4.5782e+07,2,-6.8953e-05,-0.00031687,0.00020536,-0.1756,0.016659,-9.8695,0,0,37.576,1,1,7746,3873
3270,4.5785e+07,2,-0.00087495,-0.00013091,0.0008499,-0.17657,0.015427,-9.873,0,0,37.576,1,1,7746,3873
3274,4.5786e+07,2,-0.0019806,0.00074726,0.00092678,-0.17503,0.016108,-9.8738,0,0,37.576,1,1,7746,3873
3306,4.5789e+07,2,-0.001969,0.0011416,0.00090431,-0.17219,0.017797,-9.8731,0,0,37.576,1,1,7746,3873
3309,4.5791e+07,2,-0.0013678,0.0023142,0.0011623,-0.16902,0.019396,-9.8731,0,0,37.576,1,1,7746,3873
3312,4.5794e+07,2,-0.0017857,0.0027429,0.00053915,-0.16815,0.018847,-9.8737,0,0,37.576,1,1,7746,3873
3315,4.5797e+07,2,-0.0023323,0.0021691,-0.00081641,-0.16689,0.016577,-9.8766,0,0,37.577,1,1,7746,3873
3346,4.58e+07,2,-0.0025057,0.0023786,-0.0010695,-0.16542,0.015984,-9.8774,0,0,37.577,1,1,7746,3873
3349,4.5802e+07,2,-0.003131,0.0028891,-0.0014831,-0.16372,0.016852,-9.8764,0,0,37.577,1,1,7746,3873
3352,4.5806e+07,2,-0.0043822,0.0023564,-0.0019885,-0.16192,0.019147,-9.8747,0,0,37.577,1,1,7746,3873
3356,4.5808e+07,2,-0.0050208,0.0014112,-0.0022231,-0.16324,0.022571,-9.8712,0,0,37.577,1,1,7746,3873
3389,4.581e+07,2,-0.0058892,0.0015574,-0.0014809,-0.16738,0.026819,-9.8656,0,0,37.577,1,1,7746,3873
3392,4.5813e+07,2,-0.0058463,0.0013668,-0.0011454,-0.17056,0.028996,-9.8626,0,0,37.578,1,1,7746,3873
3395,4.5815e+07,2,-0.0049343,0.0013245,-0.0014749,-0.17254,0.029148,-9.8608,0,0,37.578,1,1,7746,3873
3401,4.5818e+07,2,-0.0049602,0.001351,-0.0020991,-0.1714,0.028773,-9.8594,0,0,37.578,1,1,7746,3873
3432,4.5823e+07,2,-0.0057826,0.0027449,-0.0024138,-0.16589,0.025272,-9.8619,0,0,37.578,1,1,7746,3873
3435,4.5826e+07,2,-0.0063645,0.0030089,-0.0018994,-0.16498,0.024035,-9.8643,0,0,37.578,1,1,7746,3873
3438,4.5829e+07,2,-0.0061906,0.0034756,-0.0010941,-0.16527,0.02457,-9.8667,0,0,37.578,1,1,7746,3873
3469,4.5832e+07,2,-0.0048416,0.0039708,-0.00097067,-0.16555,0.026647,-9.8668,0,0,37.579,1,1,7746,3873
3473,4.5834e+07,2,-0.0045154,0.003547,-0.0011389,-0.16564,0.028195,-9.8653,0,0,37.579,1,1,7746,3873
3477,4.5837e+07,2,-0.0050465,0.0027628,-0.00093625,-0.16495,0.029071,-9.8614,0,0,37.579,1,1,7746,3873
3481,4.5839e+07,2,-0.0049568,0.0023337,-0.00027779,-0.16414,0.029124,-9.8609,0,0,37.579,1,1,7746,3873
3512,4.5842e+07,2,-0.0045789,0.002103,-0.00036505,-0.16202,0.030044,-9.8634,0,0,37.579,1,1,7746,3873
3515,4.5845e+07,2,-0.0041876,0.0024599,-0.0011569,-0.16169,0.030019,-9.8663,0,0,37.579,1,1,7746,3873
3518,4.5847e+07,2,-0.0032379,0.0021205,-0.0025907,-0.16113,0.031143,-9.8682,0,0,37.579,1,1,7746,3873
3521,4.5849e+07,2,-0.0030608,0.0020365,-0.0028428,-0.15896,0.033172,-9.8669,0,0,37.58,1,1,7746,3873
3552,4.5851e+07,2,-0.0028307,0.0016484,-0.0022139,-0.15741,0.035784,-9.8649,0,0,37.58,1,1,7746,3873
3555,4.5855e+07,2,-0.0025469,0.0014038,-0.00081978,-0.15926,0.036988,-9.8636,0,0,37.58,1,1,7746,3873
3559,4.5857e+07,2,-0.0018587,0.0012086,-0.00044341,-0.16237,0.038363,-9.863,0,0,37.58,1,1,7746,3873
3563,4.586e+07,2,-0.0017942,0.0012669,-0.00036565,-0.16566,0.040605,-9.8625,0,0,37.58,1,1,7746,3873
3594,4.5862e+07,2,-0.0018032,0.0015515,-0.0004626,-0.1695,0.044733,-9.8619,0,0,37.58,1,1,7746,3873
3600,4.5865e+07,2,-0.0017969,0.00098926,-0.0019566,-0.1724,0.047303,-9.8644,0,0,37.58,1,1,7746,3873
3607,4.5868e+07,2,-0.0017719,0.00096981,-0.0015127,-0.1735,0.049789,-9.866,0,0,37.581,1,1,7746,3873
3611,4.587e+07,2,-0.00095524,0.0010659,-0.001355,-0.17516,0.054047,-9.8653,0,0,37.581,1,1,7746,3873
3642,4.5872e+07,2,-0.00062382,0.00071213,-0.00070087,-0.17453,0.055108,-9.8631,0,0,37.581,1,1,7746,3873
3645,4.5874e+07,2,-0.00032266,0.0011874,4.3806e-05,-0.17394,0.054034,-9.8616,0,0,37.581,1,1,7746,3873
3648,4.5877e+07,2,0.00034646,0.0014289,0.00058364,-0.17475,0.053157,-9.8609,0,0,37.581,1,1,7746,3873
3651,4.588e+07,2,0.0011918,0.0012065,-0.00044985,-0.17447,0.051645,-9.8597,0,0,37.581,1,1,7746,3873
3682,4.5882e+07,2,0.0010722,-0.00019323,-0.0011976,-0.17151,0.048572,-9.8566,0,0,37.582,1,1,7746,3873
3685,4.5886e+07,2,0.00044493,-0.0011198,-0.001574,-0.1702,0.046088,-9.8555,0,0,37.582,1,1,7746,3873
3688,4.5887e+07,2,-0.00038076,-0.0018257,-0.001277,-0.17047,0.044398,-9.8547,0,0,37.582,1,1,7746,3873
3692,4.589e+07,2,0.00027488,-0.0020235,-0.00044116,-0.17103,0.042543,-9.8546,0,0,37.582,1,1,7746,3873
3723,4.5893e+07,2,0.0013254,-0.0020922,-0.00053359,-0.17091,0.040874,-9.8558,0,0,37.582,1,1,7746,3873
3726,4.5895e+07,2,0.0016638,-0.0020946,-0.00020743,-0.17067,0.040734,-9.8554,0,0,37.582,1,1,7746,3873
3730,4.5898e+07,2,0.0025297,-0.002748,0.00050461,-0.17129,0.041265,-9.8564,0,0,37.583,1,1,7746,3873
3733,4.59e+07,2,0.0024987,-0.0025072,0.0012036,-0.17172,0.041459,-9.8609,0,0,37.583,1,1,7746,3873
3764,4.5904e+07,2,0.002902,-0.0024341,0.0018952,-0.17195,0.040993,-9.8682,0,0,37.583,1,1,7746,3873
3767,4.5905e+07,2,0.0028881,-0.0014126,0.0018524,-0.17323,0.040942,-9.871,0,0,37.583,1,1,7746,3873
3770,4.5908e+07,2,0.0033868,-0.00058717,0.00093619,-0.17479,0.04157,-9.8716,0,0,37.583,1,1,7746,3873
3774,4.5912e+07,2,0.0036716,0.00074073,0.0004806,-0.17658,0.043476,-9.8706,0,0,37.583,1,1,7746,3873
3777,4.5913e+07,2,0.0029302,0.001865,-0.0010457,-0.17768,0.044173,-9.8673,0,0,37.584,1,1,7746,3873
3808,4.5917e+07,2,0.0025499,0.0023739,-0.0013119,-0.17769,0.043545,-9.8659,0,0,37.584,1,1,7746,3873
3811,4.5918e+07,2,0.0032292,0.0017668,-0.00095238,-0.17653,0.042262,-9.8641,0,0,37.584,1,1,7746,3873
3814,4.5921e+07,2,0.0044368,0.0008816,0.0005377,-0.17525,0.039972,-9.8615,0,0,37.584,1,1,7746,3873
3817,4.5923e+07,2,0.0040517,0.0010668,0.00069549,-0.17552,0.036008,-9.8556,0,0,37.584,1,1,7746,3873
3848,4.5926e+07,2,0.0035809,0.0017393,-8.1429e-05,-0.17586,0.034612,-9.8523,0,0,37.584,1,1,7746,3873
3851,4.5929e+07,2,0.0027131,0.0015822,-0.00092644,-0.17679,0.034004,-9.8509,0,0,37.584,1,1,7746,3873
3855,4.5931e+07,2,0.0023126,0.0015474,-0.0017578,-0.17782,0.033599,-9.8495,0,0,37.585,1,1,7746,3873
3859,4.5933e+07,2,0.0016351,0.00123,-0.0014826,-0.17997,0.032006,-9.8488,0,0,37.585,1,1,7746,3873
3890,4.5936e+07,2,0.0012604,0.00090297,-0.0011243,-0.18182,0.029603,-9.8492,0,0,37.585,1,1,7746,3873
3893,4.5939e+07,2,0.00056729,0.0011061,0.00034991,-0.18267,0.026866,-9.8499,0,0,37.585,1,1,7746,3873
3897,4.5941e+07,2,0.00014043,0.0012959,0.00078807,-0.1831,0.024972,-9.8487,0,0,37.585,1,1,7746,3873
3900,4.5943e+07,2,-0.00036445,0.0025141,-0.0005686,-0.18556,0.021396,-9.8436,0,0,37.585,1,1,7746,3873
3931,4.5946e+07,2,-0.00019265,0.0032441,-0.00076184,-0.18701,0.018827,-9.8441,0,0,37.585,1,1,7746,3873
3934,4.5948e+07,2,0.00028641,0.0037202,-0.00051053,-0.18816,0.016168,-9.8462,0,0,37.585,1,1,7746,3873
3937,4.5951e+07,2,-0.00024221,0.0040958,-0.00019667,-0.18912,0.013391,-9.8479,0,0,37.586,1,1,7746,3873
3940,4.5954e+07,2,-0.0014355,0.0029261,-0.00018552,-0.19052,0.011399,-9.8502,0,0,37.586,1,1,7746,3873
3971,4.5956e+07,2,-0.0021167,0.0024698,-0.0003023,-0.18929,0.010128,-9.8505,0,0,37.586,1,1,7746,3873
3974,4.5958e+07,2,-0.003818,0.0012697,-0.00043669,-0.18535,0.00948,-9.8509,0,0,37.586,1,1,7746,3873
3978,4.5961e+07,2,-0.0041146,0.00089962,-0.0011917,-0.18316,0.010442,-9.8523,0,0,37.586,1,1,7746,3873
3981,4.5964e+07,2,-0.0039597,0.0014371,-0.0013288,-0.17976,0.012574,-9.8542,0,0,37.586,1,1,7746,3873
4012,4.5966e+07,2,-0.0035209,0.0019443,-0.0012833,-0.17866,0.012818,-9.8557,0,0,37.586,1,1,7746,3873
4019,4.5969e+07,2,-0.0035395,0.0012166,-0.0011284,-0.17846,0.012547,-9.8553,0,0,37.586,1,1,7746,3873
4024,4.5971e+07,2,-0.0042734,0.00093693,-0.00098377,-0.17859,0.013068,-9.8549,0,0,37.586,1,1,7746,3873
4027,4.5973e+07,2,-0.0041812,0.0007982,-0.00098048,-0.17975,0.013717,-9.8536,0,0,37.587,1,1,7746,3873
4058,4.5976e+07,2,-0.0039827,0.00099384,-0.0014429,-0.18005,0.015699,-9.8533,0,0,37.587,1,1,7746,3873
4062,4.5979e+07,2,-0.0051697,0.0010255,-0.0015275,-0.18035,0.019369,-9.855,0,0,37.587,1,1,7746,3873
4066,4.5981e+07,2,-0.00521,0.00020365,0.00014078,-0.18049,0.024414,-9.8579,0,0,37.587,1,1,7746,3873
4069,4.5983e+07,2,-0.0046393,-9.8809e-05,0.00074512,-0.18008,0.025905,-9.8574,0,0,37.587,1,1,7746,3873
4100,4.5986e+07,2,-0.0045363,0.00018298,0.00052376,-0.1791,0.025101,-9.8564,0,0,37.587,1,1,7746,3873
4103,4.5989e+07,2,-0.0044114,0.00021443,-0.00043783,-0.1776,0.022769,-9.8579,0,0,37.587,1,1,7746,3873
4106,4.5991e+07,2,-0.0047503,0.00058438,-0.0013313,-0.17691,0.021603,-9.8583,0,0,37.587,1,1,7746,3873
4109,4.5993e+07,2,-0.0063214,0.00050129,-0.0023729,-0.1755,0.02155,-9.8566,0,0,37.588,1,1,7746,3873
4140,4.5996e+07,2,-0.0067284,0.00076383,-0.0030254,-0.17433,0.023379,-9.8559,0,0,37.588,1,1,7746,3873
4144,4.5998e+07,2,-0.0062156,0.0011007,-0.0037198,-0.17352,0.02605,-9.856,0,0,37.588,1,1,7746,3873
4150,4.6002e+07,2,-0.0055738,0.00081003,-0.0037151,-0.17357,0.029792,-9.8568,0,0,37.588,1,1,7746,3873
4153,4.6004e+07,2,-0.0061516,0.00015608,-0.0019226,-0.17616,0.032474,-9.8534,0,0,37.588,1,1,7746,3873
4184,4.6006e+07,2,-0.0058372,-0.00048223,-0.00078749,-0.17651,0.03224,-9.8494,0,0,37.588,1,1,7746,3873
4187,4.6008e+07,2,-0.0046983,-0.00097982,-0.00043117,-0.17504,0.032118,-9.8446,0,0,37.588,1,1,7746,3873
4190,4.6015e+07,2,-0.0045374,8.4397e-06,0.0010972,-0.17348,0.030366,-9.8414,0,0,37.588,1,1,7746,3873
4193,4.6016e+07,2,-0.0043287,0.00061786,0.0012649,-0.17398,0.029649,-9.8433,0,0,37.588,1,1,7746,3873
4224,4.6018e+07,2,-0.0036871,0.00080565,0.00075536,-0.17431,0.029023,-9.8474,0,0,37.588,1,1,7746,3873
4228,4.6021e+07,2,-0.0032937,0.00078919,0.00037082,-0.17518,0.028551,-9.8511,0,0,37.588,1,1,7746,3873
4231,4.6024e+07,2,-0.0026365,2.8784e-05,0.00069784,-0.18006,0.027727,-9.854,0,0,37.588,1,1,7746,3873
4234,4.6027e+07,2,-0.0026906,-0.00041834,0.0002701,-0.18306,0.027852,-9.8549,0,0,37.589,1,1,7746,3873
4265,4.6029e+07,2,-0.0042102,-0.00092918,0.0006105,-0.18471,0.028914,-9.8568,0,0,37.589,1,1,7746,3873
4269,4.6031e+07,2,-0.0037462,-0.00067963,0.00044771,-0.18299,0.027432,-9.8598,0,0,37.589,1,1,7746,3873
4272,4.6034e+07,2,-0.0016874,0.00024661,0.0007006,-0.18201,0.027831,-9.8637,0,0,37.589,1,1,7746,3873
4275,4.6036e+07,2,-0.00024798,0.0011964,0.0011302,-0.18168,0.030135,-9.868,0,0,37.589,1,1,7746,3873
4306,4.604e+07,2,-0.00038512,0.0011807,0.001344,-0.18204,0.031441,-9.8679,0,0,37.589,1,1,7746,3873
4309,4.6042e+07,2,-0.0012911,0.0013845,0.0011261,-0.18316,0.035485,-9.866,0,0,37.589,1,1,7746,3873
4312,4.6044e+07,2,-0.0010109,0.0015525,0.0010768,-0.18373,0.036884,-9.8651,0,0,37.589,1,1,7746,3873
4315,4.6047e+07,2,-0.00049393,0.0016707,0.0013849,-0.1835,0.039048,-9.8657,0,0,37.589,1,1,7746,3873
4348,4.6049e+07,2,-0.00072146,0.0013258,0.0015293,-0.1815,0.039042,-9.8677,0,0,37.589,1,1,7746,3873
4352,4.6052e+07,2,0.00012307,0.0015097,0.00097092,-0.17833,0.039822,-9.8653,0,0,37.589,1,1,7746,3873
4355,4.6054e+07,2,0.00091704,0.0021902,0.00078152,-0.17674,0.040659,-9.8622,0,0,37.589,1,1,7746,3873
4358,4.6057e+07,2,0.0025501,0.0030491,0.00079318,-0.17528,0.042336,-9.8593,0,0,37.589,1,1,7746,3873
4389,4.6059e+07,2,0.0027368,0.0038084,0.00061177,-0.17453,0.044736,-9.8575,0,0,37.589,1,1,7746,3873
4392,4.6062e+07,2,0.0018819,0.0045979,0.00079567,-0.17236,0.047871,-9.8555,0,0,37.589,1,1,7746,3873
4395,4.6064e+07,2,0.0017725,0.0043815,0.0010941,-0.16941,0.048626,-9.8544,0,0,37.589,1,1,7746,3873
4398,4.6067e+07,2,0.0025275,0.0042623,0.0015562,-0.1654,0.048501,-9.854,0,0,37.589,1,1,7746,3873
4433,4.607e+07,2,0.0038099,0.004159,0.0024402,-0.16196,0.047041,-9.8538,0,0,37.589,1,1,7746,3873
4437,4.6073e+07,2,0.0034017,0.0034949,0.0022508,-0.16065,0.046443,-9.8525,0,0,37.589,1,1,7746,3873
4440,4.6074e+07,2,0.0023485,0.0029751,0.0013905,-0.15923,0.045184,-9.8524,0,0,37.589,1,1,7746,3873
4444,4.6077e+07,2,0.0026078,0.002751,0.00091494,-0.15815,0.043142,-9.854,0,0,37.589,1,1,7746,3873
4475,4.608e+07,2,0.0030683,0.0024477,0.00057256,-0.15703,0.039373,-9.8576,0,0,37.589,1,1,7746,3873
4478,4.6082e+07,2,0.0030108,0.0023288,0.0011486,-0.15563,0.03681,-9.8614,0,0,37.589,1,1,7746,3873
4481,4.6085e+07,2,0.0030822,0.0023069,0.0016498,-0.15174,0.033011,-9.869,0,0,37.589,1,1,7746,3873
4484,4.6087e+07,2,0.0029534,0.0019226,0.0015133,-0.14827,0.029759,-9.8734,0,0,37.589,1,1,7746,3873
4515,4.6089e+07,2,0.0021194,0.0011789,0.0010828,-0.14505,0.027125,-9.876,0,0,37.589,1,1,7746,3873
4519,4.6092e+07,2,0.0015778,0.0010295,0.00044811,-0.14445,0.025617,-9.8776,0,0,37.589,1,1,7746,3873
4522,4.6095e+07,2,0.0015953,0.00076481,-0.00082889,-0.14511,0.022044,-9.8814,0,0,37.589,1,1,7746,3873
4525,4.6097e+07,2,0.0013287,0.00091573,-0.0019821,-0.14662,0.021251,-9.8851,0,0,37.589,1,1,7746,3873
4556,4.6099e+07,2,0.0016282,0.000553,-0.0019923,-0.14935,0.02138,-9.8894,0,0,37.589,1,1,7746,3873
4560,4.6102e+07,2,0.0022879,0.00069022,-0.0018359,-0.15138,0.020592,-9.8905,0,0,37.589,1,1,7746,3873
4563,4.6105e+07,2,0.0027817,0.00055797,-0.0015386,-0.15332,0.019676,-9.8909,0,0,37.589,1,1,7746,3873
4566,4.6107e+07,2,0.0031205,9.6739e-05,-0.0011717,-0.1537,0.019524,-9.8905,0,0,37.589,1,1,7746,3873
4597,4.6111e+07,2,0.0033852,-0.00012736,-0.0011713,-0.15458,0.019278,-9.8866,0,0,37.589,1,1,7746,3873
4600,4.6112e+07,2,0.0028665,-0.00027083,-0.0010186,-0.15716,0.019308,-9.8825,0,0,37.589,1,1,7746,3873
4604,4.6115e+07,2,0.0023095,-0.00052596,-0.00090756,-0.159,0.02045,-9.8792,0,0,37.589,1,1,7746,3873
4607,4.612e+07,2,0.00072461,-0.00065414,-0.0028505,-0.161,0.024993,-9.8664,0,0,37.589,1,1,7746,3873
4638,4.6123e+07,2,0.00062741,-0.00048165,-0.0030121,-0.16092,0.02674,-9.8607,0,0,37.589,1,1,7746,3873
4642,4.6125e+07,2,0.0016097,-0.00085867,-0.0025284,-0.16015,0.027245,-9.8601,0,0,37.589,1,1,7746,3873
4646,4.6128e+07,2,0.0027858,-0.0012062,-0.0013888,-0.15997,0.02637,-9.8602,0,0,37.589,1,1,7746,3873
4649,4.6131e+07,2,0.00089475,-0.001125,-0.00094507,-0.15941,0.024705,-9.8653,0,0,37.589,1,1,7746,3873
4680,4.6133e+07,2,-0.0013443,-0.00070896,-0.00034233,-0.15915,0.02299,-9.8707,0,0,37.589,1,1,7746,3873
4683,4.6135e+07,2,-0.0032874,0.000291,0.00041936,-0.16139,0.019099,-9.8768,0,0,37.589,1,1,7746,3873
4686,4.6138e+07,2,-0.0028288,-0.0001791,0.00010609,-0.1629,0.016402,-9.8773,0,0,37.589,1,1,7746,3873
4689,4.6141e+07,2,-0.0025834,-0.00068868,-5.6773e-05,-0.16302,0.014946,-9.8768,0,0,37.589,1,1,7746,3873
4720,4.6143e+07,2,-0.0028783,-0.00098575,2.4187e-05,-0.16295,0.010692,-9.8738,0,0,37.589,1,1,7746,3873
4724,4.6145e+07,2,-0.0032029,0.00049964,-0.00025403,-0.16418,0.01016,-9.8693,0,0,37.589,1,1,7746,3873
4727,4.6148e+07,2,-0.0037404,0.0010958,-0.0017424,-0.16518,0.012738,-9.8659,0,0,37.589,1,1,7746,3873
4730,4.615e+07,2,-0.0038243,0.00090213,-0.0027086,-0.1657,0.016086,-9.8624,0,0,37.589,1,1,7746,3873
4761,4.6153e+07,2,-0.0051884,0.00075678,-0.0017877,-0.16732,0.018593,-9.8564,0,0,37.589,1,1,7746,3873
4765,4.6155e+07,2,-0.0059853,0.0009418,-0.0010561,-0.16805,0.021831,-9.851,0,0,37.589,1,1,7746,3873
4768,4.6158e+07,2,-0.0055454,0.00088361,-0.00085978,-0.16763,0.02462,-9.8488,0,0,37.589,1,1,7746,3873
4771,4.616e+07,2,-0.0056433,-0.00047098,-0.0014519,-0.16484,0.027529,-9.8414,0,0,37.589,1,1,7746,3873
4802,4.6163e+07,2,-0.0058802,-0.00021405,-0.0018937,-0.16248,0.028503,-9.8381,0,0,37.589,1,1,7746,3873
4805,4.6166e+07,2,-0.0058725,-0.0003833,-0.0022841,-0.16086,0.028221,-9.8373,0,0,37.589,1,1,7746,3873
4808,4.6168e+07,2,-0.005482,8.7037e-06,-0.0022397,-0.16116,0.02696,-9.8394,0,0,37.589,1,1,7746,3873
4815,4.6171e+07,2,-0.0053361,0.00075737,-0.0014327,-0.16126,0.025792,-9.842,0,0,37.589,1,1,7746,3873
4846,4.6173e+07,2,-0.0052415,0.0012582,-0.0018948,-0.1608,0.023895,-9.8453,0,0,37.589,1,1,7746,3873
4850,4.6176e+07,2,-0.0050066,0.0014637,-0.0020066,-0.16078,0.02341,-9.8472,0,0,37.589,1,1,7746,3873
4853,4.6179e+07,2,-0.0045659,0.002446,-0.0011169,-0.16289,0.025912,-9.8496,0,0,37.589,1,1,7746,3873
4856,4.6181e+07,2,-0.0044107,0.0027579,-0.00072386,-0.16536,0.027943,-9.8509,0,0,37.589,1,1,7746,3873
4887,4.6184e+07,2,-0.0050472,0.0032517,-0.00014974,-0.16904,0.030507,-9.8527,0,0,37.589,1,1,7746,3873
4890,4.6186e+07,2,-0.0051399,0.0034319,0.00031082,-0.1717,0.031436,-9.8564,0,0,37.589,1,1,7746,3873
4893,4.6189e+07,2,-0.0042159,0.0026688,0.00058139,-0.17517,0.032045,-9.8617,0,0,37.589,1,1,7746,3873
4897,4.6191e+07,2,-0.0038194,0.0020251,0.00036985,-0.17772,0.032948,-9.8627,0,0,37.589,1,1,7746,3873
4928,4.6193e+07,2,-0.0031456,0.0014074,-0.00015458,-0.18176,0.034089,-9.8626,0,0,37.589,1,1,7746,3873
4932,4.6196e+07,2,-0.0031178,0.00106,0.00017503,-0.18318,0.034741,-9.8622,0,0,37.589,1,1,7746,3873
4935,4.6199e+07,2,-0.0021467,0.0010315,0.00090467,-0.18395,0.035722,-9.8609,0,0,37.589,1,1,7746,3873
4938,4.6201e+07,2,-0.0017652,0.0012652,0.0009087,-0.18424,0.037274,-9.8608,0,0,37.589,1,1,7746,3873
4971,4.6204e+07,2,-0.0015915,0.0012969,0.0016382,-0.1842,0.039294,-9.8601,0,0,37.589,1,1,7746,3873
4974,4.6206e+07,2,-0.0016624,0.0010398,0.0023934,-0.18437,0.038539,-9.8572,0,0,37.589,1,1,7746,3873
4977,4.6209e+07,2,-0.0018875,0.0017562,0.0017918,-0.18449,0.035994,-9.8522,0,0,37.589,1,1,7746,3873
4980,4.6212e+07,2,-0.0012807,0.0025809,0.0012298,-0.18407,0.035367,-9.8494,0,0,37.589,1,1,7746,3873
5011,4.6214e+07,2,-0.00097534,0.0027784,-1.6784e-05,-0.18334,0.037406,-9.8466,0,0,37.589,1,1,7746,3873
5015,4.6216e+07,2,-0.0006211,0.0012922,-0.00043676,-0.18508,0.04069,-9.8456,0,0,37.589,1,1,7746,3873
5019,4.6219e+07,2,-0.00042867,0.00082888,-0.0003617,-0.18646,0.043121,-9.845,0,0,37.589,1,1,7746,3873
5022,4.6221e+07,2,-0.00043399,0.0010276,-9.2757e-05,-0.18729,0.046735,-9.8466,0,0,37.589,1,1,7746,3873
5053,4.6225e+07,2,0.00029463,0.0016281,-0.00020965,-0.18749,0.04898,-9.8491,0,0,37.589,1,1,7746,3873
5056,4.6228e+07,2,0.0013927,0.0013605,0.001182,-0.18632,0.051009,-9.8518,0,0,37.589,1,1,7746,3873
5060,4.6229e+07,2,0.0020589,0.0013086,0.0015086,-0.1833,0.051869,-9.8524,0,0,37.589,1,1,7746,3873
5063,4.6232e+07,2,0.0023674,0.0019174,0.0009771,-0.18232,0.051644,-9.8518,0,0,37.589,1,1,7746,3873
5094,4.6235e+07,2,0.0022792,0.0020513,0.00026445,-0.18029,0.050034,-9.8513,0,0,37.589,1,1,7746,3873
5097,4.6238e+07,2,0.0020248,0.002146,0.00054349,-0.17858,0.048428,-9.8512,0,0,37.589,1,1,7746,3873
5100,4.624e+07,2,0.0016419,0.0019845,0.0015125,-0.17698,0.047905,-9.8518,0,0,37.59,1,1,7746,3873
5104,4.6241e+07,2,0.0016645,0.0012051,0.0017859,-0.17625,0.048064,-9.8548,0,0,37.59,1,1,7746,3873
5135,4.6244e+07,2,0.0019541,0.00079354,0.00081265,-0.17662,0.047748,-9.8569,0,0,37.59,1,1,7746,3873
5138,4.6247e+07,2,0.0027982,0.00039047,-0.00014535,-0.17855,0.046288,-9.8589,0,0,37.59,1,1,7746,3873
5142,4.625e+07,2,0.0033852,0.00016557,-0.00023786,-0.18013,0.044008,-9.8596,0,0,37.59,1,1,7746,3873
5145,4.6252e+07,2,0.004617,9.0189e-05,0.00059165,-0.18251,0.0394,-9.8574,0,0,37.59,1,1,7746,3873
5176,4.6255e+07,2,0.0047014,0.0001883,0.00078174,-0.18345,0.036572,-9.8563,0,0,37.59,1,1,7746,3873
5179,4.6257e+07,2,0.0038971,-0.00067127,0.00037071,-0.18317,0.033955,-9.856,0,0,37.59,1,1,7746,3873
5183,4.626e+07,2,0.0033824,-0.00097425,0.0012096,-0.1821,0.032625,-9.8546,0,0,37.59,1,1,7746,3873
5186,4.6262e+07,2,0.0035204,-0.00052528,0.001339,-0.17876,0.030681,-9.8548,0,0,37.591,1,1,7746,3873
5217,4.6264e+07,2,0.0028215,0.00033209,0.00034038,-0.17524,0.029496,-9.8565,0,0,37.591,1,1,7746,3873
5220,4.6267e+07,2,0.0022774,0.00020011,-0.00025348,-0.17228,0.026463,-9.8588,0,0,37.591,1,1,7746,3873
5223,4.627e+07,2,0.00079217,0.00010303,-0.0014432,-0.16959,0.021659,-9.8591,0,0,37.591,1,1,7746,3873
5230,4.6273e+07,2,0.0006533,0.00035214,-0.0018727,-0.1687,0.019664,-9.8587,0,0,37.591,1,1,7746,3873
5261,4.6276e+07,2,0.0012359,0.00038148,-0.003187,-0.16682,0.019534,-9.8621,0,0,37.591,1,1,7746,3873
5264,4.6277e+07,2,0.001573,0.00078622,-0.002783,-0.16655,0.020155,-9.8661,0,0,37.592,1,1,7746,3873
5269,4.628e+07,2,0.00059717,0.0012747,-0.0014597,-0.16697,0.020839,-9.871,0,0,37.592,1,1,7746,3873
5272,4.6282e+07,2,0.00046121,0.0011713,-5.2626e-05,-0.16786,0.021235,-9.8764,0,0,37.592,1,1,7746,3873
5303,4.6285e+07,2,-0.00039072,0.0019979,0.00073776,-0.16688,0.022964,-9.8848,0,0,37.592,1,1,7746,3873
5306,4.6288e+07,2,-0.0010475,0.0025503,-0.00062509,-0.16509,0.023351,-9.8885,0,0,37.592,1,1,7746,3873
5309,4.6289e+07,2,-0.0010693,0.0031969,-0.0018745,-0.16349,0.023998,-9.8907,0,0,37.592,1,1,7746,3873
5312,4.6292e+07,2,-0.0011963,0.0030495,-0.0013676,-0.16378,0.024423,-9.8889,0,0,37.592,1,1,7746,3873
5343,4.6295e+07,2,-0.0026979,0.0034076,0.00090956,-0.16537,0.025371,-9.8847,0,0,37.592,1,1,7746,3873
5346,4.6297e+07,2,-0.0029913,0.0038343,0.0019491,-0.16614,0.025643,-9.8834,0,0,37.593,1,1,7746,3873
5350,4.63e+07,2,-0.0030315,0.0033697,0.0017291,-0.16996,0.025718,-9.8786,0,0,37.593,1,1,7746,3873
5353,4.6302e+07,2,-0.0031871,0.0025202,0.00035562,-0.17244,0.024946,-9.8753,0,0,37.593,1,1,7746,3873
5384,4.6304e+07,2,-0.0031231,0.0016155,-0.00071029,-0.17501,0.022065,-9.8726,0,0,37.593,1,1,7746,3873
5387,4.6308e+07,2,-0.0031632,0.0016511,1.3247e-05,-0.17602,0.019722,-9.8705,0,0,37.593,1,1,7746,3873
5390,4.631e+07,2,-0.0032627,0.0023782,0.0020328,-0.17613,0.016105,-9.8663,0,0,37.593,1,1,7746,3873
5393,4.6312e+07,2,-0.0034907,0.002871,0.0026613,-0.17568,0.014658,-9.8624,0,0,37.593,1,1,7746,3873
5424,4.6314e+07,2,-0.0039228,0.0029771,0.0031523,-0.17802,0.014935,-9.8567,0,0,37.593,1,1,7746,3873
5427,4.6317e+07,2,-0.0042274,0.0029126,0.00233,-0.1804,0.015691,-9.854,0,0,37.594,1,1,7746,3873
5431,4.632e+07,2,-0.0045914,0.0030953,0.00065885,-0.18212,0.015664,-9.8529,0,0,37.594,1,1,7746,3873
5434,4.6324e+07,2,-0.0050933,0.0026223,-0.00012212,-0.18215,0.015321,-9.8532,0,0,37.594,1,1,7746,3873
5437,4.6325e+07,2,-0.0056758,0.0018099,-0.00093265,-0.18084,0.017108,-9.8573,0,0,37.594,1,1,7746,3873
5468,4.6327e+07,2,-0.0063367,0.0015264,-0.00068411,-0.17924,0.018217,-9.8615,0,0,37.594,1,1,7746,3873
5471,4.633e+07,2,-0.0063176,0.0018029,-0.00043221,-0.17674,0.018338,-9.8638,0,0,37.594,1,1,7746,3873
5474,4.6333e+07,2,-0.0061949,0.0018101,0.00027181,-0.17252,0.020231,-9.8601,0,0,37.594,1,1,7746,3873
5477,4.6336e+07,2,-0.0060541,0.0018004,0.00042982,-0.16971,0.021759,-9.856,0,0,37.594,1,1,7746,3873
5508,4.6338e+07,2,-0.0065137,0.0019837,-0.00011053,-0.16508,0.02359,-9.851,0,0,37.595,1,1,7746,3873
5512,4.6341e+07,2,-0.0062418,0.0011889,-0.0012948,-0.16155,0.02664,-9.8487,0,0,37.595,1,1,7746,3873
5515,4.6343e+07,2,-0.0063069,0.00051132,-0.00088013,-0.16023,0.029504,-9.8467,0,0,37.595,1,1,7746,3873
5519,4.6346e+07,2,-0.005477,0.0002531,0.00084967,-0.15862,0.034392,-9.8447,0,0,37.595,1,1,7746,3873
5550,4.6349e+07,2,-0.0046992,0.00040188,0.001737,-0.15805,0.039916,-9.8471,0,0,37.595,1,1,7746,3873
5555,4.6351e+07,2,-0.0046029,0.00011095,0.0018532,-0.15816,0.042919,-9.8506,0,0,37.595,1,1,7746,3873
5558,4.6353e+07,2,-0.0043073,-6.8832e-05,0.001628,-0.15822,0.047688,-9.8551,0,0,37.595,1,1,7746,3873
5561,4.6356e+07,2,-0.0041945,0.00022582,0.00053474,-0.15701,0.051526,-9.8545,0,0,37.596,1,1,7746,3873
5592,4.6359e+07,2,-0.0031598,-0.00046912,-4.4914e-06,-0.15502,0.054606,-9.8533,0,0,37.596,1,1,7746,3873
5595,4.6361e+07,2,-0.002546,-0.0011504,0.00030696,-0.15329,0.057256,-9.8527,0,0,37.596,1,1,7746,3873
5598,4.6364e+07,2,-0.0028055,-0.0011162,0.00044583,-0.15116,0.060872,-9.8534,0,0,37.596,1,1,7746,3873
5601,4.6366e+07,2,-0.0030385,-0.0008769,0.00068765,-0.14993,0.062436,-9.853,0,0,37.596,1,1,7746,3873
5632,4.6369e+07,2,-0.002384,-0.00089835,0.0011626,-0.1493,0.064037,-9.8493,0,0,37.596,1,1,7746,3873
5636,4.6372e+07,2,-0.0018358,-0.0012992,0.00092692,-0.14891,0.064233,-9.8459,0,0,37.596,1,1,7746,3873
5643,4.6374e+07,2,-0.0016934,-0.0016,0.00023003,-0.14837,0.063474,-9.8415,0,0,37.596,1,1,7746,3873
5646,4.6377e+07,2,-0.00071598,-0.0015447,-0.00021955,-0.14996,0.060091,-9.8355,0,0,37.596,1,1,7746,3873
5677,4.6379e+07,2,0.00016626,-0.0013028,0.00015799,-0.15321,0.058222,-9.8323,0,0,37.596,1,1,7746,3873
5680,4.6382e+07,2,0.0012071,-0.0006673,0.00059715,-0.16011,0.05643,-9.8296,0,0,37.597,1,1,7746,3873
5683,4.6384e+07,2,0.0013096,0.00017487,0.00037958,-0.16498,0.055375,-9.8315,0,0,37.597,1,1,7746,3873
5687,4.6387e+07,2,0.00073609,0.00023057,-7.6686e-06,-0.1703,0.052828,-9.8375,0,0,37.597,1,1,7746,3873
5718,4.639e+07,2,0.00056734,3.2749e-05,-0.00054728,-0.17261,0.050415,-9.843,0,0,37.597,1,1,7746,3873
5722,4.6392e+07,2,0.00028381,-0.00044767,-0.00025378,-0.17391,0.048061,-9.8508,0,0,37.597,1,1,7746,3873
5725,4.6395e+07,2,8.6348e-05,-0.0010086,0.00074915,-0.17467,0.046575,-9.8591,0,0,37.597,1,1,7746,3873
5728,4.6397e+07,2,0.00064558,-0.0005947,0.00092395,-0.17413,0.045239,-9.868,0,0,37.597,1,1,7746,3873
5759,4.6399e+07,2,0.0022707,1.1523e-05,0.0012069,-0.17218,0.044156,-9.8736,0,0,37.598,1,1,7746,3873
5762,4.6402e+07,2,0.0026552,0.00025837,0.00074225,-0.17129,0.043286,-9.8778,0,0,37.598,1,1,7746,3873
5765,4.6404e+07,2,0.0031693,0.00021627,0.00025912,-0.1705,0.041889,-9.8811,0,0,37.598,1,1,7746,3873
5768,4.6407e+07,2,0.0043449,0.000284,-0.00046059,-0.16686,0.040738,-9.8795,0,0,37.598,1,1,7746,3873
5801,4.641e+07,2,0.0036287,0.0011049,-0.00022738,-0.164,0.039152,-9.8752,0,0,37.598,1,1,7746,3873
5805,4.6412e+07,2,0.0035587,0.0022198,-0.00054651,-0.16335,0.037448,-9.8717,0,0,37.598,1,1,7746,3873
5808,4.6416e+07,2,0.004952,0.0029617,-0.00058815,-0.16444,0.036809,-9.8665,0,0,37.598,1,1,7746,3873
5811,4.6417e+07,2,0.0047598,0.0038942,-0.00012632,-0.1686,0.040137,-9.8658,0,0,37.598,1,1,7746,3873
5842,4.6422e+07,2,0.0036239,0.0032593,0.001108,-0.17192,0.042378,-9.8671,0,0,37.599,1,1,7746,3873
5846,4.6426e+07,2,0.0029569,0.003093,0.0016279,-0.17175,0.042245,-9.8657,0,0,37.599,1,1,7746,3873
5849,4.6427e+07,2,0.003082,0.0028885,0.0010121,-0.17126,0.038838,-9.8635,0,0,37.599,1,1,7746,3873
5880,4.643e+07,2,0.0036067,0.0029363,-0.00043321,-0.17041,0.034108,-9.862,0,0,37.599,1,1,7746,3873
5883,4.6433e+07,2,0.0032778,0.0031026,-0.0017548,-0.16923,0.025787,-9.8606,0,0,37.599,1,1,7746,3873
5887,4.6436e+07,2,0.0032801,0.0037028,-0.002435,-0.16875,0.021327,-9.8614,0,0,37.599,1,1,7746,3873
5890,4.6438e+07,2,0.0026439,0.0037227,-0.002232,-0.16856,0.017031,-9.8654,0,0,37.599,1,1,7746,3873
5921,4.644e+07,2,0.0023925,0.002519,-0.0025044,-0.17008,0.014114,-9.8712,0,0,37.599,1,1,7746,3873
5924,4.6443e+07,2,0.0016248,0.002402,-0.0015487,-0.17102,0.012221,-9.8749,0,0,37.599,1,1,7746,3873
5929,4.6446e+07,2,0.00019466,0.0024641,-0.00096893,-0.17285,0.010841,-9.8786,0,0,37.6,1,1,7746,3873
5932,4.6448e+07,2,-0.00093106,0.0024145,-0.0011053,-0.17411,0.011245,-9.8792,0,0,37.6,1,1,7746,3873
5963,4.6451e+07,2,-0.0022566,0.0025059,-0.00057565,-0.17517,0.012617,-9.8783,0,0,37.6,1,1,7746,3873
5966,4.6453e+07,2,-0.002217,0.0028175,-0.00028781,-0.17519,0.01327,-9.8769,0,0,37.6,1,1,7746,3873
5969,4.6455e+07,2,-0.0016838,0.0031161,0.00049647,-0.17533,0.014865,-9.872,0,0,37.6,1,1,7746,3873
5972,4.6458e+07,2,-0.00077889,0.0030657,0.00049675,-0.17479,0.016317,-9.8694,0,0,37.6,1,1,7746,3873
6003,4.6461e+07,2,0.00010041,0.0025191,-0.00042984,-0.17321,0.016023,-9.8708,0,0,37.6,1,1,7746,3873
6006,4.6464e+07,2,-0.00078197,0.002122,-0.0014518,-0.17392,0.013741,-9.8719,0,0,37.6,1,1,7746,3873
6010,4.6466e+07,2,-0.0021193,0.0016322,-0.0017448,-0.17468,0.013627,-9.8712,0,0,37.6,1,1,7746,3873
6013,4.6469e+07,2,-0.0041239,0.00056223,-0.00085128,-0.17632,0.016755,-9.8688,0,0,37.6,1,1,7746,3873
6044,4.6471e+07,2,-0.0045165,0.00015056,1.279e-05,-0.1784,0.019735,-9.8635,0,0,37.6,1,1,7746,3873
6047,4.6474e+07,2,-0.0045079,-0.00028861,0.00034456,-0.17964,0.020287,-9.8609,0,0,37.6,1,1,7746,3873
6055,4.6477e+07,2,-0.0045875,-0.0010861,-0.00023248,-0.18123,0.020905,-9.859,0,0,37.601,1,1,7746,3873
6059,4.6478e+07,2,-0.0038854,-0.00013043,-0.000643,-0.1831,0.022621,-9.8566,0,0,37.601,1,1,7746,3873
6090,4.6482e+07,2,-0.003922,0.00075577,-6.3156e-05,-0.18393,0.023092,-9.8561,0,0,37.601,1,1,7746,3873
6093,4.6484e+07,2,-0.0039837,0.00044414,-0.0001257,-0.18433,0.024397,-9.8549,0,0,37.601,1,1,7746,3873
6096,4.6487e+07,2,-0.0041112,0.00016968,-5.0308e-05,-0.18525,0.02568,-9.8522,0,0,37.601,1,1,7746,3873
6099,4.6488e+07,2,-0.0041621,0.00036505,-0.00021689,-0.18562,0.025752,-9.8481,0,0,37.601,1,1,7746,3873
6130,4.6491e+07,2,-0.0043772,0.00085891,7.2854e-05,-0.18471,0.024623,-9.8468,0,0,37.601,1,1,7746,3873
6133,4.6494e+07,2,-0.0050818,0.0010013,0.00086199,-0.18259,0.023363,-9.8472,0,0,37.601,1,1,7746,3873
6137,4.6496e+07,2,-0.0049454,0.00023233,0.0015579,-0.18178,0.022261,-9.8484,0,0,37.601,1,1,7746,3873
6140,4.6499e+07,2,-0.005468,-0.00096664,0.00065227,-0.18043,0.020896,-9.8516,0,0,37.601,1,1,7746,3873
6171,4.6501e+07,2,-0.0057214,-0.00058004,-8.8197e-05,-0.17701,0.020806,-9.8555,0,0,37.601,1,1,7746,3873
6174,4.6504e+07,2,-0.0059576,0.00028346,-0.00061676,-0.17593,0.021028,-9.8566,0,0,37.601,1,1,7746,3873
6177,4.6507e+07,2,-0.0055348,0.0015028,-0.00094031,-0.17557,0.020744,-9.8578,0,0,37.601,1,1,7746,3873
6180,4.6509e+07,2,-0.0051138,0.0021542,-0.00019866,-0.17645,0.020741,-9.8588,0,0,37.602,1,1,7746,3873
6211,4.6512e+07,2,-0.0051872,0.0015783,0.00019607,-0.17754,0.022495,-9.8612,0,0,37.602,1,1,7746,3873
6214,4.6514e+07,2,-0.0049262,0.0011517,0.0013246,-0.17712,0.024676,-9.8656,0,0,37.602,1,1,7746,3873
6218,4.6516e+07,2,-0.0026286,0.0010047,0.00050318,-0.17547,0.026691,-9.8701,0,0,37.602,1,1,7746,3873
6221,4.6519e+07,2,-0.0020615,0.00095431,0.0003847,-0.17403,0.028991,-9.8731,0,0,37.602,1,1,7746,3873
6252,4.6525e+07,2,-0.0009785,0.0016543,0.00073849,-0.16562,0.034799,-9.8746,0,0,37.602,1,1,7746,3873
6255,4.6527e+07,2,-0.0010839,0.0020879,0.0011168,-0.16443,0.035133,-9.8722,0,0,37.602,1,1,7746,3873
6258,4.6529e+07,2,-0.00085649,0.0026491,0.0011712,-0.16349,0.034954,-9.8697,0,0,37.602,1,1,7746,3873
6289,4.6532e+07,2,-0.0010518,0.0027907,-0.00032681,-0.16121,0.035099,-9.8683,0,0,37.602,1,1,7746,3873
6292,4.6535e+07,2,-0.00040383,0.0026923,-0.00062243,-0.16114,0.034885,-9.8649,0,0,37.602,1,1,7746,3873
6296,4.6537e+07,2,0.00016124,0.0025721,0.0006778,-0.16325,0.036083,-9.8592,0,0,37.602,1,1,7746,3873
6300,4.6539e+07,2,0.00052207,0.0026457,0.0010947,-0.16599,0.036179,-9.8565,0,0,37.602,1,1,7746,3873
6333,4.6542e+07,2,5.0191e-05,0.0031995,0.0013749,-0.17129,0.036367,-9.8539,0,0,37.602,1,1,7746,3873
6337,4.6544e+07,2,0.00014446,0.0034599,0.001786,-0.17429,0.036789,-9.8528,0,0,37.602,1,1,7746,3873
6341,4.6547e+07,2,0.00047537,0.0038358,0.0014357,-0.17675,0.037334,-9.8524,0,0,37.602,1,1,7746,3873
6345,4.655e+07,2,0.00084668,0.0040234,0.0012191,-0.17763,0.037065,-9.8512,0,0,37.602,1,1,7746,3873
6376,4.6552e+07,2,0.00050474,0.0042687,0.0011271,-0.17439,0.035346,-9.85,0,0,37.602,1,1,7746,3873
6379,4.6555e+07,2,0.00071502,0.0046007,0.00048672,-0.17265,0.034758,-9.8521,0,0,37.602,1,1,7746,3873
6382,4.6558e+07,2,0.0014943,0.0042016,-0.00067403,-0.17155,0.035823,-9.8546,0,0,37.603,1,1,7746,3873
6385,4.656e+07,2,0.0018047,0.0037655,-0.0010905,-0.17189,0.03579,-9.8539,0,0,37.603,1,1,7746,3873
6416,4.6563e+07,2,0.0025719,0.0030669,0.00032932,-0.17189,0.034387,-9.853,0,0,37.603,1,1,7746,3873
6419,4.6565e+07,2,0.0026575,0.0025175,-0.00038133,-0.17229,0.032648,-9.8521,0,0,37.603,1,1,7746,3873
6423,4.6567e+07,2,0.0020136,0.002093,-0.00065109,-0.17155,0.031714,-9.8503,0,0,37.603,1,1,7746,3873
6426,4.6571e+07,2,0.001636,0.0013346,-0.00060356,-0.16918,0.032345,-9.8476,0,0,37.603,1,1,7746,3873
6457,4.6573e+07,2,0.0025189,0.00054506,-0.00059115,-0.17032,0.030687,-9.8479,0,0,37.603,1,1,7746,3873
6460,4.6576e+07,2,0.0030984,0.0020205,-0.00044036,-0.17304,0.028733,-9.8516,0,0,37.603,1,1,7746,3873
6467,4.6578e+07,2,0.0030723,0.002801,0.00012298,-0.17382,0.029256,-9.8552,0,0,37.603,1,1,7746,3873
6470,4.6581e+07,2,0.0026494,0.0027303,0.00035981,-0.17353,0.032124,-9.8588,0,0,37.603,1,1,7746,3873
6501,4.6583e+07,2,0.0018093,0.0016082,-0.00017311,-0.17187,0.037483,-9.8636,0,0,37.603,1,1,7746,3873
6504,4.6586e+07,2,0.0016085,0.0012993,-0.0006468,-0.16989,0.040019,-9.8664,0,0,37.603,1,1,7746,3873
6509,4.6588e+07,2,0.0010733,0.001169,-0.0010045,-0.16725,0.041829,-9.868,0,0,37.603,1,1,7746,3873
6512,4.6591e+07,2,0.00079954,0.00088625,-0.00082261,-0.16242,0.044026,-9.8674,0,0,37.603,1,1,7746,3873
6545,4.6594e+07,2,0.00078971,8.2964e-05,-0.0018832,-0.15988,0.045328,-9.8667,0,0,37.603,1,1,7746,3873
6548,4.6596e+07,2,0.0013466,-0.00033412,-0.0025707,-0.15845,0.046405,-9.8667,0,0,37.604,1,1,7746,3873
6551,4.6599e+07,2,0.0018985,-0.00074666,-0.0024659,-0.15864,0.04569,-9.8647,0,0,37.604,1,1,7746,3873
6554,4.6601e+07,2,0.0020847,-0.0010923,-0.0023827,-0.16089,0.043155,-9.8649,0,0,37.604,1,1,7746,3873
6585,4.6603e+07,2,0.0013133,-0.00079659,-0.0016833,-0.16452,0.040697,-9.8669,0,0,37.604,1,1,7746,3873
6588,4.6606e+07,2,0.00066217,-2.852e-05,-0.00049496,-0.16916,0.037248,-9.8669,0,0,37.604,1,1,7746,3873
6592,4.6608e+07,2,4.9702e-05,7.8252e-05,8.9631e-05,-0.17099,0.034972,-9.8631,0,0,37.604,1,1,7746,3873
6595,4.6611e+07,2,-0.00016033,7.4497e-05,0.00053384,-0.17212,0.032367,-9.8577,0,0,37.604,1,1,7746,3873
6626,4.6613e+07,2,-0.00074032,-0.00030732,0.00080779,-0.17179,0.029721,-9.8531,0,0,37.604,1,1,7746,3873
6629,4.6616e+07,2,-0.00092043,-0.00036655,0.00090744,-0.17038,0.028163,-9.8529,0,0,37.604,1,1,7746,3873
6633,4.6621e+07,2,-0.0010132,0.00098659,-0.00026745,-0.16503,0.024228,-9.8609,0,0,37.604,1,1,7746,3873
6664,4.6625e+07,2,-0.0018913,0.0015036,-0.0022021,-0.16378,0.021701,-9.8658,0,0,37.604,1,1,7746,3873
6667,4.6626e+07,2,-0.0021916,0.001395,-0.00097226,-0.16566,0.019832,-9.8653,0,0,37.605,1,1,7746,3873
6670,4.6629e+07,2,-0.0028912,0.0012108,8.7466e-05,-0.16749,0.02059,-9.8633,0,0,37.605,1,1,7746,3873
6673,4.6631e+07,2,-0.0031134,0.00080063,0.00027684,-0.1688,0.022482,-9.8618,0,0,37.605,1,1,7746,3873
6704,4.6634e+07,2,-0.0031492,0.00046587,-2.8692e-06,-0.17082,0.024009,-9.8599,0,0,37.605,1,1,7746,3873
6707,4.6636e+07,2,-0.0032568,0.00053891,-0.00022763,-0.17209,0.024977,-9.8583,0,0,37.605,1,1,7746,3873
6712,4.6639e+07,2,-0.0029386,0.0010135,-3.3446e-06,-0.17299,0.025809,-9.8544,0,0,37.605,1,1,7746,3873
6715,4.6642e+07,2,-0.003412,0.00083196,-0.0002193,-0.17311,0.026096,-9.8498,0,0,37.605,1,1,7746,3873
6746,4.6644e+07,2,-0.0034651,0.0004429,0.00018577,-0.17381,0.026026,-9.8495,0,0,37.605,1,1,7746,3873
6749,4.6647e+07,2,-0.0041434,0.00048695,0.00086972,-0.17653,0.02708,-9.849,0,0,37.605,1,1,7746,3873
6753,4.6649e+07,2,-0.004505,-3.5307e-05,0.00075712,-0.17788,0.028887,-9.8484,0,0,37.605,1,1,7746,3873
6756,4.6652e+07,2,-0.0043883,0.00094716,-0.00063174,-0.17938,0.030942,-9.8497,0,0,37.605,1,1,7746,3873
6787,4.6654e+07,2,-0.0042309,0.0016639,-0.0010886,-0.17996,0.03129,-9.8508,0,0,37.605,1,1,7746,3873
6790,4.6657e+07,2,-0.00397,0.0011885,-0.0010277,-0.18024,0.030678,-9.851,0,0,37.605,1,1,7746,3873
6794,4.6659e+07,2,-0.0035478,0.00078233,-0.00053064,-0.18069,0.030756,-9.8516,0,0,37.605,1,1,7746,3873
6797,4.6662e+07,2,-0.0032309,0.0019131,-0.0007743,-0.17986,0.031448,-9.8523,0,0,37.605,1,1,7746,3873
6828,4.6664e+07,2,-0.0027885,0.0028238,-0.00084519,-0.17807,0.03172,-9.8514,0,0,37.605,1,1,7746,3873
6831,4.6667e+07,2,-0.0027482,0.0030453,0.00024382,-0.17444,0.034426,-9.8521,0,0,37.605,1,1,7746,3873
6834,4.6669e+07,2,-0.003597,0.0026035,0.00023846,-0.17215,0.035688,-9.8544,0,0,37.605,1,1,7746,3873
6838,4.6672e+07,2,-0.0034173,0.0029816,0.00089512,-0.17049,0.03585,-9.8547,0,0,37.605,1,1,7746,3873
6869,4.6674e+07,2,-0.003435,0.002945,0.00072923,-0.16997,0.03512,-9.8534,0,0,37.605,1,1,7746,3873
6872,4.6677e+07,2,-0.0033814,0.0021318,0.00026371,-0.17058,0.033425,-9.8519,0,0,37.605,1,1,7746,3873
6880,4.6679e+07,2,-0.0025518,0.0019995,0.00023157,-0.171,0.032637,-9.8506,0,0,37.605,1,1,7746,3873
6883,4.6681e+07,2,-0.0025386,0.0027937,0.0010066,-0.17111,0.033881,-9.8519,0,0,37.605,1,1,7746,3873
6914,4.6684e+07,2,-0.0032896,0.0028012,0.0017506,-0.17131,0.034716,-9.8528,0,0,37.606,1,1,7746,3873
6917,4.6687e+07,2,-0.0032473,0.0026514,0.0016804,-0.17376,0.033713,-9.8526,0,0,37.606,1,1,7746,3873
6921,4.6689e+07,2,-0.002832,0.0024925,0.00093611,-0.17607,0.032886,-9.8519,0,0,37.606,1,1,7746,3873
6924,4.6691e+07,2,-0.0023221,0.0019255,0.00058629,-0.17713,0.033661,-9.8519,0,0,37.606,1,1,7746,3873
6955,4.6694e+07,2,-0.0024543,0.0023335,0.0010456,-0.17711,0.035033,-9.8517,0,0,37.606,1,1,7746,3873
6958,4.6697e+07,2,-0.0029371,0.0024915,0.00086143,-0.17538,0.036408,-9.85,0,0,37.606,1,1,7746,3873
6961,4.6699e+07,2,-0.0023173,0.001654,0.001354,-0.17488,0.037843,-9.8487,0,0,37.606,1,1,7746,3873
6964,4.6702e+07,2,-0.0010894,0.0011227,0.0016456,-0.17538,0.041117,-9.8493,0,0,37.606,1,1,7746,3873
6995,4.6704e+07,2,-0.0010732,0.0011139,0.0012236,-0.17591,0.042437,-9.8496,0,0,37.606,1,1,7746,3873
6998,4.6707e+07,2,-0.00047519,0.0006797,0.00044958,-0.1783,0.046385,-9.8492,0,0,37.606,1,1,7746,3873
7002,4.6709e+07,2,0.00048854,0.00014777,0.00014956,-0.18,0.047758,-9.85,0,0,37.606,1,1,7746,3873
7005,4.6712e+07,2,0.001746,0.00057143,-0.00033234,-0.18033,0.047671,-9.8536,0,0,37.606,1,1,7746,3873
7036,4.6715e+07,2,0.0019228,0.00066651,-0.00023137,-0.17976,0.047307,-9.8578,0,0,37.606,1,1,7746,3873
7039,4.6717e+07,2,0.0018776,0.0012483,-2.1548e-05,-0.17969,0.046597,-9.8623,0,0,37.606,1,1,7746,3873
7042,4.6719e+07,2,0.0023048,0.0013875,-0.00041785,-0.18,0.044145,-9.8646,0,0,37.606,1,1,7746,3873
7045,4.6722e+07,2,0.0030157,0.00033486,-0.00025091,-0.18032,0.0443,-9.8649,0,0,37.606,1,1,7746,3873
7076,4.6725e+07,2,0.0037578,-0.00010869,-0.0017817,-0.17871,0.044676,-9.8601,0,0,37.606,1,1,7746,3873
7080,4.6727e+07,2,0.003109,-0.00064158,-0.0022775,-0.17717,0.044868,-9.8565,0,0,37.606,1,1,7746,3873
7084,4.673e+07,2,0.0025788,-0.00080572,-0.0022906,-0.17495,0.044798,-9.8522,0,0,37.606,1,1,7746,3873
7087,4.6732e+07,2,0.0022539,-0.00084473,-0.0013564,-0.17314,0.043599,-9.8506,0,0,37.606,1,1,7746,3873
7118,4.6734e+07,2,0.002011,8.7118e-05,-0.00036025,-0.17109,0.04276,-9.8476,0,0,37.606,1,1,7746,3873
7121,4.6737e+07,2,0.0017884,0.00065745,5.7225e-05,-0.16931,0.041743,-9.8437,0,0,37.606,1,1,7746,3873
7125,4.6742e+07,2,0.0020445,0.00049423,2.2512e-05,-0.16628,0.037797,-9.8408,0,0,37.606,1,1,7746,3873
7156,4.6744e+07,2,0.0024785,0.001567,-0.0009631,-0.16543,0.036546,-9.8427,0,0,37.606,1,1,7746,3873
7159,4.6747e+07,2,0.0015934,0.0019034,-0.00054942,-0.16634,0.035342,-9.8449,0,0,37.606,1,1,7746,3873
7162,4.675e+07,2,0.00086246,0.0017792,0.0013005,-0.1696,0.033529,-9.8442,0,0,37.606,1,1,7746,3873
7166,4.6752e+07,2,0.0025992,0.00098468,0.0021457,-0.17037,0.031254,-9.8395,0,0,37.606,1,1,7746,3873
7197,4.6755e+07,2,0.0031599,0.0012635,0.002155,-0.17101,0.029731,-9.8366,0,0,37.606,1,1,7746,3873
7200,4.6757e+07,2,0.0031411,0.0015746,0.001701,-0.17157,0.027607,-9.8367,0,0,37.606,1,1,7746,3873
7204,4.676e+07,2,0.0017027,0.0020246,0.0011714,-0.17009,0.024464,-9.8427,0,0,37.606,1,1,7746,3873
7207,4.6763e+07,2,2.2235e-05,0.0015475,-0.00024548,-0.16849,0.021301,-9.853,0,0,37.606,1,1,7746,3873
7238,4.6766e+07,2,-0.00098338,0.0018237,8.2525e-05,-0.1662,0.018168,-9.8646,0,0,37.606,1,1,7746,3873
7241,4.6768e+07,2,-0.000901,0.0014233,8.8049e-06,-0.16521,0.017309,-9.8686,0,0,37.606,1,1,7746,3873
7244,4.6771e+07,2,-0.00043803,0.0010548,0.00024562,-0.16166,0.014322,-9.8806,0,0,37.606,1,1,7746,3873
7247,4.6773e+07,2,-0.00079413,0.0014055,0.00070091,-0.15961,0.012498,-9.8873,0,0,37.606,1,1,7746,3873
7278,4.6776e+07,2,-0.0018489,0.0021386,0.0001865,-0.15693,0.010911,-9.8917,0,0,37.606,1,1,7746,3873
7282,4.6778e+07,2,-0.001759,0.0025186,0.00050445,-0.15515,0.01026,-9.8925,0,0,37.606,1,1,7746,3873
7291,4.6781e+07,2,-0.0012227,0.0031101,0.0010093,-0.15231,0.0089471,-9.8941,0,0,37.606,1,1,7746,3873
7294,4.6783e+07,2,-0.001573,0.0034591,0.0011765,-0.15169,0.007944,-9.8939,0,0,37.606,1,1,7746,3873
7325,4.6785e+07,2,-0.0011635,0.0032181,0.0014043,-0.15167,0.0072292,-9.8907,0,0,37.606,1,1,7746,3873
7328,4.6788e+07,2,-0.001275,0.0024851,0.0018893,-0.15355,0.006701,-9.8862,0,0,37.606,1,1,7746,3873
7331,4.6791e+07,2,-0.0031196,0.001323,0.0021581,-0.15734,0.0082558,-9.8807,0,0,37.606,1,1,7746,3873
7334,4.6793e+07,2,-0.0041327,0.0015209,0.0014915,-0.15955,0.0097024,-9.8764,0,0,37.606,1,1,7746,3873
7367,4.6796e+07,2,-0.0048923,0.0026869,-0.00018227,-0.16087,0.010414,-9.8697,0,0,37.606,1,1,7746,3873
7370,4.6798e+07,2,-0.0047386,0.0026064,-0.0008688,-0.16087,0.011415,-9.864,0,0,37.606,1,1,7746,3873
7374,4.6801e+07,2,-0.0048209,0.0023981,-0.0009412,-0.16148,0.013027,-9.8642,0,0,37.606,1,1,7746,3873
7377,4.6804e+07,2,-0.0045507,0.0029945,-0.00041736,-0.16319,0.015452,-9.8616,0,0,37.606,1,1,7746,3873
7408,4.6807e+07,2,-0.0035368,0.0027388,0.0001141,-0.16358,0.020002,-9.8573,0,0,37.607,1,1,7746,3873
7411,4.6809e+07,2,-0.0031123,0.0025008,0.0003843,-0.16382,0.023344,-9.8552,0,0,37.607,1,1,7746,3873
7414,4.6811e+07,2,-0.0031914,0.0024203,0.00035244,-0.16346,0.026415,-9.8523,0,0,37.607,1,1,7746,3873
7417,4.6814e+07,2,-0.0037782,0.0027789,-0.00050685,-0.16235,0.029848,-9.8475,0,0,37.607,1,1,7746,3873
7448,4.6816e+07,2,-0.0045062,0.0026359,-0.0012731,-0.16094,0.03368,-9.8441,0,0,37.607,1,1,7746,3873
7451,4.6819e+07,2,-0.004942,0.002614,-0.0013253,-0.15952,0.035836,-9.8416,0,0,37.607,1,1,7746,3873
7456,4.6822e+07,2,-0.004891,0.0029459,-0.00073124,-0.15782,0.037172,-9.8389,0,0,37.607,1,1,7746,3873
7459,4.6824e+07,2,-0.0041615,0.0041046,0.0011611,-0.1576,0.039119,-9.8351,0,0,37.607,1,1,7746,3873
7490,4.6827e+07,2,-0.0038989,0.0034747,0.0023028,-0.15939,0.039453,-9.8353,0,0,37.607,1,1,7746,3873
7493,4.6829e+07,2,-0.0041916,0.0032664,0.0017087,-0.16186,0.038579,-9.8358,0,0,37.607,1,1,7746,3873
7497,4.6833e+07,2,-0.005065,0.0030964,0.001298,-0.1641,0.037849,-9.8376,0,0,37.607,1,1,7746,3873
7500,4.6834e+07,2,-0.0057128,0.0029084,0.00057154,-0.1661,0.037959,-9.8417,0,0,37.607,1,1,7746,3873
7531,4.6836e+07,2,-0.004509,0.0034198,-0.00041851,-0.16477,0.039156,-9.843,0,0,37.607,1,1,7746,3873
7535,4.6839e+07,2,-0.0032421,0.0035598,-0.00047649,-0.16265,0.040706,-9.8463,0,0,37.608,1,1,7746,3873
7538,4.6842e+07,2,-0.0021331,0.0024774,0.0009064,-0.16164,0.04311,-9.8534,0,0,37.608,1,1,7746,3873
7541,4.6844e+07,2,-0.0021394,0.0017418,0.0019015,-0.16256,0.044156,-9.8578,0,0,37.608,1,1,7746,3873
7572,4.6848e+07,2,-0.0018845,0.00088126,0.00094731,-0.16367,0.045545,-9.8609,0,0,37.608,1,1,7746,3873
7575,4.6849e+07,2,-0.00076058,0.00021489,0.00034371,-0.16373,0.046429,-9.8656,0,0,37.608,1,1,7746,3873
7579,4.6851e+07,2,-0.00042097,0.00051877,-0.00019906,-0.16427,0.046563,-9.8706,0,0,37.608,1,1,7746,3873
7583,4.6854e+07,2,-0.00040523,0.00088985,-0.00059618,-0.16446,0.045604,-9.8737,0,0,37.608,1,1,7746,3873
7614,4.6857e+07,2,-0.0014357,0.0011134,-0.0005797,-0.16452,0.043137,-9.8756,0,0,37.609,1,1,7746,3873
7617,4.686e+07,2,-0.0016935,0.0010032,-0.00052636,-0.16411,0.042037,-9.8758,0,0,37.609,1,1,7746,3873
7620,4.6862e+07,2,-0.00042411,0.00091319,-0.0016205,-0.16144,0.039631,-9.8747,0,0,37.609,1,1,7746,3873
7624,4.6865e+07,2,-0.000135,0.00040073,-0.0020613,-0.1592,0.038918,-9.8729,0,0,37.609,1,1,7746,3873
7655,4.6867e+07,2,-0.00053493,-0.00028346,-0.0015045,-0.15692,0.03791,-9.8691,0,0,37.609,1,1,7746,3873
7659,4.687e+07,2,-0.001205,-0.0004008,-0.0013002,-0.15587,0.037162,-9.8661,0,0,37.609,1,1,7746,3873
7663,4.6872e+07,2,-0.0010011,-0.00096746,-0.00099611,-0.15521,0.035348,-9.8635,0,0,37.609,1,1,7746,3873
7666,4.6874e+07,2,-0.00060635,-0.00086956,-0.00094297,-0.15513,0.03499,-9.8634,0,0,37.61,1,1,7746,3873
7697,4.6876e+07,2,0.00032937,0.00013251,-0.00085373,-0.15411,0.03541,-9.8645,0,0,37.61,1,1,7746,3873
7700,4.6879e+07,2,0.0014212,0.0010476,-0.00026061,-0.15358,0.036032,-9.8655,0,0,37.61,1,1,7746,3873
7708,4.6882e+07,2,0.0020475,0.0010846,9.0464e-05,-0.1539,0.03577,-9.8668,0,0,37.61,1,1,7746,3873
7711,4.6885e+07,2,0.0020083,0.0010839,-0.00017214,-0.15489,0.035365,-9.866,0,0,37.61,1,1,7746,3873
7742,4.6887e+07,2,0.0019912,0.0015493,-0.00032423,-0.15806,0.034646,-9.8636,0,0,37.61,1,1,7746,3873
7745,4.689e+07,2,0.002557,0.001697,0.00060471,-0.1643,0.033847,-9.8596,0,0,37.61,1,1,7746,3873
7748,4.6892e+07,2,0.0025795,0.0014238,0.00012847,-0.16643,0.033585,-9.8578,0,0,37.611,1,1,7746,3873
7751,4.6895e+07,2,0.0026241,0.0013797,-8.2581e-05,-0.17075,0.033629,-9.8535,0,0,37.611,1,1,7746,3873
7782,4.6898e+07,2,0.0021264,0.001438,-0.0011035,-0.17278,0.034025,-9.8555,0,0,37.611,1,1,7746,3873
7785,4.69e+07,2,0.0019661,0.0013109,-0.0018858,-0.17374,0.034146,-9.8581,0,0,37.611,1,1,7746,3873
7789,4.6902e+07,2,0.0014493,0.001607,-0.0017275,-0.17453,0.034139,-9.8604,0,0,37.611,1,1,7746,3873
7792,4.6905e+07,2,0.0014729,0.0018874,-0.0020474,-0.17515,0.033695,-9.8599,0,0,37.611,1,1,7746,3873
7823,4.6908e+07,2,0.0023523,0.001726,-0.0014881,-0.1754,0.032628,-9.8613,0,0,37.612,1,1,7746,3873
7826,4.691e+07,2,0.0025286,0.001324,-0.0015868,-0.17535,0.031681,-9.8614,0,0,37.612,1,1,7746,3873
7829,4.6913e+07,2,0.0019913,0.0009942,-0.0010483,-0.17373,0.030413,-9.8594,0,0,37.612,1,1,7746,3873
7832,4.6915e+07,2,0.0023173,0.00056904,-0.00052313,-0.17306,0.03015,-9.857,0,0,37.612,1,1,7746,3873
7863,4.6918e+07,2,0.0021885,0.0013834,-0.00022931,-0.17451,0.02869,-9.8527,0,0,37.612,1,1,7746,3873
7866,4.6921e+07,2,0.0019109,0.0018402,0.00089269,-0.17506,0.027307,-9.8512,0,0,37.612,1,1,7746,3873
7871,4.6924e+07,2,0.00094509,0.0025146,0.00075254,-0.17541,0.025447,-9.8515,0,0,37.612,1,1,7746,3873
7874,4.6925e+07,2,-1.0602e-05,0.0029323,-0.00042221,-0.17762,0.020938,-9.8528,0,0,37.613,1,1,7746,3873
7905,4.6928e+07,2,-0.0002515,0.00288,-0.00081158,-0.17901,0.018757,-9.8522,0,0,37.613,1,1,7746,3873
7908,4.6931e+07,2,-0.00087002,0.0023753,0.00054264,-0.18106,0.017054,-9.8519,0,0,37.613,1,1,7746,3873
7911,4.6933e+07,2,-0.00065102,0.0019071,0.0015706,-0.18518,0.016099,-9.8557,0,0,37.613,1,1,7746,3873
7914,4.6936e+07,2,-0.000208,0.0013119,0.0023767,-0.1886,0.015519,-9.8574,0,0,37.613,1,1,7746,3873
7917,4.6938e+07,2,0.0002402,0.00137,0.0016018,-0.18915,0.014717,-9.8574,0,0,37.613,1,1,7746,3873
7948,4.694e+07,2,0.00053,0.0014925,0.0012972,-0.18859,0.014446,-9.8568,0,0,37.613,1,1,7746,3873
7952,4.6943e+07,2,0.00075277,0.0014269,0.0013694,-0.18738,0.014231,-9.8541,0,0,37.613,1,1,7746,3873
7955,4.6945e+07,2,0.00054073,8.593e-05,0.00052631,-0.18707,0.01465,-9.8533,0,0,37.613,1,1,7746,3873
7958,4.6948e+07,2,0.00019101,0.00015347,0.0004686,-0.18704,0.015166,-9.8549,0,0,37.613,1,1,7746,3873
7989,4.6952e+07,2,-0.0016912,0.0007564,0.0012454,-0.18511,0.015515,-9.8604,0,0,37.613,1,1,7746,3873
7992,4.6953e+07,2,-0.0036128,0.00037626,-0.00010756,-0.18126,0.017251,-9.8659,0,0,37.613,1,1,7746,3873
7995,4.6956e+07,2,-0.0036905,0.0005859,-0.00037419,-0.17962,0.017887,-9.8664,0,0,37.613,1,1,7746,3873
7998,4.6958e+07,2,-0.0028387,0.00071816,-0.00016851,-0.17658,0.018905,-9.865,0,0,37.613,1,1,7746,3873
8029,4.6961e+07,2,-0.0023251,0.00047532,-0.00060156,-0.17284,0.019529,-9.8609,0,0,37.614,1,1,7746,3873
8032,4.6964e+07,2,-0.0024247,0.00068947,-0.00070661,-0.17161,0.019215,-9.8584,0,0,37.614,1,1,7746,3873
8037,4.6966e+07,2,-0.0027175,0.0018582,0.00053503,-0.17117,0.018349,-9.8543,0,0,37.614,1,1,7746,3873
8040,4.6968e+07,2,-0.0034581,0.0018292,0.00073678,-0.17171,0.018551,-9.8514,0,0,37.614,1,1,7746,3873
8071,4.6971e+07,2,-0.0040148,0.00093277,-0.0004457,-0.17288,0.017642,-9.8501,0,0,37.614,1,1,7746,3873
8074,4.6974e+07,2,-0.0044024,0.00068972,-0.0014185,-0.17356,0.017744,-9.8491,0,0,37.614,1,1,7746,3873
8078,4.6976e+07,2,-0.0050535,-0.00031695,-0.0021415,-0.17575,0.019356,-9.8458,0,0,37.614,1,1,7746,3873
8081,4.6978e+07,2,-0.0050401,-0.00014096,-0.001761,-0.17701,0.02075,-9.8434,0,0,37.614,1,1,7746,3873
8112,4.6981e+07,2,-0.0039338,0.00038249,-0.00090892,-0.17955,0.023127,-9.8428,0,0,37.614,1,1,7746,3873
8119,4.6983e+07,2,-0.0032546,0.00075521,0.00019247,-0.17955,0.024557,-9.8444,0,0,37.614,1,1,7746,3873
8124,4.6986e+07,2,-0.003513,0.00092449,0.0012987,-0.17786,0.026208,-9.8466,0,0,37.614,1,1,7746,3873
8127,4.6989e+07,2,-0.0038914,0.00077348,0.0005421,-0.17516,0.027738,-9.8494,0,0,37.614,1,1,7746,3873
8158,4.6991e+07,2,-0.0038758,0.00072569,-0.00043428,-0.17138,0.030443,-9.8553,0,0,37.614,1,1,7746,3873
8161,4.6993e+07,2,-0.0034921,0.00074163,-0.00010597,-0.16922,0.032893,-9.8579,0,0,37.614,1,1,7746,3873
8165,4.6996e+07,2,-0.0023954,0.00044518,0.0003305,-0.16698,0.037282,-9.8594,0,0,37.615,1,1,7746,3873
8169,4.6999e+07,2,-0.0024041,0.00047179,0.00046914,-0.16714,0.040449,-9.858,0,0,37.615,1,1,7746,3873
8200,4.7002e+07,2,-0.0017526,0.0011083,0.0013111,-0.1686,0.044484,-9.8552,0,0,37.615,1,1,7746,3873
8203,4.7003e+07,2,-0.0016989,0.001078,0.0017112,-0.17127,0.04509,-9.8525,0,0,37.615,1,1,7746,3873
8206,4.7006e+07,2,-0.0020786,0.00077345,0.0013007,-0.17261,0.045089,-9.8526,0,0,37.615,1,1,7746,3873
8209,4.7009e+07,2,-0.0020665,0.00055377,0.0014182,-0.17311,0.044534,-9.8547,0,0,37.615,1,1,7746,3873
8240,4.7011e+07,2,-0.0020228,0.00035708,0.00063498,-0.17296,0.044198,-9.8553,0,0,37.615,1,1,7746,3873
8243,4.7014e+07,2,-0.0021678,0.00032766,0.00024794,-0.17227,0.043005,-9.8539,0,0,37.615,1,1,7746,3873
8247,4.7016e+07,2,-0.0021588,0.00060956,0.00053647,-0.17104,0.042854,-9.8529,0,0,37.615,1,1,7746,3873
8252,4.7019e+07,2,-0.0019302,0.001057,0.00098537,-0.16964,0.042947,-9.853,0,0,37.615,1,1,7746,3873
8283,4.7025e+07,2,-0.0014587,0.0021759,-0.00068325,-0.16802,0.039767,-9.8555,0,0,37.615,1,1,7746,3873
8286,4.7027e+07,2,-0.00075353,0.0026705,-0.0010789,-0.16846,0.039488,-9.858,0,0,37.615,1,1,7746,3873
8289,4.7029e+07,2,-0.00069571,0.0033217,-0.001437,-0.16766,0.039807,-9.8606,0,0,37.615,1,1,7746,3873
8320,4.7031e+07,2,0.00013349,0.0037825,-0.00097872,-0.16737,0.039271,-9.8596,0,0,37.615,1,1,7746,3873
8323,4.7034e+07,2,0.001468,0.0046593,-0.0017161,-0.16574,0.039276,-9.8573,0,0,37.615,1,1,7746,3873
8327,4.7036e+07,2,0.0014793,0.0039198,-0.0014223,-0.1631,0.041762,-9.8561,0,0,37.615,1,1,7746,3873
8330,4.7039e+07,2,0.001485,0.0034288,-0.0015298,-0.16276,0.04408,-9.8524,0,0,37.615,1,1,7746,3873
8363,4.7044e+07,2,0.001901,0.0025687,0.00036398,-0.16239,0.04831,-9.8478,0,0,37.616,1,1,7746,3873
8367,4.7047e+07,2,0.0015719,0.0028023,0.0012619,-0.16081,0.04895,-9.8466,0,0,37.616,1,1,7746,3873
8370,4.7049e+07,2,0.0010161,0.0024113,0.00073036,-0.16086,0.04702,-9.8445,0,0,37.616,1,1,7746,3873
8401,4.7052e+07,2,0.0011005,0.0023875,-9.9378e-05,-0.16231,0.043914,-9.8439,0,0,37.616,1,1,7746,3873
8404,4.7054e+07,2,0.0013452,0.0019809,-0.00013457,-0.16374,0.041107,-9.8449,0,0,37.616,1,1,7746,3873
8407,4.7057e+07,2,0.0022352,0.00074877,0.0007273,-0.16465,0.038876,-9.848,0,0,37.616,1,1,7746,3873
8410,4.7059e+07,2,0.0026376,0.0010808,0.001034,-0.16535,0.03772,-9.8482,0,0,37.616,1,1,7746,3873
8441,4.7061e+07,2,0.0025,0.0015536,0.0008425,-0.16561,0.037001,-9.8477,0,0,37.616,1,1,7746,3873
8444,4.7065e+07,2,0.0018686,0.0012308,0.0006837,-0.16397,0.036486,-9.8483,0,0,37.616,1,1,7746,3873
8448,4.7066e+07,2,0.0021021,0.00020231,-6.7888e-05,-0.16304,0.03464,-9.8516,0,0,37.616,1,1,7746,3873
8453,4.7069e+07,2,0.0018872,-9.8155e-05,-0.00073467,-0.16227,0.032812,-9.8555,0,0,37.616,1,1,7746,3873
8484,4.7071e+07,2,0.0022688,-1.588e-06,-0.00066952,-0.16257,0.031038,-9.8604,0,0,37.616,1,1,7746,3873
8487,4.7074e+07,2,0.0033363,0.00041053,0.00023222,-0.16363,0.028375,-9.8661,0,0,37.616,1,1,7746,3873
8491,4.7077e+07,2,0.0041954,0.00074502,0.0015172,-0.16394,0.024866,-9.8631,0,0,37.617,1,1,7746,3873
8494,4.7079e+07,2,0.004181,0.00084887,0.0016889,-0.16367,0.023301,-9.8613,0,0,37.617,1,1,7746,3873
8525,4.7082e+07,2,0.0036696,0.00031421,0.00093929,-0.16491,0.016781,-9.8567,0,0,37.617,1,1,7746,3873
8532,4.7084e+07,2,0.0033058,7.6374e-05,0.0005258,-0.16512,0.015158,-9.8558,0,0,37.617,1,1,7746,3873
8535,4.7086e+07,2,0.0011622,-0.0011265,-0.00011608,-0.16339,0.01232,-9.8539,0,0,37.617,1,1,7746,3873
8538,4.7089e+07,2,-0.00044511,-0.0021211,-0.00031199,-0.16203,0.011292,-9.8535,0,0,37.617,1,1,7746,3873
8569,4.7092e+07,2,-0.0013223,-0.0023056,-0.00067037,-0.16136,0.012216,-9.8542,0,0,37.617,1,1,7746,3873
8572,4.7094e+07,2,-0.0022629,-0.0016104,-0.0010703,-0.15957,0.01657,-9.8579,0,0,37.617,1,1,7746,3873
8576,4.7097e+07,2,-0.0021642,-0.00036619,-0.0012916,-0.159,0.020876,-9.8595,0,0,37.617,1,1,7746,3873
8579,4.7099e+07,2,-0.0013745,0.00026625,-0.001536,-0.15966,0.023504,-9.8591,0,0,37.617,1,1,7746,3873
8610,4.7102e+07,2,-0.0010688,0.00073871,-0.00092631,-0.16131,0.027404,-9.858,0,0,37.617,1,1,7746,3873
8613,4.7104e+07,2,-0.0015635,-0.0003232,-8.572e-05,-0.16293,0.029554,-9.8535,0,0,37.617,1,1,7746,3873
8616,4.7107e+07,2,-0.0013879,5.9517e-06,-0.00086092,-0.16326,0.029973,-9.8518,0,0,37.617,1,1,7746,3873
8619,4.711e+07,2,-0.00076888,0.0015565,-0.0010578,-0.1651,0.031387,-9.8496,0,0,37.618,1,1,7746,3873
8650,4.7112e+07,2,-0.001004,0.0019682,-0.00071069,-0.16603,0.030822,-9.8504,0,0,37.618,1,1,7746,3873
8653,4.7114e+07,2,-0.0011484,0.0023468,-6.4909e-05,-0.16813,0.026782,-9.8528,0,0,37.618,1,1,7746,3873
8657,4.7117e+07,2,-0.0013695,0.0023736,0.00142,-0.16859,0.023646,-9.8539,0,0,37.618,1,1,7746,3873
8660,4.712e+07,2,-0.0019271,0.0021608,0.0018985,-0.16864,0.019808,-9.8581,0,0,37.618,1,1,7746,3873
8691,4.7123e+07,2,-0.0028274,0.0018344,0.0014984,-0.16746,0.018929,-9.8618,0,0,37.618,1,1,7746,3873
8694,4.7125e+07,2,-0.0038054,0.0012759,0.00082705,-0.16729,0.018778,-9.8621,0,0,37.618,1,1,7746,3873
8697,4.7127e+07,2,-0.0042066,2.0929e-05,0.00062299,-0.16652,0.018211,-9.8613,0,0,37.618,1,1,7746,3873
8700,4.713e+07,2,-0.0034491,-0.00029332,0.0008131,-0.16535,0.017623,-9.8635,0,0,37.618,1,1,7746,3873
8731,4.7134e+07,2,-0.0022353,4.3189e-05,0.0013772,-0.16316,0.016939,-9.8673,0,0,37.618,1,1,7746,3873
8734,4.7136e+07,2,-0.0020478,0.00019924,0.0014068,-0.1631,0.017657,-9.8677,0,0,37.618,1,1,7746,3873
8738,4.7137e+07,2,-0.0025769,0.00075868,0.00053129,-0.1646,0.020218,-9.8646,0,0,37.618,1,1,7746,3873
8741,4.714e+07,2,-0.003148,0.0013255,-0.00057134,-0.16648,0.022768,-9.8622,0,0,37.618,1,1,7746,3873
8772,4.7142e+07,2,-0.0037784,0.0013251,-0.00080923,-0.16922,0.025836,-9.86,0,0,37.618,1,1,7746,3873
8775,4.7145e+07,2,-0.0043308,0.00063207,-0.00022254,-0.17162,0.028938,-9.8565,0,0,37.618,1,1,7746,3873
8778,4.7148e+07,2,-0.0044128,0.00049651,0.00010538,-0.17378,0.033707,-9.8534,0,0,37.618,1,1,7746,3873
8781,4.7151e+07,2,-0.0042457,0.001123,0.00026399,-0.17505,0.035728,-9.8507,0,0,37.618,1,1,7746,3873
8784,4.7152e+07,2,-0.004348,0.0015337,0.00036065,-0.17534,0.036236,-9.8482,0,0,37.618,1,1,7746,3873
8815,4.7155e+07,2,-0.0053467,0.0022002,0.000957,-0.17297,0.034885,-9.8453,0,0,37.618,1,1,7746,3873
8819,4.7157e+07,2,-0.0051412,0.0016712,0.00086369,-0.171,0.033761,-9.8454,0,0,37.618,1,1,7746,3873
8822,4.716e+07,2,-0.0035878,0.0015261,-0.00010518,-0.16774,0.031171,-9.8489,0,0,37.618,1,1,7746,3873
8825,4.7163e+07,2,-0.0015795,0.001217,-0.0012626,-0.16575,0.029893,-9.8522,0,0,37.618,1,1,7746,3873
8856,4.7165e+07,2,-0.00083792,0.00074178,-0.0027505,-0.16499,0.030923,-9.8529,0,0,37.618,1,1,7746,3873
8860,4.7168e+07,2,-0.0010994,8.1031e-05,-0.0030519,-0.16466,0.036209,-9.8552,0,0,37.618,1,1,7746,3873
8863,4.717e+07,2,-0.0010791,-2.4384e-05,-0.0017705,-0.16558,0.039743,-9.8557,0,0,37.618,1,1,7746,3873
8866,4.7173e+07,2,-0.0013214,0.00078984,-0.00019382,-0.16636,0.042598,-9.854,0,0,37.618,1,1,7746,3873
8897,4.7176e+07,2,-0.00065603,0.0014223,9.1214e-05,-0.16545,0.04557,-9.8518,0,0,37.618,1,1,7746,3873
8900,4.7178e+07,2,-0.00043933,0.0015781,0.00067756,-0.16487,0.046561,-9.8525,0,0,37.618,1,1,7746,3873
8904,4.718e+07,2,-0.0014399,0.0014011,0.00040052,-0.16536,0.046944,-9.8552,0,0,37.618,1,1,7746,3873
8907,4.7183e+07,2,-0.0022634,0.0014931,-0.00053478,-0.1667,0.047279,-9.8578,0,0,37.618,1,1,7746,3873
8942,4.7186e+07,2,-0.0022747,0.0013871,-0.0013234,-0.16865,0.046719,-9.8558,0,0,37.618,1,1,7746,3873
8946,4.7188e+07,2,-0.0025126,0.000673,-0.00073023,-0.17153,0.046556,-9.8537,0,0,37.618,1,1,7746,3873
8949,4.719e+07,2,-0.002425,0.00060579,-0.00075672,-0.17358,0.046979,-9.8546,0,0,37.617,1,1,7746,3873
8952,4.7193e+07,2,-0.0015041,0.0010479,-0.0014453,-0.1753,0.046936,-9.857,0,0,37.617,1,1,7746,3873
8983,4.7195e+07,2,-0.0011166,0.00080074,-0.0016879,-0.17476,0.046491,-9.8581,0,0,37.617,1,1,7746,3873
8986,4.7198e+07,2,-0.0003166,0.00073177,-0.0016606,-0.17339,0.047402,-9.8565,0,0,37.617,1,1,7746,3873
8991,4.7201e+07,2,7.7167e-05,0.00094849,-0.0013684,-0.17366,0.047734,-9.8533,0,0,37.617,1,1,7746,3873
8994,4.7203e+07,2,-0.00030352,0.00040325,0.0001696,-0.17537,0.046183,-9.85,0,0,37.617,1,1,7746,3873
9025,4.7206e+07,2,-0.00059669,0.0002677,0.00098167,-0.17804,0.043645,-9.8497,0,0,37.617,1,1,7746,3873
9030,4.7208e+07,2,-0.00056041,0.00024852,0.00089776,-0.17916,0.042427,-9.8491,0,0,37.617,1,1,7746,3873
9033,4.7211e+07,2,0.00023336,0.00031255,-0.00031922,-0.17962,0.041084,-9.8464,0,0,37.617,1,1,7746,3873
9036,4.7213e+07,2,0.00050345,0.00027471,-0.00047355,-0.1785,0.039609,-9.8436,0,0,37.617,1,1,7746,3873
9067,4.7216e+07,2,0.0014171,-0.0002566,-0.00083055,-0.17704,0.03775,-9.8425,0,0,37.617,1,1,7746,3873
9071,4.7217e+07,2,0.0025357,-0.00073473,-0.0012066,-0.17345,0.0347,-9.8432,0,0,37.617,1,1,7746,3873
9074,4.722e+07,2,0.002845,6.2196e-05,-0.0012354,-0.17141,0.033375,-9.8462,0,0,37.618,1,1,7746,3873
9077,4.7223e+07,2,0.0031442,0.00076037,-0.0015278,-0.17094,0.032372,-9.8503,0,0,37.618,1,1,7746,3873
9108,4.7226e+07,2,0.0020505,0.0011146,-0.00076862,-0.17282,0.030856,-9.8504,0,0,37.618,1,1,7746,3873
9111,4.7229e+07,2,0.0015172,0.00074313,-0.00016444,-0.17455,0.029817,-9.8485,0,0,37.618,1,1,7746,3873
9114,4.723e+07,2,0.00050374,0.00090985,0.00046227,-0.17662,0.028575,-9.8443,0,0,37.618,1,1,7746,3873
9117,4.7233e+07,2,-0.0004761,0.0016553,-0.00033485,-0.17724,0.028669,-9.8444,0,0,37.618,1,1,7746,3873
9148,4.7238e+07,2,-0.0011639,0.0019995,-0.00092879,-0.17908,0.030467,-9.8483,0,0,37.618,1,1,7746,3873
9151,4.7241e+07,2,-0.00018578,0.0024062,-0.00028005,-0.18005,0.030943,-9.8497,0,0,37.618,1,1,7746,3873
9154,4.7243e+07,2,0.00052027,0.0025673,0.00060253,-0.17985,0.030577,-9.8513,0,0,37.618,1,1,7746,3873
9185,4.7246e+07,2,0.00054007,0.0024512,0.00037729,-0.17741,0.029483,-9.8537,0,0,37.618,1,1,7746,3873
9188,4.7249e+07,2,0.00018661,0.0025601,0.00013523,-0.17635,0.029197,-9.8548,0,0,37.618,1,1,7746,3873
9192,4.7251e+07,2,6.0506e-05,0.0026178,-0.00043945,-0.17636,0.026058,-9.8574,0,0,37.618,1,1,7746,3873
9195,4.7254e+07,2,0.00026367,0.0021684,-0.00062569,-0.17642,0.023517,-9.8584,0,0,37.618,1,1,7746,3873
9208,4.7278e+07,2,-0.0031088,0.0020149,0.00015606,-0.17093,0.01918,-9.8547,0,0,37.62,1,1,7746,3873
9211,4.7281e+07,2,-0.00362,0.0023434,0.0013514,-0.17042,0.019074,-9.8499,0,0,37.62,1,1,7746,3873
9214,4.7283e+07,2,-0.0033535,0.0024006,0.0015092,-0.16977,0.019944,-9.8491,0,0,37.62,1,1,7746,3873
9249,4.7286e+07,2,-0.0024799,0.0017815,0.001855,-0.16869,0.022099,-9.8502,0,0,37.62,1,1,7746,3873
9253,4.7288e+07,2,-0.0026831,0.0017869,0.0020524,-0.1686,0.024287,-9.8515,0,0,37.62,1,1,7746,3873
9257,4.7291e+07,2,-0.0033872,0.0023407,0.0023057,-0.16725,0.027875,-9.8541,0,0,37.621,1,1,7746,3873
9260,4.7293e+07,2,-0.003393,0.0025572,0.0018009,-0.1665,0.02962,-9.8568,0,0,37.621,1,1,7746,3873
9291,4.7295e+07,2,-0.003693,0.0023888,0.0014506,-0.1663,0.030896,-9.8613,0,0,37.621,1,1,7746,3873
9294,4.7299e+07,2,-0.0036367,0.0022518,0.00018106,-0.16672,0.030114,-9.8626,0,0,37.621,1,1,7746,3873
9297,4.7301e+07,2,-0.0032544,0.002728,-0.00051274,-0.1666,0.028862,-9.8633,0,0,37.621,1,1,7746,3873
9300,4.7303e+07,2,-0.0033762,0.0029152,-0.00035894,-0.16637,0.028614,-9.8636,0,0,37.621,1,1,7746,3873
9331,4.7306e+07,2,-0.0043346,0.0023499,0.00048025,-0.167,0.029171,-9.8662,0,0,37.621,1,1,7746,3873
9334,4.7308e+07,2,-0.0041344,0.0015752,0.0011595,-0.16718,0.029469,-9.8693,0,0,37.622,1,1,7746,3873
9338,4.7311e+07,2,-0.0031343,0.00087158,0.0019747,-0.16844,0.029678,-9.8702,0,0,37.622,1,1,7746,3873
9341,4.7314e+07,2,-0.0026648,0.0018786,0.001944,-0.16892,0.031132,-9.8693,0,0,37.622,1,1,7746,3873
9372,4.7316e+07,2,-0.0023643,0.0031542,0.00042266,-0.16959,0.034406,-9.8621,0,0,37.622,1,1,7746,3873
9375,4.7318e+07,2,-0.0030334,0.0028427,-0.00045395,-0.17029,0.036179,-9.8555,0,0,37.622,1,1,7746,3873
9378,4.7321e+07,2,-0.0049853,0.0017022,-0.0013434,-0.1721,0.039026,-9.8478,0,0,37.622,1,1,7746,3873
9381,4.7324e+07,2,-0.0054367,0.001155,-0.00076382,-0.17379,0.041121,-9.8444,0,0,37.622,1,1,7746,3873
9384,4.7327e+07,2,-0.0046434,0.0011653,-4.4834e-05,-0.1739,0.04245,-9.8469,0,0,37.622,1,1,7746,3873
9387,4.7328e+07,2,-0.0036979,0.00070523,-0.00050781,-0.17239,0.042305,-9.8497,0,0,37.622,1,1,7746,3873
9418,4.733e+07,2,-0.0024999,0.00030573,-0.0006701,-0.17065,0.042091,-9.853,0,0,37.622,1,1,7746,3873
9422,4.7333e+07,2,-0.0020731,7.3435e-05,-0.0015862,-0.16912,0.041761,-9.8564,0,0,37.623,1,1,7746,3873
9425,4.7336e+07,2,-0.0014109,0.00028675,-0.0016793,-0.16763,0.03952,-9.8638,0,0,37.623,1,1,7746,3873
9428,4.7339e+07,2,-0.00096765,0.00045046,-0.0018017,-0.16728,0.038114,-9.8683,0,0,37.623,1,1,7746,3873
9459,4.7341e+07,2,-0.0012941,0.0013261,-0.0014012,-0.16707,0.037384,-9.8728,0,0,37.623,1,1,7746,3873
9463,4.7344e+07,2,-0.0014112,0.00084476,-0.00031717,-0.16629,0.037235,-9.8725,0,0,37.623,1,1,7746,3873
9466,4.7346e+07,2,-0.0020788,0.00034943,-0.00012198,-0.16601,0.037497,-9.8691,0,0,37.623,1,1,7746,3873
9470,4.7349e+07,2,-0.0019012,-0.00037386,6.8787e-05,-0.16604,0.038081,-9.8657,0,0,37.623,1,1,7746,3873
9501,4.7351e+07,2,-0.0021902,-0.0010046,-0.00024113,-0.1664,0.038361,-9.8637,0,0,37.623,1,1,7746,3873
9504,4.7354e+07,2,-0.0018232,-0.0010369,-0.0001528,-0.16696,0.037597,-9.8627,0,0,37.623,1,1,7746,3873
9507,4.7356e+07,2,-0.001419,-0.0007008,-0.00068369,-0.16767,0.037661,-9.8618,0,0,37.623,1,1,7746,3873
9510,4.7358e+07,2,-0.00017971,0.00016108,-0.0015218,-0.16843,0.040095,-9.8598,0,0,37.623,1,1,7746,3873
9541,4.7362e+07,2,-0.00019475,0.00052367,-0.0025902,-0.1684,0.040814,-9.8593,0,0,37.623,1,1,7746,3873
9545,4.7364e+07,2,4.5523e-05,0.00079942,-0.0032834,-0.1689,0.041524,-9.8592,0,0,37.623,1,1,7746,3873
9548,4.7366e+07,2,0.00039327,0.00035521,-0.0028371,-0.16969,0.041539,-9.8591,0,0,37.623,1,1,7746,3873
9551,4.7368e+07,2,0.00064975,0.0010436,-0.0024975,-0.17063,0.041904,-9.8624,0,0,37.624,1,1,7746,3873
9582,4.7371e+07,2,0.0013328,0.0016095,-0.0026516,-0.17094,0.041871,-9.8666,0,0,37.624,1,1,7746,3873
9585,4.7374e+07,2,0.0014514,0.0016142,-0.0011257,-0.17109,0.040995,-9.8716,0,0,37.624,1,1,7746,3873
9588,4.7376e+07,2,0.0012966,0.0012427,-1.1609e-05,-0.17022,0.040235,-9.8731,0,0,37.624,1,1,7746,3873
9591,4.7379e+07,2,0.00086245,0.00025504,-0.00012967,-0.16847,0.037781,-9.8729,0,0,37.624,1,1,7746,3873
9622,4.7381e+07,2,0.0014911,0.00035376,-0.00026729,-0.16998,0.035249,-9.8713,0,0,37.624,1,1,7746,3873
9626,4.7384e+07,2,0.0018329,0.00095777,-0.00066616,-0.17153,0.033844,-9.8704,0,0,37.624,1,1,7746,3873
9633,4.7387e+07,2,0.002303,0.0010673,-0.0013918,-0.17149,0.03268,-9.8702,0,0,37.624,1,1,7746,3873
9636,4.7388e+07,2,0.0026855,0.0013244,-0.0016819,-0.17041,0.030846,-9.8699,0,0,37.624,1,1,7746,3873
9667,4.7391e+07,2,0.0025866,0.0013455,-0.0020161,-0.16994,0.030048,-9.8686,0,0,37.624,1,1,7746,3873
9670,4.7394e+07,2,0.0032092,0.0018433,-0.0020516,-0.16937,0.029398,-9.8662,0,0,37.625,1,1,7746,3873
9675,4.7396e+07,2,0.003222,0.0020784,-0.0015682,-0.16884,0.02919,-9.8643,0,0,37.625,1,1,7746,3873
9678,4.7399e+07,2,0.0023465,0.0028175,-0.00064163,-0.16786,0.029018,-9.8624,0,0,37.625,1,1,7746,3873
9711,4.7402e+07,2,0.0015397,0.0026195,-1.8986e-05,-0.16649,0.027581,-9.8625,0,0,37.625,1,1,7746,3873
9715,4.7404e+07,2,0.0011881,0.0028677,-0.00020416,-0.16589,0.026592,-9.8613,0,0,37.625,1,1,7746,3873
9718,4.7407e+07,2,0.0013108,0.0022409,-0.0010077,-0.16761,0.024274,-9.8628,0,0,37.625,1,1,7746,3873
9721,4.7409e+07,2,0.0013367,0.0015871,-0.0014182,-0.16958,0.022497,-9.8667,0,0,37.625,1,1,7746,3873
9752,4.7412e+07,2,0.00087959,0.0013269,-0.00046157,-0.17016,0.02208,-9.8726,0,0,37.625,1,1,7746,3873
9756,4.7417e+07,2,0.0010861,0.0027573,0.00097191,-0.16789,0.019053,-9.8759,0,0,37.626,1,1,7746,3873
9759,4.7419e+07,2,0.00096886,0.0034192,0.0011516,-0.16693,0.018932,-9.8705,0,0,37.626,1,1,7746,3873
9790,4.7422e+07,2,0.0015044,0.003044,0.0013033,-0.1662,0.019732,-9.8672,0,0,37.626,1,1,7746,3873
9793,4.7426e+07,2,0.0010847,0.0021899,0.0023708,-0.16535,0.021186,-9.8633,0,0,37.626,1,1,7746,3873
9796,4.7427e+07,2,0.00035619,0.0021651,0.0023303,-0.16515,0.023033,-9.8597,0,0,37.626,1,1,7746,3873
9799,4.7429e+07,2,1.6578e-05,0.0017233,0.0023036,-0.16583,0.025025,-9.8575,0,0,37.626,1,1,7746,3873
9830,4.7432e+07,2,1.8803e-05,0.0010466,0.0020708,-0.16659,0.025961,-9.8558,0,0,37.626,1,1,7746,3873
9834,4.7434e+07,2,-0.00063976,0.00067999,0.001696,-0.16669,0.027195,-9.8495,0,0,37.626,1,1,7746,3873
9837,4.7437e+07,2,-0.0012703,0.00011219,0.0010802,-0.16632,0.027004,-9.8445,0,0,37.626,1,1,7746,3873
9840,4.7441e+07,2,-0.0016598,-0.00057178,0.00051308,-0.16856,0.025293,-9.8414,0,0,37.626,1,1,7746,3873
9843,4.7442e+07,2,-0.001576,-0.00067276,0.000424,-0.17119,0.024325,-9.8422,0,0,37.627,1,1,7746,3873
9874,4.7444e+07,2,-0.002183,-6.2712e-05,0.00071461,-0.17302,0.022922,-9.8428,0,0,37.627,1,1,7746,3873
9877,4.7447e+07,2,-0.0022768,0.00038656,0.00081576,-0.17304,0.02134,-9.8446,0,0,37.627,1,1,7746,3873
9881,4.745e+07,2,-0.002715,0.00076057,0.00081603,-0.1721,0.019187,-9.8491,0,0,37.627,1,1,7746,3873
9884,4.7452e+07,2,-0.0018601,0.00042414,0.00068913,-0.16915,0.019689,-9.8572,0,0,37.627,1,1,7746,3873
9915,4.7455e+07,2,-0.0014895,-3.8765e-05,0.0014827,-0.16617,0.022731,-9.8619,0,0,37.627,1,1,7746,3873
9919,4.7457e+07,2,-0.0015478,0.00050617,0.0026918,-0.16545,0.023754,-9.8621,0,0,37.627,1,1,7746,3873
9922,4.746e+07,2,-0.0013579,0.0010414,0.0035162,-0.16479,0.02637,-9.86,0,0,37.627,1,1,7746,3873
9925,4.7462e+07,2,-0.00050699,0.00098265,0.0033999,-0.16583,0.027195,-9.8562,0,0,37.628,1,1,7746,3873
9956,4.7465e+07,2,-0.00089888,0.0005921,0.0023269,-0.16711,0.026629,-9.8535,0,0,37.628,1,1,7746,3873
9960,4.7467e+07,2,-0.0021861,0.00037731,0.0010704,-0.16936,0.026169,-9.8538,0,0,37.628,1,1,7746,3873
9963,4.747e+07,2,-0.0034796,0.00044818,-6.4859e-05,-0.17395,0.027963,-9.8559,0,0,37.628,1,1,7746,3873
9966,4.7473e+07,2,-0.0032853,0.0010556,-5.5857e-06,-0.17538,0.031273,-9.8552,0,0,37.628,1,1,7746,3873
9997,4.7475e+07,2,-0.0032172,0.0014598,-0.00041347,-0.17565,0.034194,-9.855,0,0,37.628,1,1,7746,3873
10000,4.7477e+07,2,-0.0031663,0.0012955,0.00080977,-0.17544,0.036734,-9.8572,0,0,37.628,1,1,7746,3873
10003,4.748e+07,2,-0.0039177,0.001512,0.0006534,-0.17489,0.039044,-9.8623,0,0,37.628,1,1,7746,3873
10006,4.7482e+07,2,-0.0040363,0.0018294,0.00020159,-0.17571,0.038856,-9.8641,0,0,37.628,1,1,7746,3873
10037,4.7485e+07,2,-0.0033131,0.0019863,-0.00045895,-0.17705,0.038581,-9.8655,0,0,37.628,1,1,7746,3873
10045,4.7488e+07,2,-0.0025257,0.0021294,-0.00060931,-0.17779,0.038346,-9.8666,0,0,37.628,1,1,7746,3873
10048,4.749e+07,2,-0.0020804,0.0015547,-0.0006668,-0.1783,0.038598,-9.8682,0,0,37.629,1,1,7746,3873
10051,4.7492e+07,2,-0.0021584,0.0010583,-0.00052958,-0.17751,0.03886,-9.8715,0,0,37.629,1,1,7746,3873
10082,4.7495e+07,2,-0.0022193,0.00065795,0.00010085,-0.17617,0.039234,-9.8728,0,0,37.629,1,1,7746,3873
10085,4.7498e+07,2,-0.0018567,0.00059078,-0.00074897,-0.1738,0.040322,-9.8698,0,0,37.629,1,1,7746,3873
10089,4.7501e+07,2,-0.0016734,0.0012385,-0.00083433,-0.17199,0.041176,-9.8645,0,0,37.629,1,1,7746,3873
10092,4.7503e+07,2,-0.0013985,0.0021584,-0.00098253,-0.17066,0.042736,-9.861,0,0,37.629,1,1,7746,3873
10123,4.7505e+07,2,-0.0019113,0.0034934,-0.00077317,-0.16969,0.045702,-9.8613,0,0,37.629,1,1,7746,3873
10127,4.7507e+07,2,-0.0017618,0.0034255,-0.0013644,-0.1712,0.046961,-9.8628,0,0,37.629,1,1,7746,3873
10130,4.751e+07,2,-0.00148,0.003324,-0.0018067,-0.17117,0.04621,-9.8611,0,0,37.629,1,1,7746,3873
10134,4.7513e+07,2,-0.00033779,0.0024473,-0.0012035,-0.16886,0.044319,-9.8575,0,0,37.629,1,1,7746,3873
10165,4.7515e+07,2,-0.00026828,0.0021647,-0.00067339,-0.16816,0.043403,-9.8549,0,0,37.629,1,1,7746,3873
10168,4.7518e+07,2,0.0003501,0.0021005,0.00024757,-0.1675,0.041922,-9.8528,0,0,37.629,1,1,7746,3873
10171,4.752e+07,2,0.00090754,0.0016464,0.00036485,-0.16704,0.040168,-9.8505,0,0,37.63,1,1,7746,3873
10174,4.7522e+07,2,0.00017306,0.0015633,0.00018363,-0.16805,0.038555,-9.8467,0,0,37.63,1,1,7746,3873
10205,4.7526e+07,2,4.324e-05,0.0016298,-0.00015959,-0.16892,0.039248,-9.8464,0,0,37.63,1,1,7746,3873
10209,4.7528e+07,2,5.7074e-05,0.0011528,-0.0013064,-0.16985,0.040869,-9.85,0,0,37.63,1,1,7746,3873
10212,4.753e+07,2,-1.9991e-05,0.0011461,-0.0014832,-0.17046,0.041684,-9.8525,0,0,37.63,1,1,7746,3873
10215,4.7532e+07,2,-0.00035778,0.0016992,-0.0024757,-0.16988,0.042618,-9.8549,0,0,37.63,1,1,7746,3873
10248,4.7535e+07,2,-0.00068765,0.0022045,-0.0022809,-0.16863,0.042465,-9.8562,0,0,37.63,1,1,7746,3873
10252,4.7538e+07,2,0.00067399,0.002699,-0.0019076,-0.16706,0.040288,-9.8583,0,0,37.63,1,1,7746,3873
10255,4.754e+07,2,0.0013429,0.0030558,-0.0017672,-0.16736,0.039027,-9.8581,0,0,37.63,1,1,7746,3873
10258,4.7542e+07,2,0.0020146,0.0030047,-0.00072667,-0.16988,0.038689,-9.8568,0,0,37.63,1,1,7746,3873
10289,4.7545e+07,2,0.0017393,0.0027677,0.00020846,-0.17153,0.039442,-9.8565,0,0,37.631,1,1,7746,3873
10293,4.7547e+07,2,0.0017369,0.0027906,0.0011953,-0.17303,0.040822,-9.8576,0,0,37.631,1,1,7746,3873
10296,4.755e+07,2,0.0015823,0.0024907,0.0014088,-0.17358,0.041818,-9.859,0,0,37.631,1,1,7746,3873
10299,4.7553e+07,2,0.0017544,0.0024179,0.0011792,-0.17312,0.041954,-9.8623,0,0,37.631,1,1,7746,3873
10330,4.7556e+07,2,0.0022998,0.0022614,0.00026868,-0.17141,0.041017,-9.8704,0,0,37.631,1,1,7746,3873
10334,4.7557e+07,2,0.002323,0.0024138,0.00067058,-0.16995,0.03765,-9.875,0,0,37.631,1,1,7746,3873
10338,4.756e+07,2,0.0017489,0.00267,0.0016524,-0.16981,0.036071,-9.876,0,0,37.631,1,1,7746,3873
10341,4.7563e+07,2,0.00056234,0.0033757,0.0033495,-0.1681,0.035074,-9.8771,0,0,37.632,1,1,7746,3873
10372,4.7565e+07,2,0.00026869,0.0028354,0.0033375,-0.1661,0.033658,-9.8781,0,0,37.632,1,1,7746,3873
10375,4.7567e+07,2,0.00034455,0.00098366,0.0027277,-0.16335,0.029724,-9.8797,0,0,37.632,1,1,7746,3873
10378,4.757e+07,2,3.2698e-05,0.00061737,0.0020469,-0.16207,0.027458,-9.8786,0,0,37.632,1,1,7746,3873
10381,4.7572e+07,2,-0.00075976,0.0012714,0.0013246,-0.16156,0.023607,-9.8742,0,0,37.632,1,1,7746,3873
10412,4.7575e+07,2,-0.0015615,0.0010974,0.00077791,-0.16206,0.021806,-9.8705,0,0,37.632,1,1,7746,3873
10416,4.7577e+07,2,-0.0013067,0.00089304,0.00064859,-0.16379,0.020583,-9.8653,0,0,37.632,1,1,7746,3873
10419,4.758e+07,2,-0.00060206,0.00043016,0.00019896,-0.16642,0.020883,-9.8589,0,0,37.632,1,1,7746,3873
10422,4.7582e+07,2,0.00027705,-0.00040579,0.001305,-0.17058,0.022417,-9.8498,0,0,37.633,1,1,7746,3873
10453,4.7585e+07,2,0.00049591,-0.00078881,0.0017227,-0.17262,0.022878,-9.8457,0,0,37.633,1,1,7746,3873
10460,4.7588e+07,2,0.00079336,-0.0012103,0.0016677,-0.17415,0.023081,-9.8425,0,0,37.633,1,1,7746,3873
10463,4.759e+07,2,0.0011367,-0.0015082,0.00042276,-0.17524,0.022888,-9.8382,0,0,37.633,1,1,7746,3873
10466,4.7592e+07,2,0.00063614,-0.00072575,-0.0012784,-0.17477,0.022313,-9.8364,0,0,37.633,1,1,7746,3873
10497,4.7595e+07,2,-0.00012004,-0.00015916,-0.0014629,-0.17379,0.021533,-9.8372,0,0,37.633,1,1,7746,3873
10501,4.7597e+07,2,-0.00077008,0.00019112,-0.00040099,-0.16873,0.01969,-9.8396,0,0,37.633,1,1,7746,3873
10504,4.76e+07,2,-0.00068313,-0.00014746,0.00040415,-0.16515,0.018027,-9.8401,0,0,37.633,1,1,7746,3873
10509,4.7603e+07,2,-0.00087292,-0.00047585,0.00080328,-0.16178,0.018553,-9.8379,0,0,37.633,1,1,7746,3873
10540,4.7605e+07,2,-0.0011093,-2.3115e-05,0.0012327,-0.1606,0.019962,-9.836,0,0,37.633,1,1,7746,3873
10544,4.7607e+07,2,-0.0011877,0.00041426,0.00098762,-0.15982,0.020766,-9.834,0,0,37.633,1,1,7746,3873
10549,4.7613e+07,2,-0.0012409,-5.0755e-05,0.0013592,-0.15984,0.028837,-9.8297,0,0,37.634,1,1,7746,3873
10580,4.7615e+07,2,-0.0015773,0.00048851,0.001171,-0.15975,0.030919,-9.83,0,0,37.634,1,1,7746,3873
10583,4.7617e+07,2,-0.0024442,0.00093014,0.00095872,-0.15903,0.03116,-9.8311,0,0,37.634,1,1,7746,3873
10586,4.762e+07,2,-0.0029229,0.0014485,0.00022835,-0.15842,0.030277,-9.833,0,0,37.634,1,1,7746,3873
10589,4.7623e+07,2,-0.0030322,0.0011698,-0.00084279,-0.15711,0.029301,-9.8367,0,0,37.634,1,1,7746,3873
10620,4.7626e+07,2,-0.0031781,0.0011056,-0.0010246,-0.15651,0.030431,-9.8426,0,0,37.634,1,1,7746,3873
10624,4.7628e+07,2,-0.0032465,0.0013705,-0.00069751,-0.15657,0.0319,-9.8441,0,0,37.634,1,1,7746,3873
10627,4.763e+07,2,-0.0033586,0.0015204,-0.00079253,-0.15835,0.033944,-9.8422,0,0,37.634,1,1,7746,3873
10630,4.7634e+07,2,-0.0034724,0.0022933,-0.00046797,-0.16187,0.037484,-9.8386,0,0,37.634,1,1,7746,3873
10633,4.7635e+07,2,-0.0033058,0.0024864,0.00040488,-0.165,0.038725,-9.8376,0,0,37.634,1,1,7746,3873
10664,4.7638e+07,2,-0.0029926,0.0028233,0.0012743,-0.16922,0.038099,-9.8392,0,0,37.634,1,1,7746,3873
10667,4.764e+07,2,-0.0027178,0.0023963,0.0011985,-0.17143,0.037779,-9.8413,0,0,37.634,1,1,7746,3873
10670,4.7643e+07,2,-0.0025084,0.0017608,0.0004112,-0.17363,0.039045,-9.8453,0,0,37.634,1,1,7746,3873
10673,4.7646e+07,2,-0.0021943,0.0017966,-7.0085e-05,-0.17432,0.039711,-9.8468,0,0,37.634,1,1,7746,3873
10704,4.7648e+07,2,-0.0017256,0.002019,-0.00057323,-0.17456,0.041738,-9.852,0,0,37.634,1,1,7746,3873
10708,4.7651e+07,2,-0.0015439,0.0021461,-0.00092675,-0.17428,0.042359,-9.8571,0,0,37.634,1,1,7746,3873
10711,4.7653e+07,2,-0.0022134,0.0020184,-0.00036,-0.17438,0.043516,-9.8664,0,0,37.635,1,1,7746,3873
10714,4.7655e+07,2,-0.0025337,0.0015182,0.00012076,-0.17415,0.042791,-9.8704,0,0,37.635,1,1,7746,3873
10745,4.7658e+07,2,-0.0026897,0.00058574,-0.00027197,-0.17344,0.042264,-9.8724,0,0,37.635,1,1,7746,3873
10748,4.766e+07,2,-0.0027005,0.00048844,-0.00057603,-0.17275,0.042603,-9.8724,0,0,37.635,1,1,7746,3873
10751,4.7663e+07,2,-0.0019442,0.00062543,0.00039447,-0.17202,0.044103,-9.8729,0,0,37.635,1,1,7746,3873
10755,4.7665e+07,2,-0.0019126,0.0009046,0.00063284,-0.17255,0.044277,-9.8731,0,0,37.635,1,1,7746,3873
10786,4.7667e+07,2,-0.0010757,0.001816,-3.6084e-05,-0.17339,0.042835,-9.8733,0,0,37.635,1,1,7746,3873
10789,4.7671e+07,2,-0.00052342,0.0020879,-0.00090098,-0.17356,0.041886,-9.8737,0,0,37.635,1,1,7746,3873
10792,4.7673e+07,2,-0.00013253,0.0013415,-0.0013586,-0.17377,0.043196,-9.8755,0,0,37.635,1,1,7746,3873
10795,4.7676e+07,2,-0.00057329,0.0011753,-0.0018733,-0.17449,0.044684,-9.8748,0,0,37.635,1,1,7746,3873
10826,4.7678e+07,2,-0.00039354,0.00089853,-0.0027642,-0.17542,0.045621,-9.8721,0,0,37.635,1,1,7746,3873
10830,4.768e+07,2,-3.1285e-05,0.00088989,-0.0026289,-0.17607,0.046663,-9.87,0,0,37.635,1,1,7746,3873
10833,4.7683e+07,2,0.00026173,0.00085075,-0.0022838,-0.17562,0.047821,-9.8682,0,0,37.635,1,1,7746,3873
10836,4.7685e+07,2,-0.00024382,0.0010401,-0.0025032,-0.17554,0.047687,-9.8681,0,0,37.635,1,1,7746,3873
10871,4.7688e+07,2,-0.00010215,0.00095681,-0.0019165,-0.17546,0.047476,-9.8696,0,0,37.635,1,1,7746,3873
10874,4.769e+07,2,-0.00026808,0.0009673,-0.0020866,-0.17404,0.046817,-9.8709,0,0,37.635,1,1,7746,3873
10877,4.7693e+07,2,0.00023112,0.0011136,-0.0013818,-0.17075,0.04446,-9.8701,0,0,37.635,1,1,7746,3873
10880,4.7696e+07,2,0.00049372,0.0013942,-0.00093655,-0.16888,0.043126,-9.8684,0,0,37.635,1,1,7746,3873
10911,4.7698e+07,2,0.00044878,0.00096133,-0.00084767,-0.16605,0.040017,-9.8647,0,0,37.635,1,1,7746,3873
10915,4.7701e+07,2,0.00025997,0.00016551,-0.00059591,-0.16465,0.0377,-9.8641,0,0,37.635,1,1,7746,3873
10918,4.7703e+07,2,0.00051095,0.00019114,0.00043554,-0.16575,0.03611,-9.8632,0,0,37.635,1,1,7746,3873
10921,4.7706e+07,2,0.00077699,7.4135e-05,0.0015891,-0.16889,0.035355,-9.8588,0,0,37.635,1,1,7746,3873
10952,4.7708e+07,2,0.0007299,-1.196e-05,0.001831,-0.16946,0.035555,-9.8572,0,0,37.635,1,1,7746,3873
10955,4.7711e+07,2,0.00078489,6.1761e-06,0.0010766,-0.17241,0.036073,-9.8543,0,0,37.635,1,1,7746,3873
10958,4.7714e+07,2,0.00052252,0.00013449,0.0010236,-0.17556,0.037293,-9.8532,0,0,37.636,1,1,7746,3873
10961,4.7715e+07,2,0.00062118,0.00023857,0.00094769,-0.17992,0.038494,-9.8505,0,0,37.636,1,1,7746,3873
10992,4.7718e+07,2,0.00077979,0.00028048,0.00088078,-0.18214,0.039336,-9.8471,0,0,37.636,1,1,7746,3873
10997,4.7721e+07,2,0.001025,0.00089097,0.00032435,-0.18367,0.039601,-9.8416,0,0,37.636,1,1,7746,3873
11000,4.7723e+07,2,0.00096191,0.0012629,-0.00010186,-0.18419,0.038425,-9.8411,0,0,37.636,1,1,7746,3873
11004,4.7727e+07,2,0.00064222,0.0019745,-6.2549e-05,-0.18545,0.036282,-9.8463,0,0,37.636,1,1,7746,3873
11007,4.7728e+07,2,0.0012378,0.0021474,-0.00019015,-0.18791,0.035208,-9.849,0,0,37.636,1,1,7746,3873
11039,4.7732e+07,2,0.0017287,0.0018681,-0.00061543,-0.19086,0.033107,-9.8492,0,0,37.636,1,1,7746,3873
11042,4.7733e+07,2,0.0016287,0.0016442,-0.00064602,-0.19139,0.033821,-9.8492,0,0,37.636,1,1,7746,3873
11045,4.7736e+07,2,0.00081094,0.00078435,0.00041767,-0.1908,0.035898,-9.8491,0,0,37.636,1,1,7746,3873
11048,4.7739e+07,2,0.00050655,0.00052184,0.0013036,-0.18967,0.037561,-9.8491,0,0,37.636,1,1,7746,3873
11051,4.7741e+07,2,0.00051837,0.00055195,0.0015643,-0.18983,0.038258,-9.8491,0,0,37.636,1,1,7746,3873
11082,4.7743e+07,2,0.00070003,0.0012351,0.0017568,-0.18826,0.037601,-9.8506,0,0,37.636,1,1,7746,3873
11085,4.7746e+07,2,0.0012983,0.0015032,0.0020667,-0.18527,0.035341,-9.8542,0,0,37.635,1,1,7746,3873
11088,4.7748e+07,2,0.00093455,0.0020667,0.0025959,-0.18416,0.034091,-9.8558,0,0,37.635,1,1,7746,3873
11092,4.7751e+07,2,-0.0010035,0.0022226,0.002275,-0.18151,0.031955,-9.8538,0,0,37.635,1,1,7746,3873
11095,4.7753e+07,2,-0.0016671,0.0020275,0.0021752,-0.17918,0.030576,-9.8533,0,0,37.635,1,1,7746,3873
11126,4.7756e+07,2,-0.0018452,0.0024203,0.0025151,-0.17654,0.030303,-9.8564,0,0,37.635,1,1,7746,3873
11129,4.7758e+07,2,-0.0020236,0.0022812,0.0023183,-0.1755,0.030705,-9.858,0,0,37.636,1,1,7746,3873
11132,4.7761e+07,2,-0.0011338,0.0020388,0.0026075,-0.17395,0.03089,-9.8604,0,0,37.636,1,1,7746,3873
11135,4.7764e+07,2,-0.00072462,0.00090731,0.0026916,-0.17361,0.031328,-9.861,0,0,37.636,1,1,7746,3873
11166,4.7766e+07,2,0.00031961,-0.00020257,0.0019799,-0.17447,0.030611,-9.8652,0,0,37.636,1,1,7746,3873
11169,4.7769e+07,2,-9.6365e-05,-0.00023453,0.0012894,-0.17569,0.029596,-9.8682,0,0,37.636,1,1,7746,3873
11173,4.7771e+07,2,-0.00088026,0.00023494,0.0015269,-0.17621,0.028097,-9.869,0,0,37.636,1,1,7746,3873
11176,4.7774e+07,2,-0.0011917,0.00080166,0.002143,-0.17635,0.027016,-9.8662,0,0,37.635,1,1,7746,3873
11207,4.7776e+07,2,-0.0010357,0.0016727,0.0025777,-0.17772,0.026913,-9.8638,0,0,37.635,1,1,7746,3873
11211,4.7778e+07,2,-0.0013334,0.0029865,0.0028086,-0.17849,0.025579,-9.8597,0,0,37.635,1,1,7746,3873
11214,4.7781e+07,2,-0.0014855,0.0031932,0.0017809,-0.17833,0.024253,-9.8574,0,0,37.635,1,1,7746,3873
11217,4.7784e+07,2,-0.001628,0.0024116,0.00043453,-0.17802,0.021128,-9.8579,0,0,37.635,1,1,7746,3873
11248,4.7786e+07,2,-0.0017053,0.0020228,-0.00026599,-0.177,0.019291,-9.8596,0,0,37.635,1,1,7746,3873
11255,4.7789e+07,2,-0.0022309,0.0017792,-0.00015551,-0.17613,0.019234,-9.8625,0,0,37.635,1,1,7746,3873
11259,4.7791e+07,2,-0.0027843,0.0021343,0.0005197,-0.17588,0.020586,-9.8638,0,0,37.636,1,1,7746,3873
11262,4.7794e+07,2,-0.0031816,0.0023602,1.6461e-05,-0.17453,0.022514,-9.8641,0,0,37.636,1,1,7746,3873
11293,4.7796e+07,2,-0.0023476,0.0025783,-0.0016185,-0.17424,0.025351,-9.8612,0,0,37.636,1,1,7746,3873
11296,4.7799e+07,2,-0.0013937,0.0023019,-0.0016386,-0.17493,0.025035,-9.8589,0,0,37.636,1,1,7746,3873
11300,4.7801e+07,2,-0.0010752,0.0014407,-0.0010665,-0.17551,0.023845,-9.8573,0,0,37.636,1,1,7746,3873
11305,4.7804e+07,2,-0.001235,0.0014381,-0.0010595,-0.17532,0.022307,-9.8569,0,0,37.636,1,1,7746,3873
11336,4.7807e+07,2,-0.0023573,0.0018831,-0.00055757,-0.17271,0.020749,-9.8562,0,0,37.636,1,1,7746,3873
11339,4.7812e+07,2,-0.0023582,0.0016119,-0.0014359,-0.17174,0.023453,-9.8535,0,0,37.636,1,1,7746,3873
11342,4.7814e+07,2,-0.0015912,0.0014477,-0.0010519,-0.1702,0.026184,-9.8483,0,0,37.636,1,1,7746,3873
11373,4.7817e+07,2,-0.0015317,0.0020708,-0.00070172,-0.16837,0.026969,-9.8436,0,0,37.636,1,1,7746,3873
11376,4.782e+07,2,-0.0018569,0.0030652,-0.00074416,-0.16602,0.02894,-9.8375,0,0,37.636,1,1,7746,3873
11379,4.7822e+07,2,-0.0014433,0.0031754,-0.0017029,-0.1655,0.031125,-9.8369,0,0,37.636,1,1,7746,3873
11384,4.7824e+07,2,-0.00088284,0.00213,-0.0021217,-0.16593,0.034216,-9.8389,0,0,37.636,1,1,7746,3873
11415,4.7827e+07,2,-0.0011125,0.0006741,-0.00038456,-0.1677,0.039077,-9.8425,0,0,37.636,1,1,7746,3873
11418,4.7829e+07,2,-0.00082267,0.0001387,0.00046359,-0.16921,0.041978,-9.8422,0,0,37.636,1,1,7746,3873
11421,4.7833e+07,2,-0.00090726,-0.00050486,-0.00026184,-0.16958,0.043166,-9.8404,0,0,37.636,1,1,7746,3873
11425,4.7835e+07,2,-0.00068385,-4.5911e-05,-0.0013948,-0.17045,0.041088,-9.8363,0,0,37.636,1,1,7746,3873
11456,4.7837e+07,2,-0.00024623,0.00052729,-0.0012737,-0.17192,0.037048,-9.8352,0,0,37.637,1,1,7746,3873
11460,4.784e+07,2,-0.0008225,0.00068107,-0.0015505,-0.1732,0.035685,-9.8375,0,0,37.637,1,1,7746,3873
11463,4.7842e+07,2,-0.0019814,0.0014124,-0.00169,-0.17478,0.036067,-9.8397,0,0,37.637,1,1,7746,3873
11466,4.7845e+07,2,-0.0025469,0.0015719,-0.0016701,-0.17728,0.037126,-9.8432,0,0,37.637,1,1,7746,3873
11497,4.7848e+07,2,-0.0016894,0.002176,-0.00088343,-0.17867,0.036539,-9.8468,0,0,37.637,1,1,7746,3873
11500,4.785e+07,2,-0.0004363,0.0030408,-0.00034815,-0.17955,0.036062,-9.8492,0,0,37.637,1,1,7746,3873
11503,4.7853e+07,2,-0.00048918,0.0030235,0.00022333,-0.17926,0.036801,-9.8508,0,0,37.637,1,1,7746,3873
11507,4.7855e+07,2,-0.0012479,0.0028303,-0.00062257,-0.17744,0.039587,-9.8507,0,0,37.637,1,1,7746,3873
11538,4.7858e+07,2,-0.001514,0.0025166,-0.001242,-0.17632,0.041617,-9.8493,0,0,37.638,1,1,7746,3873
11541,4.7861e+07,2,-0.00092526,0.0019465,-0.0012001,-0.1756,0.044381,-9.8499,0,0,37.638,1,1,7746,3873
11544,4.7863e+07,2,0.00064541,0.0020245,-0.00099397,-0.17383,0.047659,-9.8518,0,0,37.638,1,1,7746,3873
11548,4.7866e+07,2,0.0013622,0.0021482,-0.00079756,-0.17279,0.047163,-9.8527,0,0,37.638,1,1,7746,3873
11579,4.7869e+07,2,0.0015446,0.0019032,-0.00064944,-0.17239,0.045802,-9.8543,0,0,37.638,1,1,7746,3873
11582,4.7871e+07,2,0.0018075,0.0012937,3.9897e-06,-0.17249,0.0434,-9.8578,0,0,37.638,1,1,7746,3873
11585,4.7873e+07,2,0.00036094,0.00055726,0.0010191,-0.17246,0.039788,-9.8623,0,0,37.638,1,1,7746,3873
11589,4.7875e+07,2,-0.00048941,0.00094142,0.00058718,-0.17209,0.038565,-9.864,0,0,37.639,1,1,7746,3873
11620,4.7877e+07,2,-0.00058969,0.0012767,-0.00039987,-0.17152,0.039254,-9.8631,0,0,37.639,1,1,7746,3873
11623,4.7881e+07,2,-0.00017603,0.0018561,-0.0011474,-0.17045,0.04055,-9.8608,0,0,37.639,1,1,7746,3873
11626,4.7883e+07,2,0.00045429,0.0020739,-0.00089257,-0.16999,0.041281,-9.8584,0,0,37.639,1,1,7746,3873
11629,4.7885e+07,2,6.5254e-05,0.0015822,-0.00016418,-0.17021,0.040728,-9.8577,0,0,37.639,1,1,7746,3873
11660,4.7888e+07,2,0.00010871,0.0010662,0.00049022,-0.17238,0.039638,-9.8571,0,0,37.639,1,1,7746,3873
11668,4.7891e+07,2,0.00021836,0.0006235,0.00046006,-0.17498,0.039461,-9.8558,0,0,37.639,1,1,7746,3873
11671,4.7893e+07,2,0.00090387,0.00093745,4.7366e-05,-0.17917,0.039672,-9.8532,0,0,37.639,1,1,7746,3873
11675,4.7896e+07,2,0.00019235,0.0012551,0.00060135,-0.18311,0.039773,-9.8536,0,0,37.639,1,1,7746,3873
11706,4.7898e+07,2,0.00011234,0.0012844,0.00043496,-0.18547,0.039265,-9.8554,0,0,37.64,1,1,7746,3873
11709,4.7901e+07,2,-0.00033513,0.00098295,-0.00040331,-0.18652,0.037746,-9.8583,0,0,37.64,1,1,7746,3873
11712,4.7903e+07,2,-0.0014464,0.00032452,-0.0012105,-0.18603,0.036464,-9.8578,0,0,37.64,1,1,7746,3873
11716,4.7906e+07,2,-0.0015834,-0.0002905,-0.0014121,-0.18356,0.034505,-9.8561,0,0,37.64,1,1,7746,3873
11747,4.7909e+07,2,-0.0008509,0.00043478,-0.0012243,-0.17977,0.033974,-9.8569,0,0,37.64,1,1,7746,3873
11750,4.7911e+07,2,-0.00045095,0.00098312,0.00035598,-0.17667,0.033997,-9.858,0,0,37.64,1,1,7746,3873
11753,4.7914e+07,2,0.00028256,0.00055092,0.0028095,-0.17367,0.034811,-9.8582,0,0,37.64,1,1,7746,3873
11756,4.7917e+07,2,3.8665e-05,0.00037948,0.0038785,-0.17347,0.034958,-9.8578,0,0,37.64,1,1,7746,3873
11787,4.7919e+07,2,-0.0011852,0.00075462,0.0028345,-0.17449,0.034656,-9.8565,0,0,37.64,1,1,7746,3873
11790,4.7921e+07,2,-0.001311,0.001164,0.0017894,-0.1758,0.034178,-9.8563,0,0,37.641,1,1,7746,3873
11793,4.7924e+07,2,-0.00096124,0.0015184,0.0015614,-0.17757,0.033267,-9.8571,0,0,37.641,1,1,7746,3873
11798,4.7926e+07,2,-0.00095685,0.0015189,0.0016221,-0.17756,0.033353,-9.8557,0,0,37.641,1,1,7746,3873
11829,4.7929e+07,2,-0.00035075,0.0017634,0.00071925,-0.17801,0.034608,-9.8547,0,0,37.641,1,1,7746,3873
11832,4.7934e+07,2,-0.0018068,0.00077127,0.00044793,-0.17632,0.038214,-9.8568,0,0,37.641,1,1,7746,3873
11836,4.7937e+07,2,-0.0018349,0.00061313,0.00060466,-0.17595,0.040417,-9.8573,0,0,37.641,1,1,7746,3873
11867,4.7939e+07,2,-0.0011189,0.00053303,0.0010037,-0.17752,0.043771,-9.8566,0,0,37.642,1,1,7746,3873
11871,4.7941e+07,2,-0.00073951,0.00070655,-4.9633e-05,-0.17773,0.045059,-9.857,0,0,37.642,1,1,7746,3873
11874,4.7944e+07,2,-0.0024776,0.00097658,-0.00073428,-0.17488,0.047046,-9.8589,0,0,37.642,1,1,7746,3873
11878,4.7946e+07,2,-0.0029492,0.00048609,-0.0004682,-0.1718,0.047874,-9.8592,0,0,37.642,1,1,7746,3873
11909,4.7949e+07,2,-0.0027903,-0.00039902,0.0011809,-0.16931,0.047273,-9.8594,0,0,37.642,1,1,7746,3873
11912,4.7952e+07,2,-0.0028407,-0.0010266,0.0017912,-0.16831,0.047006,-9.8599,0,0,37.642,1,1,7746,3873
11915,4.7953e+07,2,-0.0026537,-0.00078995,0.0020621,-0.16658,0.045047,-9.858,0,0,37.642,1,1,7746,3873
11918,4.7956e+07,2,-0.0019012,-0.00048988,0.0023554,-0.16672,0.042999,-9.8581,0,0,37.643,1,1,7746,3873
11949,4.7959e+07,2,-0.0012586,-7.3318e-05,0.0014479,-0.16714,0.040953,-9.8591,0,0,37.643,1,1,7746,3873
11952,4.7961e+07,2,-0.0011653,0.00030246,0.001059,-0.16879,0.039531,-9.8578,0,0,37.643,1,1,7746,3873
11955,4.7964e+07,2,-0.00087442,0.0012331,0.0015382,-0.17164,0.035744,-9.8551,0,0,37.643,1,1,7746,3873
11959,4.7966e+07,2,-0.0014844,0.00078305,0.0015974,-0.17248,0.033384,-9.855,0,0,37.643,1,1,7746,3873
11990,4.7969e+07,2,-0.0026134,-0.00024815,0.00097547,-0.17268,0.031452,-9.855,0,0,37.643,1,1,7746,3873
11993,4.7972e+07,2,-0.0029267,-0.00049989,0.0010945,-0.17339,0.031115,-9.855,0,0,37.643,1,1,7746,3873
11996,4.7974e+07,2,-0.0024611,0.00030885,0.00071118,-0.17589,0.032824,-9.8519,0,0,37.644,1,1,7746,3873
12000,4.7977e+07,2,-0.0010525,0.00071161,0.00048825,-0.17701,0.033804,-9.8487,0,0,37.644,1,1,7746,3873
12031,4.7979e+07,2,-2.1541e-06,0.0012745,0.00085568,-0.17658,0.033841,-9.8482,0,0,37.644,1,1,7746,3873
12034,4.7981e+07,2,-0.00068892,0.0013435,0.00048187,-0.17598,0.034301,-9.8519,0,0,37.644,1,1,7746,3873
12038,4.7984e+07,2,-0.0015085,0.00090568,-0.00079032,-0.17339,0.034988,-9.8556,0,0,37.644,1,1,7746,3873
12041,4.7986e+07,2,-0.0016184,0.00036299,-0.0011938,-0.17184,0.035854,-9.8553,0,0,37.644,1,1,7746,3873
12072,4.7989e+07,2,-0.0013416,-0.00037401,-0.0021532,-0.17132,0.036733,-9.8533,0,0,37.644,1,1,7746,3873
12079,4.7991e+07,2,-0.0010134,-0.00096458,-0.0020281,-0.17146,0.037285,-9.8512,0,0,37.644,1,1,7746,3873
12084,4.7994e+07,2,-0.00096082,-0.0014215,-0.0019217,-0.17197,0.037779,-9.8504,0,0,37.645,1,1,7746,3873
12088,4.7997e+07,2,-0.00071761,-0.001029,-0.0016522,-0.17213,0.036717,-9.8509,0,0,37.645,1,1,7746,3873
12119,4.7999e+07,2,0.00010232,0.00075244,-0.0009277,-0.17248,0.034689,-9.8521,0,0,37.645,1,1,7746,3873
12122,4.8002e+07,2,0.0004886,0.0016953,-0.0015694,-0.17355,0.03271,-9.8543,0,0,37.645,1,1,7746,3873
12125,4.8004e+07,2,-0.00076787,0.0019969,-0.0025206,-0.1754,0.030365,-9.8574,0,0,37.645,1,1,7746,3873
12130,4.8007e+07,2,-0.0011764,0.0016049,-0.0024243,-0.17551,0.029641,-9.8564,0,0,37.645,1,1,7746,3873
12161,4.8009e+07,2,-0.00043207,0.0019714,-0.0032293,-0.1754,0.028395,-9.8531,0,0,37.645,1,1,7746,3873
12164,4.8012e+07,2,-6.804e-05,0.0017885,-0.0024734,-0.17554,0.026692,-9.8511,0,0,37.645,1,1,7746,3873
12167,4.8017e+07,2,-8.7063e-05,0.001202,-0.0019156,-0.17481,0.0256,-9.8489,0,0,37.645,1,1,7746,3873
12198,4.8019e+07,2,0.0005361,0.00017091,-0.0013194,-0.17496,0.025708,-9.8506,0,0,37.645,1,1,7746,3873
12202,4.8022e+07,2,-7.2934e-05,0.00018194,-0.00099962,-0.17404,0.025278,-9.851,0,0,37.646,1,1,7746,3873
12205,4.8025e+07,2,-0.0011747,0.00059186,-0.00017238,-0.17399,0.025717,-9.8484,0,0,37.646,1,1,7746,3873
12208,4.8027e+07,2,-0.0025608,0.00092088,0.00044779,-0.17541,0.028449,-9.8425,0,0,37.646,1,1,7746,3873
12241,4.8029e+07,2,-0.0031869,0.0010064,0.00026366,-0.17616,0.031698,-9.8393,0,0,37.646,1,1,7746,3873
12246,4.8032e+07,2,-0.0020727,0.0011055,-0.0001387,-0.17597,0.034153,-9.8401,0,0,37.646,1,1,7746,3873
12250,4.8036e+07,2,-0.00064348,0.0016152,0.00083143,-0.17702,0.035963,-9.8411,0,0,37.646,1,1,7746,3873
12253,4.8037e+07,2,-0.001134,0.0016057,-0.00010855,-0.17875,0.036262,-9.8417,0,0,37.646,1,1,7746,3873
12284,4.8041e+07,2,-0.00099002,0.0022224,-0.001925,-0.18009,0.037507,-9.8442,0,0,37.646,1,1,7746,3873
12287,4.8042e+07,2,-0.00082098,0.0025866,-0.0022323,-0.18043,0.037846,-9.848,0,0,37.646,1,1,7746,3873
12290,4.8044e+07,2,0.00011088,0.002775,-0.0022907,-0.1811,0.03825,-9.8551,0,0,37.646,1,1,7746,3873
12293,4.8048e+07,2,0.00038843,0.0025349,-0.0013877,-0.18244,0.039172,-9.8584,0,0,37.646,1,1,7746,3873
12296,4.805e+07,2,0.00077763,0.0023288,-0.00074005,-0.18224,0.040574,-9.8618,0,0,37.646,1,1,7746,3873
12327,4.8052e+07,2,0.00083059,0.0020441,-0.0010425,-0.1813,0.040608,-9.8634,0,0,37.646,1,1,7746,3873
12331,4.8054e+07,2,0.00020952,0.00062183,-0.0012842,-0.17884,0.041344,-9.869,0,0,37.646,1,1,7746,3873
12334,4.8057e+07,2,7.5393e-05,0.00019929,-0.0011684,-0.17912,0.041286,-9.8713,0,0,37.646,1,1,7746,3873
12337,4.806e+07,2,-0.00019073,0.00019958,-0.00033367,-0.17865,0.039667,-9.8706,0,0,37.646,1,1,7746,3873
12368,4.8062e+07,2,-0.00076159,0.00088022,0.00014458,-0.17766,0.036256,-9.8667,0,0,37.646,1,1,7746,3873
12371,4.8065e+07,2,-0.0013583,0.00089547,0.0006913,-0.17601,0.033406,-9.8643,0,0,37.646,1,1,7746,3873
12374,4.8068e+07,2,-0.0026799,0.00035283,0.00062175,-0.17107,0.030596,-9.8626,0,0,37.647,1,1,7746,3873
12377,4.807e+07,2,-0.0032173,0.00018732,0.0007693,-0.16841,0.030084,-9.8636,0,0,37.647,1,1,7746,3873
12408,4.8073e+07,2,-0.0029509,0.00018805,0.00046338,-0.16596,0.03218,-9.8648,0,0,37.647,1,1,7746,3873
12412,4.8075e+07,2,-0.0019685,0.00097005,0.001202,-0.16393,0.033336,-9.8667,0,0,37.647,1,1,7746,3873
12415,4.8077e+07,2,-0.00035494,0.0015977,0.0020661,-0.16036,0.032837,-9.8696,0,0,37.647,1,1,7746,3873
12418,4.8081e+07,2,-0.00010823,0.0013774,0.0016256,-0.1597,0.031371,-9.8692,0,0,37.647,1,1,7746,3873
12449,4.8083e+07,2,-0.00039211,0.00089546,0.00021031,-0.16024,0.030145,-9.8678,0,0,37.647,1,1,7746,3873
12453,4.8086e+07,2,-0.00083827,0.00027306,-0.00057631,-0.16098,0.029785,-9.8667,0,0,37.647,1,1,7746,3873
12456,4.8088e+07,2,-0.0011066,-0.00017123,-0.00041712,-0.16364,0.029957,-9.8658,0,0,37.647,1,1,7746,3873
12459,4.809e+07,2,-0.0019696,-0.0013632,-0.00021373,-0.16671,0.028588,-9.8665,0,0,37.647,1,1,7746,3873
12494,4.8094e+07,2,-0.0025139,-0.0019847,-0.00016781,-0.16779,0.027298,-9.8668,0,0,37.647,1,1,7746,3873
12497,4.8096e+07,2,-0.0026524,-0.0011028,0.00013057,-0.16892,0.02509,-9.8655,0,0,37.647,1,1,7746,3873
12500,4.8098e+07,2,-0.0029635,-0.00049485,0.00042574,-0.16988,0.024593,-9.863,0,0,37.647,1,1,7746,3873
12503,4.81e+07,2,-0.0033605,-0.00020553,-0.00094234,-0.17035,0.025921,-9.8634,0,0,37.647,1,1,7746,3873
12534,4.8103e+07,2,-0.0035799,0.00043855,-0.0010116,-0.17072,0.027403,-9.8657,0,0,37.647,1,1,7746,3873
12538,4.8106e+07,2,-0.0040128,0.00090268,-0.00047188,-0.17113,0.030789,-9.8686,0,0,37.647,1,1,7746,3873
12541,4.8108e+07,2,-0.0040588,0.00081636,0.00049549,-0.17055,0.032811,-9.8691,0,0,37.647,1,1,7746,3873
12544,4.8111e+07,2,-0.0034035,0.00056949,0.00020309,-0.1702,0.036712,-9.8711,0,0,37.647,1,1,7746,3873
12575,4.8113e+07,2,-0.0023942,0.0010323,-0.00056816,-0.17213,0.039579,-9.8715,0,0,37.647,1,1,7746,3873
12578,4.8115e+07,2,-0.0026538,0.0011459,-0.0008667,-0.17455,0.041543,-9.8739,0,0,37.648,1,1,7746,3873
12582,4.8118e+07,2,-0.0036404,0.0011906,-0.0011007,-0.1773,0.043012,-9.8779,0,0,37.648,1,1,7746,3873
12585,4.8121e+07,2,-0.0038375,0.0018165,-0.0005266,-0.18166,0.044364,-9.8794,0,0,37.648,1,1,7746,3873
12616,4.8124e+07,2,-0.0039924,0.0023106,0.00011146,-0.18303,0.045094,-9.8776,0,0,37.648,1,1,7746,3873
12620,4.8125e+07,2,-0.0038359,0.0015798,0.00044216,-0.18289,0.044558,-9.8696,0,0,37.648,1,1,7746,3873
12623,4.8128e+07,2,-0.0031072,0.00099206,-0.00029661,-0.18429,0.043566,-9.8642,0,0,37.648,1,1,7746,3873
12626,4.8131e+07,2,-0.0023588,0.0018315,-0.0004673,-0.1859,0.041523,-9.8612,0,0,37.648,1,1,7746,3873
12657,4.8133e+07,2,-0.0023645,0.0022577,-0.0005767,-0.1858,0.042207,-9.8622,0,0,37.648,1,1,7746,3873
12660,4.8138e+07,2,-0.0017623,0.0016893,-0.0024288,-0.18249,0.039835,-9.8663,0,0,37.648,1,1,7746,3873
12664,4.814e+07,2,-0.001337,0.0014107,-0.0029273,-0.18081,0.034696,-9.8688,0,0,37.648,1,1,7746,3873
12695,4.8143e+07,2,-0.00096338,0.0013411,-0.0021497,-0.17873,0.032575,-9.8714,0,0,37.648,1,1,7746,3873
12699,4.8147e+07,2,-0.00054348,0.0017583,-0.0011985,-0.1772,0.032216,-9.8715,0,0,37.648,1,1,7746,3873
12702,4.8148e+07,2,-0.00080789,0.0018291,-0.0015611,-0.17621,0.033294,-9.8684,0,0,37.648,1,1,7746,3873
12705,4.815e+07,2,-0.0016536,0.0015354,-0.0028041,-0.17624,0.036387,-9.8617,0,0,37.648,1,1,7746,3873
12736,4.8153e+07,2,-0.0011373,0.0007042,-0.0022478,-0.17654,0.037636,-9.8578,0,0,37.648,1,1,7746,3873
12740,4.8155e+07,2,-8.1017e-05,-0.00033465,-0.0018344,-0.17593,0.037978,-9.8512,0,0,37.648,1,1,7746,3873
12743,4.8158e+07,2,-0.0004167,-0.00057978,-0.0021106,-0.176,0.037667,-9.8476,0,0,37.648,1,1,7746,3873
12747,4.8161e+07,2,-0.0015298,-6.3362e-05,-0.0016579,-0.17581,0.034842,-9.8443,0,0,37.648,1,1,7746,3873
12778,4.8163e+07,2,-0.0020582,-0.00017256,-0.00055275,-0.17713,0.030344,-9.8438,0,0,37.648,1,1,7746,3873
12781,4.8165e+07,2,-0.0013477,-0.00019476,-0.00037123,-0.17924,0.027314,-9.8429,0,0,37.648,1,1,7746,3873
12784,4.8168e+07,2,-0.00026005,0.0004312,-0.0003312,-0.18081,0.02469,-9.8432,0,0,37.648,1,1,7746,3873
12787,4.8171e+07,2,0.000711,4.341e-05,-0.0014362,-0.18233,0.021517,-9.8471,0,0,37.648,1,1,7746,3873
12818,4.8173e+07,2,0.001016,-0.00016427,-0.0014071,-0.18289,0.019105,-9.8498,0,0,37.648,1,1,7746,3873
12822,4.8176e+07,2,0.0010561,-0.00021224,-0.0010681,-0.18313,0.017135,-9.8514,0,0,37.648,1,1,7746,3873
12825,4.8178e+07,2,0.0013164,-0.00030641,-0.00078971,-0.18288,0.01753,-9.8535,0,0,37.648,1,1,7746,3873
12828,4.8181e+07,2,0.0016039,0.00042286,-4.9174e-05,-0.18174,0.019401,-9.854,0,0,37.648,1,1,7746,3873
12859,4.8183e+07,2,0.0011266,0.00069723,0.00023142,-0.18029,0.022165,-9.8529,0,0,37.648,1,1,7746,3873
12862,4.8186e+07,2,0.00020064,0.00046569,-0.00034303,-0.17879,0.026291,-9.8508,0,0,37.648,1,1,7746,3873
12865,4.8188e+07,2,0.00038146,0.0010593,-0.00038536,-0.17653,0.0285,-9.8496,0,0,37.648,1,1,7746,3873
12868,4.819e+07,2,0.0013797,0.0021104,-0.00031895,-0.17372,0.03155,-9.8521,0,0,37.648,1,1,7746,3873
12903,4.8193e+07,2,0.0019047,0.0023427,0.0001703,-0.17379,0.033578,-9.8564,0,0,37.648,1,1,7746,3873
12907,4.8196e+07,2,0.0020905,0.00097137,0.0012897,-0.17655,0.035315,-9.8619,0,0,37.648,1,1,7746,3873
12910,4.8198e+07,2,0.0019895,-0.00052322,0.0015527,-0.17897,0.035037,-9.8648,0,0,37.648,1,1,7746,3873
12913,4.8201e+07,2,0.00089231,-0.00052728,0.0010303,-0.18275,0.035979,-9.8701,0,0,37.648,1,1,7746,3873
12944,4.8203e+07,2,-1.2448e-05,0.0008658,0.0013843,-0.18512,0.038999,-9.8757,0,0,37.648,1,1,7746,3873
12947,4.8206e+07,2,-0.00046331,0.001496,0.0016643,-0.18579,0.040294,-9.8772,0,0,37.648,1,1,7746,3873
12953,4.8209e+07,2,-0.00063445,0.0026878,0.0010417,-0.18617,0.039937,-9.8771,0,0,37.648,1,1,7746,3873
12956,4.8211e+07,2,-0.00042492,0.0027774,0.00057245,-0.18686,0.038752,-9.875,0,0,37.648,1,1,7746,3873
12987,4.8214e+07,2,1.5067e-05,0.0022402,0.0010244,-0.18851,0.03695,-9.8685,0,0,37.648,1,1,7746,3873
12991,4.8216e+07,2,0.000963,0.0017837,0.0015147,-0.18863,0.034943,-9.8656,0,0,37.648,1,1,7746,3873
12994,4.8218e+07,2,0.00093256,0.0021541,0.0011052,-0.18899,0.031648,-9.8647,0,0,37.648,1,1,7746,3873
12997,4.8221e+07,2,-0.00018903,0.0018707,0.0011547,-0.18895,0.029781,-9.8649,0,0,37.648,1,1,7746,3873
13028,4.8227e+07,2,-0.0019929,0.00015493,0.0012882,-0.1866,0.031232,-9.8578,0,0,37.648,1,1,7746,3873
13031,4.8228e+07,2,-0.0021567,0.0012702,0.00091683,-0.18447,0.032139,-9.8551,0,0,37.648,1,1,7746,3873
13035,4.8231e+07,2,-0.0018107,0.0022778,0.00094874,-0.18421,0.031098,-9.8543,0,0,37.648,1,1,7746,3873
13066,4.8233e+07,2,-0.001413,0.0029376,0.00068994,-0.18531,0.029134,-9.8537,0,0,37.648,1,1,7746,3873
13069,4.8236e+07,2,-0.002416,0.0022495,0.00062046,-0.18369,0.029241,-9.8546,0,0,37.648,1,1,7746,3873
13072,4.8242e+07,2,-0.0040672,0.0025264,0.0011651,-0.17828,0.030243,-9.8583,0,0,37.648,1,1,7746,3873
13076,4.8244e+07,2,-0.0028889,0.0025658,0.00083124,-0.1755,0.032542,-9.8591,0,0,37.648,1,1,7746,3873
13107,4.8246e+07,2,-0.0014258,0.0025047,0.0010232,-0.17638,0.03431,-9.8587,0,0,37.648,1,1,7746,3873
13110,4.8248e+07,2,-0.00097709,0.0025723,0.00080749,-0.17882,0.034237,-9.8601,0,0,37.648,1,1,7746,3873
13113,4.8251e+07,2,-0.0011285,0.0026585,0.0010448,-0.17992,0.033279,-9.861,0,0,37.648,1,1,7746,3873
13116,4.8254e+07,2,-0.0017938,0.0028876,0.0017507,-0.18122,0.032298,-9.8597,0,0,37.648,1,1,7746,3873
13147,4.8256e+07,2,-0.0022408,0.0023934,0.002622,-0.18061,0.032958,-9.8588,0,0,37.648,1,1,7746,3873
13150,4.8258e+07,2,-0.0029577,0.0021845,0.0023536,-0.17722,0.034079,-9.8597,0,0,37.648,1,1,7746,3873
13153,4.8261e+07,2,-0.0023569,0.0021733,0.0021153,-0.17494,0.034434,-9.8614,0,0,37.648,1,1,7746,3873
13157,4.8264e+07,2,-0.001958,0.0018887,0.00058219,-0.17221,0.034628,-9.8652,0,0,37.648,1,1,7746,3873
13188,4.8266e+07,2,-0.0013873,0.0015319,0.00021437,-0.1705,0.034737,-9.866,0,0,37.648,1,1,7746,3873
13191,4.8269e+07,2,-0.00076622,0.0013579,-7.1e-05,-0.16991,0.034378,-9.8656,0,0,37.648,1,1,7746,3873
13195,4.8271e+07,2,-0.0012135,0.001731,0.00048578,-0.17011,0.034418,-9.8642,0,0,37.648,1,1,7746,3873
13198,4.8273e+07,2,-0.0014564,0.0022889,0.00076813,-0.17056,0.034962,-9.8624,0,0,37.648,1,1,7746,3873
13229,4.8276e+07,2,-0.0013426,0.0024438,0.00063208,-0.17028,0.035026,-9.8613,0,0,37.648,1,1,7746,3873
13233,4.8278e+07,2,-0.00079862,0.0016978,-8.5243e-05,-0.16915,0.035653,-9.8601,0,0,37.648,1,1,7746,3873
13236,4.8281e+07,2,-0.00011384,0.0015654,-0.00035915,-0.16718,0.036309,-9.8602,0,0,37.648,1,1,7746,3873
13240,4.8284e+07,2,-5.4315e-05,0.0013247,-0.00029452,-0.16451,0.039627,-9.858,0,0,37.648,1,1,7746,3873
13271,4.8286e+07,2,-0.00035499,0.0015421,-0.0011917,-0.16424,0.041711,-9.8557,0,0,37.648,1,1,7746,3873
13274,4.8289e+07,2,-0.00084768,0.0028545,-0.0010696,-0.16527,0.043288,-9.8523,0,0,37.648,1,1,7746,3873
13277,4.8291e+07,2,-0.0013585,0.0030006,-0.00028675,-0.16631,0.04549,-9.8507,0,0,37.648,1,1,7746,3873
13285,4.8294e+07,2,-0.0019042,0.0016637,1.8617e-05,-0.16778,0.049605,-9.8486,0,0,37.648,1,1,7746,3873
13316,4.8296e+07,2,-0.0022498,0.0010682,0.00016435,-0.16811,0.050272,-9.847,0,0,37.648,1,1,7746,3873
13319,4.8299e+07,2,-0.0021915,0.00080885,-0.00037746,-0.16769,0.048429,-9.8514,0,0,37.648,1,1,7746,3873
13322,4.8302e+07,2,-0.0022079,0.00069079,-0.00015765,-0.16817,0.045798,-9.8562,0,0,37.648,1,1,7746,3873
13325,4.8304e+07,2,-0.0028902,0.00017786,0.00034921,-0.16936,0.043281,-9.8611,0,0,37.648,1,1,7746,3873
13356,4.8306e+07,2,-0.0033166,0.00045117,0.00087213,-0.1712,0.040054,-9.8636,0,0,37.648,1,1,7746,3873
13359,4.8309e+07,2,-0.0031565,0.00074227,0.00099285,-0.17327,0.039618,-9.8635,0,0,37.648,1,1,7746,3873
13362,4.8311e+07,2,-0.0020262,0.0016316,0.0013716,-0.17717,0.038191,-9.861,0,0,37.648,1,1,7746,3873
13366,4.8314e+07,2,-0.0010596,0.0013323,0.0013535,-0.17968,0.036751,-9.8601,0,0,37.648,1,1,7746,3873
13397,4.8317e+07,2,0.00021597,0.00064071,0.0010592,-0.18302,0.034663,-9.8634,0,0,37.648,1,1,7746,3873
13400,4.8319e+07,2,0.00028682,-7.8034e-05,0.0003155,-0.18572,0.032275,-9.8665,0,0,37.648,1,1,7746,3873
13404,4.8321e+07,2,-0.00019126,-0.00089012,-0.00055088,-0.18883,0.029124,-9.8678,0,0,37.648,1,1,7746,3873
13407,4.8324e+07,2,-0.00030403,-0.00061221,-0.00036078,-0.19299,0.025466,-9.8633,0,0,37.648,1,1,7746,3873
13438,4.8326e+07,2,-0.001356,0.00090933,-0.00011525,-0.19509,0.02449,-9.8598,0,0,37.648,1,1,7746,3873
13441,4.8329e+07,2,-0.0021079,0.0019759,-0.0001433,-0.19537,0.025012,-9.8556,0,0,37.648,1,1,7746,3873
13444,4.8332e+07,2,-0.0017751,0.0026106,-0.00050324,-0.19425,0.025688,-9.8535,0,0,37.648,1,1,7746,3873
13448,4.8334e+07,2,-0.00033006,0.002723,-0.00031652,-0.19251,0.026604,-9.8505,0,0,37.648,1,1,7746,3873
13479,4.8337e+07,2,-3.1131e-06,0.0024518,-0.00017194,-0.18958,0.028201,-9.8431,0,0,37.648,1,1,7746,3873
13482,4.8339e+07,2,-0.00011163,0.0019064,-0.00028442,-0.18582,0.029629,-9.8388,0,0,37.648,1,1,7746,3873
13485,4.8341e+07,2,-0.00036508,0.0011525,-0.00042527,-0.18118,0.030616,-9.8366,0,0,37.648,1,1,7746,3873
13488,4.8348e+07,2,-0.00095339,-0.00025524,-0.00039814,-0.17353,0.036195,-9.8333,0,0,37.648,1,1,7746,3873
13519,4.835e+07,2,-0.0012813,-9.4432e-05,-0.0010592,-0.17099,0.039559,-9.833,0,0,37.648,1,1,7746,3873
13522,4.8353e+07,2,-0.0015904,0.0010666,-0.0011414,-0.16891,0.043209,-9.8343,0,0,37.648,1,1,7746,3873
13526,4.8356e+07,2,-0.00092411,0.0015671,-0.0011282,-0.16777,0.043883,-9.8363,0,0,37.648,1,1,7746,3873
13529,4.8358e+07,2,0.00036828,0.0017155,-0.00066576,-0.16766,0.042612,-9.8434,0,0,37.648,1,1,7746,3873
13560,4.8361e+07,2,0.00079172,0.0015568,-0.0010804,-0.16675,0.039973,-9.8502,0,0,37.648,1,1,7746,3873
13563,4.8362e+07,2,0.00069281,0.00086357,-0.0013301,-0.16656,0.038492,-9.8542,0,0,37.648,1,1,7746,3873
13567,4.8365e+07,2,0.00050833,0.00061511,-0.0018127,-0.16664,0.037997,-9.8559,0,0,37.648,1,1,7746,3873
13571,4.8367e+07,2,0.00034667,0.00087488,-0.0019685,-0.16741,0.03617,-9.8602,0,0,37.649,1,1,7746,3873
13602,4.837e+07,2,-3.1363e-05,0.0011152,-0.0013873,-0.16879,0.035491,-9.8611,0,0,37.649,1,1,7746,3873
13605,4.8373e+07,2,-0.0013619,0.00076067,-0.0022086,-0.17274,0.034529,-9.8613,0,0,37.649,1,1,7746,3873
13609,4.8375e+07,2,-0.0015587,0.0011353,-0.0021881,-0.17492,0.033534,-9.8628,0,0,37.649,1,1,7746,3873
13612,4.8378e+07,2,-0.0003485,0.0008451,-0.0013001,-0.17654,0.030721,-9.8641,0,0,37.649,1,1,7746,3873
13643,4.838e+07,2,4.2654e-05,0.00093113,0.00070971,-0.17789,0.028044,-9.8674,0,0,37.649,1,1,7746,3873
13646,4.8383e+07,2,0.00020672,0.001339,0.00014777,-0.17814,0.027978,-9.8713,0,0,37.649,1,1,7746,3873
13650,4.8386e+07,2,0.00046908,0.0010749,2.5572e-05,-0.17709,0.029987,-9.8761,0,0,37.649,1,1,7746,3873
