LineNo,TimeUS,I,GyrX,GyrY,GyrZ,AccX,AccY,AccZ,EG,EA,T,GH,AH,GHz,AHz
185,15037020,0,0.00210223,-0.003517679,-0.002962088,-0.2289461,0.2518552,-9.755046999999999,0,0,44.82954,1,1,8008,4004
216,15039579,0,0.001380966,-0.002812557,-0.001937099,-0.2309745,0.2477975,-9.75461,0,0,44.82939,1,1,8008,4004
288,15071017,0,0.001758396,0.0002154599,0.000722966,-0.2367233,0.2398192,-9.790744999999999,0,0,44.82969,1,1,8008,4004
319,15073159,0,0.0004141118,-0.0002579267,0.0002472507,-0.2343984,0.2392437,-9.795954999999999,0,0,44.82975,1,1,8008,4004
399,15090845,0,0.003893359,0.001427524,0.0006645364,-0.2227342,0.2597191,-9.768929,0,0,44.83025,1,1,8008,4004
514,15112284,0,-0.00105621,0.001363291,0.002893565,-0.2506789,0.245949,-9.713685,0,0,44.83144,1,1,8008,4004
630,15132723,0,0.001949598,0.0008061294,0.001302068,-0.2175251,0.2712063,-9.726561999999999,0,0,44.83302,1,1,8008,4004
743,15149017,0,5.578077e-05,0.001506478,-0.0006872286,-0.2296784,0.266447,-9.729918,0,0,44.83379,1,1,8008,4004
856,15164609,0,0.001140813,-0.0006294252,-0.0006801313,-0.2230663,0.2788684,-9.742805000000001,0,0,44.83406,1,1,8008,4004
969,15182013,0,0.000176941,0.000143148,-0.001195498,-0.2190571,0.2552333,-9.770451,0,0,44.83376,1,1,8008,4004
1082,15203857,0,0.001041456,-0.002345776,0.00208591,-0.2245177,0.2474235,-9.760263,0,0,44.83408,1,1,8008,4004
1197,15256035,0,-0.0006952633,0.0006963058,0.003962887,-0.2184263,0.2238505,-9.761786000000001,0,0,44.83443,1,1,8008,4004
1200,15259852,0,-0.000364488,-0.0003612133,0.003816226,-0.2234547,0.2298376,-9.75732,0,0,44.83452,1,1,8008,4004
1309,15329590,0,0.002366036,-0.001393254,-0.00271195,-0.2360642,0.26341,-9.760472999999999,0,0,44.83654,1,1,8008,4004
1403,15386314,0,4.083382e-05,0.001292345,0.001380941,-0.2346233,0.2608185,-9.767922,0,0,44.83884,1,1,8008,4004
1492,15400621,0,-0.0004615723,0.001123626,0.0004136046,-0.2415978,0.2540494,-9.760242,0,0,44.83892,1,1,8008,4004
1584,15415571,0,-0.0003806025,0.001347476,0.0004868485,-0.2336429,0.2505254,-9.765385999999999,0,0,44.83893,1,1,8008,4004
1616,15418088,0,-0.0009989230999999999,0.001624612,0.0006013583,-0.2319919,0.2478445,-9.760878,0,0,44.83891,1,1,8008,4004
1656,15421315,0,-0.001432769,0.0004172493,0.0004371683,-0.2299488,0.2462657,-9.757477,0,0,44.83889,1,1,8008,4004
1659,15423801,0,-0.001635899,-0.0002852186,-0.0001221435,-0.2303349,0.2454364,-9.757192999999999,0,0,44.83888,1,1,8008,4004
1662,15425931,0,-0.0009213916,0.0007767187,-0.0006988274,-0.2320971,0.2432385,-9.758971000000001,0,0,44.83886,1,1,8008,4004
1694,15428680,0,-0.0005683335,0.001056376,-0.001091781,-0.2316666,0.2399794,-9.759969999999999,0,0,44.83885,1,1,8008,4004
1697,15431597,0,-0.001335533,-0.000116365,-0.001108757,-0.2292616,0.2336986,-9.762513,0,0,44.83883,1,1,8008,4004
1700,15433929,0,-0.002304896,-0.0003932701,-0.0001224908,-0.2265751,0.2287088,-9.764201999999999,0,0,44.83881,1,1,8008,4004
1704,15436260,0,-0.002163249,0.0001554233,-0.0005543697,-0.2242378,0.2269065,-9.763593999999999,0,0,44.83881,1,1,8008,4004
1735,15438721,0,-0.001638869,0.001147958,-0.0009283608,-0.2203397,0.2269111,-9.760522,0,0,44.83879,1,1,8008,4004
1738,15441028,0,-0.0006957469,0.001000479,-0.0005354927,-0.2130293,0.2302787,-9.759185,0,0,44.83877,1,1,8008,4004
1741,15444052,0,-0.0008270886,-0.0004811308,0.0006653747,-0.2073106,0.2356812,-9.76244,0,0,44.83876,1,1,8008,4004
1744,15446294,0,-0.001720097,-0.001552687,0.0007569028,-0.2036719,0.2377419,-9.764887,0,0,44.83875,1,1,8008,4004
1776,15448620,0,-0.002296152,-0.001980185,-0.0001727323,-0.1992596,0.2390152,-9.768184,0,0,44.83874,1,1,8008,4004
1779,15451006,0,-0.001514152,-0.0006721241,-0.0003268544,-0.1956702,0.2395705,-9.771611999999999,0,0,44.83871,1,1,8008,4004
1782,15453572,0,-0.0004916975,-0.0002579682,0.0008739274,-0.1970695,0.2386891,-9.775510000000001,0,0,44.8387,1,1,8008,4004
1785,15459931,0,-0.0004683251,-0.001076373,0.000366223,-0.2012155,0.2409111,-9.778893,0,0,44.83867,1,1,8008,4004
1816,15462160,0,0.0006986095000000001,-0.002682036,8.338766e-05,-0.2041835,0.2472325,-9.775698,0,0,44.83866,1,1,8008,4004
1819,15464629,0,0.001764479,-0.002755289,0.0006658483,-0.2060062,0.2485728,-9.773523000000001,0,0,44.83864,1,1,8008,4004
1822,15467749,0,0.002053092,-0.002054393,0.0006527769,-0.2070666,0.2478073,-9.773770000000001,0,0,44.83863,1,1,8008,4004
1825,15470926,0,0.003287257,-0.001409344,0.00034072,-0.2067529,0.2453891,-9.770357000000001,0,0,44.83862,1,1,8008,4004
1828,15472270,0,0.003494999,-0.001482493,-0.0005945208999999999,-0.2057505,0.2417187,-9.765784,0,0,44.8386,1,1,8008,4004
1860,15474609,0,0.00211172,-0.001135257,-0.001545587,-0.205743,0.2360611,-9.759581000000001,0,0,44.83859,1,1,8008,4004
1863,15477154,0,2.897768e-05,-0.000188292,-0.00124922,-0.2064223,0.2353588,-9.758239,0,0,44.83858,1,1,8008,4004
1867,15480293,0,0.0004966907,6.570902000000001e-05,0.000665499,-0.2074542,0.2386332,-9.757861999999999,0,0,44.83856,1,1,8008,4004
1870,15482694,0,0.001287901,-0.0007025595,0.002816776,-0.2100443,0.2407033,-9.756709000000001,0,0,44.83854,1,1,8008,4004
1902,15484839,0,0.002175017,-0.0005754508,0.004558458,-0.2164424,0.2438291,-9.755519,0,0,44.83849,1,1,8008,4004
1908,15487232,0,0.002591306,-0.0002046651,0.003406365,-0.2209016,0.2467364,-9.752267,0,0,44.83839,1,1,8008,4004
1912,15489875,0,0.001953625,-0.001432777,0.001224666,-0.2269128,0.2493933,-9.743653,0,0,44.83822,1,1,8008,4004
1915,15492418,0,0.00121935,-0.002131358,0.0007908791,-0.2314399,0.2511407,-9.74184,0,0,44.83812,1,1,8008,4004
1946,15495129,0,0.001085577,-0.0008253453,0.0002165752,-0.2386662,0.2589714,-9.743468,0,0,44.83797,1,1,8008,4004
1949,15497699,0,0.002017591,0.0001683276,0.0007292616,-0.2409227,0.2645984,-9.743979,0,0,44.83789,1,1,8008,4004
1952,15499665,0,0.002719782,0.0005548164,0.00198874,-0.237132,0.2683673,-9.74527,0,0,44.8378,1,1,8008,4004
1955,15502198,0,0.00172363,0.0004251098,0.001836975,-0.2338873,0.2684117,-9.748771,0,0,44.83774,1,1,8008,4004
1987,15504665,0,0.001799638,0.001098535,0.0005202821,-0.2324878,0.2682153,-9.754135,0,0,44.83765,1,1,8008,4004
1990,15507825,0,0.003125745,0.001402944,-0.0005478435,-0.2299587,0.2671638,-9.755706,0,0,44.83759,1,1,8008,4004
1993,15510018,0,0.004894859,0.001693076,-0.001729138,-0.2249135,0.2643346,-9.752127,0,0,44.83747,1,1,8008,4004
1996,15512587,0,0.003795834,0.001084784,-0.002497636,-0.2227233,0.2634751,-9.747415999999999,0,0,44.83741,1,1,8008,4004
2027,15514674,0,0.001485245,0.0003025489,-0.002175414,-0.2219292,0.2631443,-9.742988,0,0,44.83725,1,1,8008,4004
2030,15517329,0,0.0008334892,-6.220335e-05,-0.002058159,-0.2204699,0.2627605,-9.74263,0,0,44.83713,1,1,8008,4004
2033,15520125,0,0.001681742,0.0004419548,-0.001345596,-0.2203089,0.2627347,-9.745829000000001,0,0,44.83693,1,1,8008,4004
2037,15522782,0,0.002011621,0.0006825824,-0.0008269459,-0.221652,0.2605215,-9.747090999999999,0,0,44.8368,1,1,8008,4004
2070,15524880,0,0.001614932,-8.199192e-05,-0.0002222136,-0.2231342,0.2556813,-9.747063000000001,0,0,44.83661,1,1,8008,4004
2074,15527368,0,0.001128493,-0.0004959615,5.666839e-05,-0.2258451,0.2528251,-9.749029999999999,0,0,44.83648,1,1,8008,4004
2077,15529632,0,0.0002770373,-0.001274582,-0.0007296587999999999,-0.231747,0.251862,-9.756243,0,0,44.83628,1,1,8008,4004
2080,15536313,0,0.001772693,-0.001918154,-0.001752103,-0.237136,0.2510582,-9.772586,0,0,44.83596,1,1,8008,4004
2083,15537825,0,0.0009987518,-0.001220817,-0.0009991711999999999,-0.2360782,0.2491622,-9.780777,0,0,44.83577,1,1,8008,4004
2117,15540310,0,-3.420727e-05,-0.001221759,-3.70557e-05,-0.2333946,0.2480648,-9.782052999999999,0,0,44.8356,1,1,8008,4004
2120,15543080,0,-0.0003548262,-0.001317094,0.0005367451,-0.2290607,0.249334,-9.780999,0,0,44.83541,1,1,8008,4004
2123,15545098,0,-0.0001554207,-0.001626986,0.0003979656,-0.2280518,0.2510405,-9.779996000000001,0,0,44.83528,1,1,8008,4004
2127,15547925,0,0.0003502476,-0.002082547,6.184699000000001e-05,-0.2274423,0.2510282,-9.775446000000001,0,0,44.83501,1,1,8008,4004
2158,15550619,0,-0.0001610126,-0.001611572,-0.0005668207,-0.2275531,0.2486325,-9.772252999999999,0,0,44.83488,1,1,8008,4004
2161,15552933,0,-0.001511304,-0.00110829,-0.000937069,-0.2274199,0.2457965,-9.771114000000001,0,0,44.83469,1,1,8008,4004
2164,15555582,0,-0.002052271,-0.001157511,-0.001017595,-0.2271568,0.2459506,-9.772964999999999,0,0,44.83453,1,1,8008,4004
2167,15557884,0,-0.0008928525,-0.0009400745,-0.0007787687,-0.2278114,0.2470203,-9.77735,0,0,44.83431,1,1,8008,4004
2199,15560783,0,-0.0002935926,-0.0005664992,-0.0006330416,-0.2287766,0.2474527,-9.78107,0,0,44.83417,1,1,8008,4004
2202,15562683,0,-0.001185278,-0.001161504,-0.0004421774,-0.2307639,0.2495667,-9.785061000000001,0,0,44.83396,1,1,8008,4004
2205,15565225,0,-0.001774157,-0.001851525,-0.0005110414,-0.2329023,0.2521477,-9.787786000000001,0,0,44.8338,1,1,8008,4004
2208,15567818,0,-0.001209515,-0.002115871,-0.0003094736,-0.2372315,0.2557637,-9.788861000000001,0,0,44.83351,1,1,8008,4004
2240,15570906,0,-0.0004417791,-0.001885075,0.0004846451,-0.2399208,0.2564856,-9.788672999999999,0,0,44.83338,1,1,8008,4004
2243,15573096,0,-0.002001999,-0.001352084,0.0001679257,-0.2424687,0.2544216,-9.789099,0,0,44.83308,1,1,8008,4004
2246,15575016,0,-0.003281524,-0.001102107,-0.0006783544,-0.241868,0.2540291,-9.788793,0,0,44.83293,1,1,8008,4004
2249,15577936,0,-0.003166734,-0.001200026,-0.00128008,-0.240234,0.2584903,-9.785971999999999,0,0,44.83262,1,1,8008,4004
2280,15580106,0,-0.00234115,-0.001250695,-0.001129147,-0.2382871,0.2632378,-9.782717,0,0,44.83239,1,1,8008,4004
2283,15583082,0,-0.0003109518,0.0004278321,0.0003613873,-0.2360627,0.2707542,-9.777654,0,0,44.83215,1,1,8008,4004
2287,15585471,0,0.0006026388,0.001405386,0.001710392,-0.2352064,0.2747105,-9.773108000000001,0,0,44.83199,1,1,8008,4004
2293,15587967,0,0.0008625783,0.001414818,0.003599857,-0.2343826,0.2765148,-9.763400000000001,0,0,44.83167,1,1,8008,4004
2325,15590287,0,0.0002470097,0.0005095353,0.003100389,-0.2343166,0.2751061,-9.759022999999999,0,0,44.83139,1,1,8008,4004
2329,15593117,0,-7.776242999999999e-05,-0.0004664404,0.001339035,-0.2372691,0.2713226,-9.760797,0,0,44.83112,1,1,8008,4004
2332,15595624,0,-0.0002237127,-0.0009294478,0.001196019,-0.2385583,0.2684931,-9.762873000000001,0,0,44.83086,1,1,8008,4004
2335,15598166,0,-0.0006126683,-0.002533122,0.001166662,-0.2371488,0.2644253,-9.763247,0,0,44.83049,1,1,8008,4004
2366,15600582,0,-0.0005717677,-0.002462299,0.00103842,-0.2349715,0.261617,-9.758755000000001,0,0,44.8301,1,1,8008,4004
2370,15602933,0,-0.0008120144,-0.0009939437,0.00162931,-0.2333052,0.2598666,-9.753083999999999,0,0,44.82993,1,1,8008,4004
2373,15605336,0,-0.0002300555,0.0007344497,0.002455623,-0.2313035,0.2587507,-9.749199000000001,0,0,44.82966,1,1,8008,4004
2376,15608328,0,0.0009240181,0.001411501,0.002297635,-0.2280784,0.2567999,-9.747223999999999,0,0,44.82938,1,1,8008,4004
2407,15611061,0,0.0005019731,-0.001103588,0.0016539,-0.2305565,0.254535,-9.745286,0,0,44.82904,1,1,8008,4004
2414,15613297,0,-0.0007672306,-0.001965034,0.001242105,-0.2351417,0.2535687,-9.745129,0,0,44.82888,1,1,8008,4004
2417,15615677,0,-0.001057662,-0.001708699,0.0008793938,-0.2409803,0.2541911,-9.743446,0,0,44.82872,1,1,8008,4004
2420,15618338,0,0.0001955175,0.0001513073,0.001652538,-0.2467245,0.256323,-9.741427,0,0,44.82849,1,1,8008,4004
2451,15621169,0,0.001399831,0.001178354,0.002319894,-0.2479462,0.2570665,-9.739466999999999,0,0,44.82824,1,1,8008,4004
2454,15622891,0,0.0028934,0.001277818,0.002404312,-0.2467558,0.25576,-9.73912,0,0,44.82801,1,1,8008,4004
2457,15625853,0,0.00294512,0.0004755407,0.00212696,-0.2442099,0.2547548,-9.741044,0,0,44.82788,1,1,8008,4004
2460,15628020,0,0.001629837,0.0001469117,0.001015127,-0.2393314,0.2539528,-9.744154,0,0,44.82769,1,1,8008,4004
2491,15630615,0,0.001946918,0.0009830253999999999,0.0003731587,-0.2363597,0.253086,-9.745347000000001,0,0,44.8275,1,1,8008,4004
2495,15637169,0,0.002958168,0.001519522,-0.0006591053,-0.2238428,0.2460665,-9.746838,0,0,44.827,1,1,8008,4004
2498,15638774,0,0.003515342,0.002065173,-0.0005937827,-0.223167,0.2457075,-9.746643000000001,0,0,44.8268,1,1,8008,4004
2529,15641301,0,0.00477945,0.002447346,-0.0001846923,-0.223127,0.245254,-9.745994,0,0,44.82659,1,1,8008,4004
2534,15644147,0,0.003586584,0.002041596,-3.414119e-05,-0.2236538,0.2425761,-9.742057000000001,0,0,44.82636,1,1,8008,4004
2537,15646054,0,0.001997418,0.0007623883,0.0001284457,-0.2257679,0.2412175,-9.740023000000001,0,0,44.82615,1,1,8008,4004
2541,15648848,0,0.0007799558,-0.0004922418,0.0006041889,-0.2310837,0.2420053,-9.739658,0,0,44.82584,1,1,8008,4004
2572,15651309,0,0.0008673039,0.000217188,0.0009352607,-0.2354161,0.2431544,-9.742324999999999,0,0,44.8256,1,1,8008,4004
2575,15654221,0,0.002970692,0.001565034,0.0006222369,-0.2398318,0.2447144,-9.749518,0,0,44.82529,1,1,8008,4004
2578,15656614,0,0.003754656,0.002168056,-0.0003335219,-0.2404021,0.2449682,-9.753161,0,0,44.82513,1,1,8008,4004
2581,15658822,0,0.003023199,0.002100124,-0.001902399,-0.2374117,0.2452471,-9.755132,0,0,44.8248,1,1,8008,4004
2612,15661381,0,0.002337519,0.001472893,-0.002827319,-0.2336401,0.247412,-9.756894000000001,0,0,44.82459,1,1,8008,4004
2616,15663658,0,0.001980019,0.001877005,-0.002967291,-0.2285401,0.2524984,-9.758018,0,0,44.82434,1,1,8008,4004
2619,15666641,0,0.002144532,0.00246708,-0.002076618,-0.2248449,0.2531066,-9.75934,0,0,44.82421,1,1,8008,4004
2622,15668831,0,0.002078883,0.001444138,-0.001980375,-0.2188229,0.2514684,-9.757377999999999,0,0,44.82395,1,1,8008,4004
2653,15672019,0,0.002085688,0.001177005,-0.002389749,-0.2156738,0.2502165,-9.754690999999999,0,0,44.82381,1,1,8008,4004
2656,15673569,0,0.00315046,0.0002430068,-0.002609421,-0.2117946,0.2476557,-9.753997,0,0,44.82355,1,1,8008,4004
2659,15676067,0,0.003192198,-2.988581e-05,-0.002072742,-0.2117537,0.2473689,-9.75647,0,0,44.82344,1,1,8008,4004
2662,15678808,0,0.00314617,-0.001552984,7.281538e-05,-0.2143417,0.2480696,-9.756957,0,0,44.8232,1,1,8008,4004
2693,15681824,0,0.003227622,-0.00209292,0.0005742007,-0.2156695,0.2488379,-9.755998999999999,0,0,44.82308,1,1,8008,4004
2697,15684113,0,0.002651541,-0.002678566,0.001264799,-0.2178256,0.2510462,-9.756786999999999,0,0,44.82282,1,1,8008,4004
2700,15686242,0,0.00169476,-0.002082784,0.00121159,-0.2191771,0.2531882,-9.758305,0,0,44.8227,1,1,8008,4004
2707,15688877,0,0.0008862728,-0.0005813478,0.0003168767,-0.22226,0.255458,-9.758088000000001,0,0,44.82249,1,1,8008,4004
2739,15691569,0,0.0009660872,0.0004496723,-0.0008724906,-0.2223172,0.2559039,-9.755388,0,0,44.82236,1,1,8008,4004
2742,15694088,0,0.0008932691,0.001401759,-0.001113427,-0.2200127,0.2535891,-9.747157,0,0,44.82221,1,1,8008,4004
2745,15696558,0,0.0004531964,0.001709166,-0.0001972328,-0.2187588,0.252946,-9.742133000000001,0,0,44.82211,1,1,8008,4004
2748,15698848,0,0.0004997285,0.00119817,0.0006113023,-0.2181814,0.2565393,-9.740327000000001,0,0,44.82191,1,1,8008,4004
2779,15701269,0,0.001952433,9.426062e-05,0.001014884,-0.217296,0.2604497,-9.740456999999999,0,0,44.82176,1,1,8008,4004
2783,15703601,0,0.00360254,-0.001932159,0.0009553248,-0.2149963,0.2633017,-9.739637,0,0,44.82151,1,1,8008,4004
2786,15706720,0,0.003550483,-0.002543666,0.0006285072,-0.215229,0.2636617,-9.737285,0,0,44.82139,1,1,8008,4004
2789,15709226,0,0.001725138,-0.0006479378,0.0001062612,-0.2194537,0.2627627,-9.735426,0,0,44.82117,1,1,8008,4004
2820,15711456,0,0.001637181,-0.0003840454,-0.0001298379,-0.2222608,0.2628547,-9.736281,0,0,44.82106,1,1,8008,4004
2824,15713618,0,0.002569719,4.559873e-05,-0.0003909601,-0.2224405,0.2657844,-9.738142,0,0,44.82085,1,1,8008,4004
2827,15716083,0,0.002830279,0.0001753054,-0.0006918135,-0.2220959,0.2667538,-9.738913,0,0,44.82074,1,1,8008,4004
2830,15718894,0,0.001170789,-0.0002544542,-0.0007525792,-0.2218409,0.264635,-9.741054999999999,0,0,44.82051,1,1,8008,4004
2861,15721919,0,-0.001047741,-0.001118002,-0.0004729839,-0.2226888,0.2628548,-9.742872,0,0,44.82034,1,1,8008,4004
2864,15724014,0,-0.001134812,-0.00041951,-0.001371051,-0.2213854,0.2605313,-9.747144,0,0,44.82013,1,1,8008,4004
2867,15726616,0,-0.0005193073,-0.0003785421,-0.001461977,-0.2194042,0.2586367,-9.749383999999999,0,0,44.82003,1,1,8008,4004
2870,15728920,0,-0.000348428,-0.0005022241,-0.0009377722,-0.2185072,0.2547716,-9.752886,0,0,44.8198,1,1,8008,4004
2901,15731621,0,-0.0009906875,-0.0005441001,-0.0004943211,-0.2178661,0.2524745,-9.756190999999999,0,0,44.81964,1,1,8008,4004
2906,15735046,0,-0.002869995,-0.0005410708,-1.656619e-05,-0.2141522,0.2478625,-9.760583,0,0,44.81942,1,1,8008,4004
2909,15736757,0,-0.003812915,-0.0007646342,0.0003154591,-0.2108811,0.2468623,-9.762145,0,0,44.81929,1,1,8008,4004
2912,15738788,0,-0.003427748,-0.001761068,0.001158811,-0.207158,0.2498487,-9.760505,0,0,44.81911,1,1,8008,4004
2945,15741585,0,-0.002079634,-0.002086005,0.001944363,-0.2028965,0.2528726,-9.759207999999999,0,0,44.81892,1,1,8008,4004
2948,15743783,0,-0.001356994,-0.002527872,0.002490369,-0.1963869,0.2558166,-9.755013,0,0,44.81866,1,1,8008,4004
2951,15746605,0,-0.001994053,-0.002278285,0.002790673,-0.1939765,0.2578115,-9.752592999999999,0,0,44.81854,1,1,8008,4004
2954,15748825,0,-0.002904627,-0.001633143,0.001917967,-0.1950726,0.2636318,-9.74912,0,0,44.81826,1,1,8008,4004
2985,15751609,0,-0.002560395,-0.001484647,-0.0002179097,-0.1974787,0.2679077,-9.748199,0,0,44.81806,1,1,8008,4004
2990,15756787,0,-0.001397606,-0.002039727,-0.001902327,-0.2070609,0.2747431,-9.752793,0,0,44.81772,1,1,8008,4004
2993,15758927,0,-0.001805639,-0.002574009,-0.0009608967,-0.210003,0.2754509,-9.754632000000001,0,0,44.81759,1,1,8008,4004
3024,15761842,0,-0.001752059,-0.002681093,0.001339513,-0.2123051,0.2729963,-9.755933000000001,0,0,44.81749,1,1,8008,4004
3028,15764447,0,-0.001357726,-0.002147501,0.001944027,-0.2141143,0.2686076,-9.757911999999999,0,0,44.81742,1,1,8008,4004
3032,15766457,0,-0.001635051,-0.001817965,0.001296567,-0.2187273,0.2618409,-9.762756,0,0,44.8173,1,1,8008,4004
3035,15769297,0,-0.001865323,-0.001772874,0.0006230556,-0.2224302,0.2570564,-9.769705,0,0,44.81716,1,1,8008,4004
3066,15772097,0,-0.001852576,-0.001595145,-0.000114967,-0.223551,0.2546103,-9.774190000000001,0,0,44.81702,1,1,8008,4004
3069,15774076,0,-0.001621809,-0.001864114,-0.0006608411,-0.2242703,0.2532116,-9.777081000000001,0,0,44.81694,1,1,8008,4004
3072,15776781,0,-0.001471244,-0.001125892,-0.0006576162,-0.228547,0.2536701,-9.782651,0,0,44.81677,1,1,8008,4004
3075,15779240,0,-0.0007160814,-0.0001766343,-0.0002298969,-0.233808,0.2550505,-9.787350999999999,0,0,44.81665,1,1,8008,4004
3106,15782128,0,0.001040727,0.0007377292,-1.086823e-05,-0.2343533,0.2550399,-9.788001,0,0,44.81653,1,1,8008,4004
3110,15783933,0,0.001559906,0.0004398913,0.00050031,-0.2330211,0.255704,-9.789005,0,0,44.81646,1,1,8008,4004
3113,15786476,0,0.001538938,0.0009134572,0.001129729,-0.2287005,0.2554669,-9.794378,0,0,44.8163,1,1,8008,4004
3119,15789552,0,0.001478045,0.0008428163999999999,0.001323436,-0.2240861,0.2528386,-9.800248,0,0,44.81616,1,1,8008,4004
3153,15792115,0,0.001401889,0.001533844,0.001875724,-0.2207761,0.2507858,-9.799925,0,0,44.81606,1,1,8008,4004
3157,15794893,0,0.0006732919,0.001575908,0.00158472,-0.2199074,0.2481744,-9.795601,0,0,44.81602,1,1,8008,4004
3160,15797046,0,6.427725e-05,0.001176228,0.0007638976,-0.2209435,0.2449588,-9.784955999999999,0,0,44.81599,1,1,8008,4004
3163,15799346,0,0.0005531182,0.0010949,0.0009894464999999999,-0.2243924,0.2435029,-9.777734000000001,0,0,44.81598,1,1,8008,4004
3194,15802238,0,0.0008770918,0.0007119658,0.0009970393,-0.2273,0.2415533,-9.775418999999999,0,0,44.81603,1,1,8008,4004
3198,15804242,0,0.0007786812,0.0004291471,0.0003139419,-0.230225,0.2399355,-9.773923999999999,0,0,44.81606,1,1,8008,4004
3201,15807267,0,0.001225279,0.001435469,-0.0006841702,-0.2369413,0.2398966,-9.768195,0,0,44.81613,1,1,8008,4004
3204,15809455,0,0.001169735,0.002125408,-0.0007622064,-0.2415276,0.2397694,-9.764485000000001,0,0,44.81618,1,1,8008,4004
3235,15812027,0,0.0004810602,0.002256027,-0.0007900082,-0.244395,0.2365001,-9.75825,0,0,44.81621,1,1,8008,4004
3239,15814729,0,0.0009233336,0.001699218,-0.0003017641,-0.2424841,0.2352957,-9.753628000000001,0,0,44.8162,1,1,8008,4004
3242,15817013,0,0.001990139,0.0007844308,0.001120591,-0.2397886,0.2358915,-9.747574999999999,0,0,44.81617,1,1,8008,4004
3245,15820056,0,0.002894246,0.0001463371,0.002114981,-0.2375465,0.2370157,-9.744358,0,0,44.81612,1,1,8008,4004
3276,15822554,0,0.001822321,-6.161461e-05,0.003361747,-0.2334535,0.2375226,-9.740684999999999,0,0,44.81609,1,1,8008,4004
3281,15825083,0,0.0002796338,-0.0004659678,0.003155748,-0.2290725,0.2383354,-9.740242,0,0,44.81605,1,1,8008,4004
3284,15827264,0,0.0009031331,-5.283865e-05,0.002451771,-0.2263023,0.2399261,-9.741872000000001,0,0,44.81603,1,1,8008,4004
3287,15832675,0,0.001788951,0.0006283579000000001,-0.000924763,-0.2153039,0.2525081,-9.750204999999999,0,0,44.81598,1,1,8008,4004
3318,15835274,0,0.001736723,0.0002097571,-3.818728e-05,-0.212059,0.2575243,-9.751757,0,0,44.81596,1,1,8008,4004
3321,15841055,0,0.005384768,-0.0003669663,0.001654091,-0.2129183,0.2653249,-9.752910999999999,0,0,44.81592,1,1,8008,4004
3324,15842938,0,0.005429352,-0.0006442077,0.001622539,-0.2191856,0.2635277,-9.753328,0,0,44.81591,1,1,8008,4004
3356,15845233,0,0.004021354,-0.0006603266999999999,0.001410165,-0.2253122,0.2599678,-9.755324,0,0,44.81591,1,1,8008,4004
3359,15847929,0,0.001761879,0.0002763506,0.0008528552,-0.229842,0.2536817,-9.756159999999999,0,0,44.81591,1,1,8008,4004
3362,15850730,0,0.001826348,0.0001077845,0.0002131919,-0.2319415,0.249762,-9.758013999999999,0,0,44.81594,1,1,8008,4004
3366,15853284,0,0.00276467,-0.0003813653,0.0004093449,-0.2353361,0.2414829,-9.763902,0,0,44.81598,1,1,8008,4004
3398,15855280,0,0.001799032,-0.001246436,0.0008638659,-0.2361323,0.2306548,-9.763063000000001,0,0,44.81608,1,1,8008,4004
3401,15857900,0,0.0005377026,-0.002012769,0.001314932,-0.2350247,0.2239376,-9.761853,0,0,44.81612,1,1,8008,4004
3404,15860553,0,-0.0008159967,-0.002194143,0.001896239,-0.2333537,0.219453,-9.764201,0,0,44.81618,1,1,8008,4004
3407,15863448,0,-0.002375398,-0.002030424,0.001712289,-0.2322173,0.2179192,-9.769710999999999,0,0,44.81623,1,1,8008,4004
3438,15865913,0,-0.001646768,-0.002752217,0.0005956047,-0.2309776,0.2211403,-9.771361000000001,0,0,44.81628,1,1,8008,4004
3441,15867866,0,-0.0004577789,-0.003335848,-1.601477e-05,-0.2301374,0.2249909,-9.769164999999999,0,0,44.81628,1,1,8008,4004
3444,15870230,0,0.0002950937,-0.003172263,-0.0006248752,-0.230277,0.2303097,-9.766586999999999,0,0,44.81627,1,1,8008,4004
3447,15872892,0,0.0007822367,-0.003260742,0.001110636,-0.2302161,0.239505,-9.764094999999999,0,0,44.81622,1,1,8008,4004
3478,15875829,0,0.001362729,-0.002629703,0.002127164,-0.2283633,0.2450181,-9.762937000000001,0,0,44.81617,1,1,8008,4004
3482,15878237,0,0.001838027,-0.0008734196,0.00227653,-0.2249706,0.2520229,-9.766356,0,0,44.81606,1,1,8008,4004
3485,15880291,0,0.001783078,-0.0002547715,0.0009688976,-0.2236638,0.2562808,-9.770979000000001,0,0,44.81594,1,1,8008,4004
3488,15883288,0,0.001737735,-0.001012761,-0.0009194462,-0.222029,0.2601517,-9.776837,0,0,44.81585,1,1,8008,4004
3519,15885332,0,0.0006733313,-0.002368176,-0.002338042,-0.2191718,0.2599289,-9.781499999999999,0,0,44.81581,1,1,8008,4004
3522,15888544,0,0.0005242604000000001,-0.001471985,-0.002729351,-0.2175044,0.2590521,-9.784738000000001,0,0,44.8158,1,1,8008,4004
3528,15891017,0,0.0007776807,-0.0002666258,-0.002373303,-0.2172068,0.2578484,-9.787990000000001,0,0,44.81584,1,1,8008,4004
3532,15893091,0,0.0009496471,-0.0002948214,-0.00115111,-0.219493,0.2523264,-9.790832999999999,0,0,44.81594,1,1,8008,4004
3563,15895147,0,-0.0001507917,-0.000326157,-0.0009909063000000001,-0.2239912,0.2467706,-9.790711,0,0,44.81604,1,1,8008,4004
3567,15897880,0,-0.00245837,-0.0006649357,-0.001101187,-0.2317809,0.2442386,-9.78994,0,0,44.81618,1,1,8008,4004
3570,15900845,0,-0.003073307,-0.0002449726,-0.0008602528,-0.2339943,0.2469218,-9.788188999999999,0,0,44.81635,1,1,8008,4004
3573,15903274,0,-0.00189455,-0.000403601,-0.001275337,-0.2357291,0.2518249,-9.784799,0,0,44.81647,1,1,8008,4004
3604,15905538,0,-0.0007731494,-0.000588291,-0.001392692,-0.2368337,0.2546349,-9.784834999999999,0,0,44.81659,1,1,8008,4004
3608,15908037,0,-1.897339e-05,0.0004218656,-0.001179799,-0.2400818,0.2587575,-9.78697,0,0,44.81667,1,1,8008,4004
3612,15910603,0,-0.0002844564,0.001052701,-0.001382382,-0.240976,0.26151,-9.787288,0,0,44.81678,1,1,8008,4004
3615,15913166,0,-0.001050531,0.002574704,-0.002380233,-0.2389003,0.2652006,-9.784713,0,0,44.8169,1,1,8008,4004
3646,15915840,0,-0.0013873,0.003005215,-0.003078729,-0.2376809,0.2672755,-9.782923,0,0,44.81698,1,1,8008,4004
3649,15917978,0,-0.0002913967,0.002744525,-0.002574899,-0.2358259,0.2693285,-9.779933,0,0,44.81712,1,1,8008,4004
3652,15920601,0,-2.262158e-05,0.002166836,-0.001744021,-0.2332613,0.2686144,-9.777048000000001,0,0,44.81723,1,1,8008,4004
3657,15923221,0,-0.00140982,0.0001650462,-0.0006581729,-0.2289279,0.2662597,-9.773325,0,0,44.81729,1,1,8008,4004
3688,15925860,0,-0.002028986,-0.0006469885,-0.000548537,-0.2276656,0.265269,-9.771734,0,0,44.8173,1,1,8008,4004
3692,15930670,0,-0.002430084,0.0007433066,-0.0028887,-0.2309893,0.2615153,-9.755089999999999,0,0,44.81723,1,1,8008,4004
3695,15933229,0,-0.002864433,0.001057274,-0.00331879,-0.2319852,0.2621373,-9.747507000000001,0,0,44.81719,1,1,8008,4004
3726,15938283,0,-0.001588637,0.0007584972,-0.003152335,-0.2332766,0.2696324,-9.733857,0,0,44.81705,1,1,8008,4004
3729,15941014,0,-0.001298083,0.0006003816,-0.00257778,-0.2310744,0.2744175,-9.735283000000001,0,0,44.81698,1,1,8008,4004
3732,15944089,0,-0.001222519,0.0008707265,-0.001409079,-0.2275864,0.2766153,-9.737866,0,0,44.81697,1,1,8008,4004
3763,15946016,0,-6.742468e-05,-5.754254e-05,0.0002406634,-0.2194896,0.2795259,-9.74067,0,0,44.81698,1,1,8008,4004
3766,15949135,0,0.001409836,-0.0006474428,7.117842e-05,-0.2126489,0.2808005,-9.743593000000001,0,0,44.81706,1,1,8008,4004
3770,15951654,0,0.001823117,-1.083937e-05,-0.0002416937,-0.2106629,0.2813897,-9.743904000000001,0,0,44.81711,1,1,8008,4004
3774,15954019,0,0.00144468,0.001165919,-0.0009521855,-0.2096039,0.2801357,-9.738927,0,0,44.8172,1,1,8008,4004
3805,15956620,0,0.001324365,0.001155917,-0.0009798947000000001,-0.2097517,0.2763125,-9.736515000000001,0,0,44.81726,1,1,8008,4004
3808,15958882,0,0.001648483,0.0001778289,-0.0009717956,-0.2119913,0.2706013,-9.733967,0,0,44.81742,1,1,8008,4004
3812,15961297,0,0.001146894,-0.0002776818,-0.0009286134,-0.2138333,0.2682664,-9.732961,0,0,44.8175,1,1,8008,4004
3815,15963917,0,0.000211621,-0.0006436820999999999,-0.0002609408,-0.2163829,0.2634657,-9.731322,0,0,44.81762,1,1,8008,4004
3846,15966595,0,0.0009384958,-0.0001683714,6.855010999999999e-05,-0.2179654,0.2601794,-9.730186,0,0,44.81771,1,1,8008,4004
3849,15968900,0,0.002851924,0.0001963829,-0.0001689417,-0.2216152,0.256414,-9.729789,0,0,44.81788,1,1,8008,4004
3852,15971752,0,0.003112416,-0.0005074231,-0.0005088459,-0.2240971,0.2533671,-9.730765,0,0,44.81796,1,1,8008,4004
3855,15974109,0,0.003595683,-0.001959082,-0.0009994188,-0.2258684,0.2490676,-9.733812,0,0,44.81806,1,1,8008,4004
3886,15976634,0,0.00356462,-0.002871132,-0.0001870023,-0.2237631,0.2475447,-9.737031999999999,0,0,44.81819,1,1,8008,4004
3889,15979141,0,0.002697899,-0.003809845,0.002244743,-0.2179517,0.2473409,-9.743922,0,0,44.81841,1,1,8008,4004
3893,15981641,0,0.001850768,-0.003248017,0.003303713,-0.2156357,0.247301,-9.750795,0,0,44.81853,1,1,8008,4004
3896,15983700,0,0.00176806,-0.001529873,0.002860903,-0.2147419,0.249614,-9.763851000000001,0,0,44.81868,1,1,8008,4004
3927,15986610,0,0.003020485,-0.0004812206,0.001534833,-0.2134885,0.2532904,-9.770028999999999,0,0,44.81883,1,1,8008,4004
3930,15989034,0,0.003538589,-0.0002702116,-5.170782e-06,-0.2130355,0.2584572,-9.775073000000001,0,0,44.81902,1,1,8008,4004
3936,15992089,0,0.003199781,-0.00119162,-0.0009886748,-0.2152882,0.2606809,-9.776731,0,0,44.8191,1,1,8008,4004
3940,15994117,0,0.003041844,-0.001001377,-0.001493327,-0.2183217,0.2643773,-9.776291000000001,0,0,44.8192,1,1,8008,4004
3971,15996156,0,0.003763256,-0.001222465,-0.0005936997,-0.2183115,0.2665271,-9.77487,0,0,44.81926,1,1,8008,4004
3974,15998916,0,0.005338048,-0.00182987,0.001805117,-0.2197271,0.2676941,-9.770674,0,0,44.81941,1,1,8008,4004
3978,16001300,0,0.006262028,-0.001399967,0.002943381,-0.2226642,0.2662369,-9.767637000000001,0,0,44.81948,1,1,8008,4004
3981,16004133,0,0.006551354,-0.0004111859,0.00283416,-0.2267343,0.2608361,-9.763455,0,0,44.81955,1,1,8008,4004
4012,16006777,0,0.005358248,-0.0001016977,0.001730783,-0.2280854,0.255976,-9.761120999999999,0,0,44.81959,1,1,8008,4004
4015,16008857,0,0.00359395,-4.972898e-05,0.0004201674,-0.2284662,0.2473898,-9.758146999999999,0,0,44.81964,1,1,8008,4004
4018,16011316,0,0.002870447,-0.0009411376,9.803396e-05,-0.2282447,0.2417749,-9.759121,0,0,44.81964,1,1,8008,4004
4022,16013834,0,0.001855381,-0.0009122333,0.0002856393,-0.2260604,0.2370189,-9.763192,0,0,44.81964,1,1,8008,4004
4055,16016849,0,0.00195973,-0.0002479061,0.0008233814,-0.2237887,0.2345638,-9.765931999999999,0,0,44.81962,1,1,8008,4004
4058,16019047,0,0.00294437,0.0005018543,0.001098043,-0.2192074,0.2304693,-9.768254000000001,0,0,44.81951,1,1,8008,4004
4062,16021686,0,0.003560475,0.0007092488000000001,0.001241448,-0.2172621,0.2290692,-9.768094,0,0,44.81942,1,1,8008,4004
4065,16023718,0,0.003860005,0.000561438,0.001217,-0.2201392,0.2315581,-9.769684,0,0,44.81931,1,1,8008,4004
4096,16026093,0,0.003479352,0.001228661,0.0009503939,-0.2241087,0.2336393,-9.772242,0,0,44.81922,1,1,8008,4004
4099,16029460,0,0.002297306,0.003008603,0.0001890269,-0.2288099,0.2360762,-9.771485999999999,0,0,44.81914,1,1,8008,4004
4103,16031333,0,0.001728539,0.00318389,4.936217e-05,-0.2310323,0.2370885,-9.766446,0,0,44.81908,1,1,8008,4004
4106,16034011,0,0.002402338,0.001387587,0.0006822404,-0.2316977,0.2370333,-9.75849,0,0,44.819,1,1,8008,4004
4137,16036659,0,0.003670226,0.000941618,0.001784339,-0.2317774,0.2354264,-9.755250999999999,0,0,44.81893,1,1,8008,4004
4140,16039089,0,0.005289214,0.0009288153,0.003458679,-0.2295615,0.2317955,-9.750809,0,0,44.81883,1,1,8008,4004
4143,16044079,0,0.003980794,-0.0005955372,0.001811467,-0.2192874,0.2219306,-9.740154,0,0,44.81866,1,1,8008,4004
4174,16046894,0,0.002925196,-0.001093055,0.0005904749,-0.217062,0.220189,-9.739193,0,0,44.81856,1,1,8008,4004
4177,16048843,0,0.002313406,0.000137137,-0.0002196751,-0.2147554,0.2184769,-9.741467,0,0,44.81842,1,1,8008,4004
4182,16051129,0,0.001996296,0.001587906,-0.0003083155,-0.2130453,0.2163801,-9.742262999999999,0,0,44.81834,1,1,8008,4004
4185,16054074,0,0.000660121,0.002028711,8.980393e-05,-0.2107792,0.2142382,-9.738416000000001,0,0,44.81822,1,1,8008,4004
4216,16056076,0,-0.0003009707,0.001654257,5.391334e-05,-0.2105459,0.2141775,-9.734157,0,0,44.81815,1,1,8008,4004
4219,16058928,0,-0.0008710988,0.001732172,7.461609e-05,-0.2139651,0.2146579,-9.728700999999999,0,0,44.81808,1,1,8008,4004
4223,16061880,0,-0.0003564992,0.002299811,-0.0002788312,-0.2183999,0.2155402,-9.729372,0,0,44.81806,1,1,8008,4004
4226,16065052,0,-0.000470474,0.00222099,-0.0005670836,-0.2235592,0.2186837,-9.735578,0,0,44.81804,1,1,8008,4004
4229,16066742,0,-0.00145434,0.00109801,-0.0008734262999999999,-0.2252862,0.2202341,-9.737773000000001,0,0,44.81807,1,1,8008,4004
4260,16068897,0,-0.00368209,0.0002586744,-0.000953187,-0.2287429,0.2233201,-9.739167999999999,0,0,44.81816,1,1,8008,4004
4264,16071919,0,-0.003326135,0.001397349,-0.001235782,-0.2308211,0.2281642,-9.739578,0,0,44.81826,1,1,8008,4004
4268,16074088,0,-0.002161644,0.002161447,-0.001653579,-0.2296264,0.2313677,-9.737121999999999,0,0,44.81835,1,1,8008,4004
4271,16077059,0,-0.0009729415,0.002322983,-0.001929864,-0.2264746,0.2351711,-9.730420000000001,0,0,44.81847,1,1,8008,4004
4302,16080103,0,-0.0008837707,0.0006484065,-0.001193102,-0.223887,0.2368658,-9.728567999999999,0,0,44.81854,1,1,8008,4004
4305,16081322,0,-0.001587584,-0.001185281,-0.001292827,-0.2203284,0.239174,-9.732208,0,0,44.81855,1,1,8008,4004
4308,16084297,0,-0.001622116,-0.002251251,-0.0009356595,-0.21896,0.2400861,-9.736326999999999,0,0,44.81853,1,1,8008,4004
4311,16086912,0,-0.001726149,-0.002003713,-0.001569034,-0.2166048,0.2402646,-9.744215000000001,0,0,44.81844,1,1,8008,4004
4342,16089603,0,-0.002676793,-0.001163797,-0.001878378,-0.2166976,0.2404755,-9.749212,0,0,44.81833,1,1,8008,4004
4349,16092574,0,-0.002555765,0.0001022142,-0.002490331,-0.2187849,0.2411122,-9.755267,0,0,44.8182,1,1,8008,4004
4353,16094638,0,-0.002644427,5.716742e-06,-0.002780074,-0.2201558,0.2421799,-9.759169,0,0,44.81811,1,1,8008,4004
4356,16096667,0,-0.002217863,-0.000967738,-0.003059603,-0.2221097,0.2458921,-9.763704000000001,0,0,44.81796,1,1,8008,4004
4387,16099014,0,-0.002123609,-0.00139988,-0.002026011,-0.224598,0.2486547,-9.767855000000001,0,0,44.81783,1,1,8008,4004
4391,16102256,0,-0.003365037,-0.001360486,-0.0002663075,-0.2293672,0.2512684,-9.774960999999999,0,0,44.81769,1,1,8008,4004
4394,16104575,0,-0.003566392,-0.001091564,-4.980422e-05,-0.2327078,0.2526529,-9.777934999999999,0,0,44.81759,1,1,8008,4004
4397,16106850,0,-0.003098384,-0.0005680622,-0.001567711,-0.2356627,0.2545879,-9.780633999999999,0,0,44.81739,1,1,8008,4004
4428,16108963,0,-0.001756929,-0.0004953479,-0.001877401,-0.2360489,0.2552021,-9.779472,0,0,44.81721,1,1,8008,4004
4431,16112123,0,0.0001449368,-0.001431059,-0.002550664,-0.2350503,0.2525191,-9.775299,0,0,44.81701,1,1,8008,4004
4434,16114597,0,-0.0002633512,-0.002465759,-0.002910303,-0.2331691,0.25103,-9.774345,0,0,44.81688,1,1,8008,4004
4437,16117216,0,-0.001194877,-0.002775492,-0.003454296,-0.2303032,0.2526698,-9.772804000000001,0,0,44.81667,1,1,8008,4004
4468,16119307,0,0.0001557297,-0.001901795,-0.003153089,-0.2301415,0.2570527,-9.769473,0,0,44.81647,1,1,8008,4004
4472,16121936,0,0.001537141,-0.001272753,-0.002029899,-0.2310178,0.2597822,-9.765065,0,0,44.81638,1,1,8008,4004
4475,16124697,0,0.001430295,-0.001159525,-0.001058714,-0.2315793,0.260691,-9.760771,0,0,44.81629,1,1,8008,4004
4480,16130274,0,-0.0003814796,-0.000346745,0.0008705509,-0.2328123,0.2710772,-9.751951999999999,0,0,44.81607,1,1,8008,4004
4483,16132450,0,-9.249719000000001e-05,-0.0007258874,0.0004388012,-0.2339054,0.274857,-9.75196,0,0,44.81604,1,1,8008,4004
4514,16134292,0,-2.164001e-05,-3.387431e-05,-0.0002823984,-0.2359696,0.2757321,-9.749081,0,0,44.81599,1,1,8008,4004
4517,16136853,0,-0.0001680915,0.0006900328,-0.001211928,-0.2368649,0.2746523,-9.746861000000001,0,0,44.81595,1,1,8008,4004
4520,16140567,0,-0.0007496164,0.0002530534,-0.001456515,-0.2376223,0.2733442,-9.746816000000001,0,0,44.81591,1,1,8008,4004
4523,16143164,0,-0.001277532,0.000186639,-0.0005421342,-0.2391286,0.2723347,-9.750648,0,0,44.81591,1,1,8008,4004
4526,16144575,0,-0.000243785,0.0002645188,0.0008381194,-0.2414757,0.2716651,-9.756959,0,0,44.81597,1,1,8008,4004
4557,16147092,0,0.0004263482,0.0002565117,0.0009997666,-0.2414076,0.2714517,-9.758063999999999,0,0,44.81601,1,1,8008,4004
4560,16149775,0,-4.677276e-05,-0.0001453541,0.0006130622,-0.2405388,0.2714551,-9.753911,0,0,44.81606,1,1,8008,4004
4563,16152726,0,-0.001155813,-5.162591e-05,0.0007835023,-0.2405943,0.2717011,-9.750361,0,0,44.81607,1,1,8008,4004
4566,16155118,0,-0.001380995,0.001588904,0.002089296,-0.2412385,0.2742297,-9.748438,0,0,44.81615,1,1,8008,4004
4597,16157201,0,-0.0006088562,0.002023901,0.002593476,-0.2424543,0.2756996,-9.750983,0,0,44.8162,1,1,8008,4004
4600,16159984,0,0.001170822,0.0009873924000000001,0.002919134,-0.2426132,0.2758299,-9.760621,0,0,44.81627,1,1,8008,4004
4604,16162332,0,0.00269663,0.0007702762,0.002828432,-0.2437703,0.2755733,-9.766418,0,0,44.81627,1,1,8008,4004
4607,16165240,0,0.002677564,0.001287305,0.002383073,-0.2444269,0.2730371,-9.767842,0,0,44.81624,1,1,8008,4004
4638,16167881,0,0.001660725,0.001838929,0.00161684,-0.2431723,0.2697899,-9.765523,0,0,44.81621,1,1,8008,4004
4641,16169820,0,0.00234498,0.00227576,0.000389156,-0.2423508,0.2638074,-9.761564,0,0,44.81613,1,1,8008,4004
4646,16172600,0,0.003257347,0.001837437,0.0004545468,-0.2420069,0.2599472,-9.758768999999999,0,0,44.81611,1,1,8008,4004
4649,16175027,0,0.003129473,-0.0001177102,0.001327212,-0.2427781,0.2522074,-9.755929,0,0,44.81608,1,1,8008,4004
4680,16177935,0,0.002685079,-0.0005406563,0.001893192,-0.243678,0.2468909,-9.756444,0,0,44.81604,1,1,8008,4004
4683,16180140,0,0.002335388,-0.0001657972,0.002700432,-0.2417474,0.2423991,-9.759471,0,0,44.81591,1,1,8008,4004
4686,16182709,0,0.00258193,-0.0006033381,0.002683901,-0.2379871,0.2407569,-9.759005999999999,0,0,44.81585,1,1,8008,4004
4689,16184716,0,0.002236985,-0.0008754776,0.001778365,-0.2326284,0.240666,-9.756451999999999,0,0,44.81575,1,1,8008,4004
4720,16187360,0,0.001228604,-4.271203e-05,0.001287062,-0.2303599,0.2433028,-9.754747,0,0,44.8157,1,1,8008,4004
4723,16190149,0,0.0006639054,0.001754685,0.0005875294,-0.2259606,0.249058,-9.750629999999999,0,0,44.81562,1,1,8008,4004
4730,16192866,0,0.0008523624,0.001830572,0.0008141145,-0.2242118,0.2545245,-9.749371,0,0,44.81557,1,1,8008,4004
4734,16195247,0,0.001990147,0.001671494,0.0009087334,-0.2247838,0.2613771,-9.7524,0,0,44.8155,1,1,8008,4004
4765,16197457,0,0.002813421,0.001386694,0.0005963644,-0.2267716,0.2633201,-9.756406,0,0,44.81545,1,1,8008,4004
4768,16200101,0,0.003833255,-5.716246e-05,0.0002961884,-0.2301656,0.2626387,-9.760368,0,0,44.81535,1,1,8008,4004
4771,16202837,0,0.004700897,-0.0005428295000000001,0.0002197537,-0.2332749,0.2599761,-9.760384999999999,0,0,44.8153,1,1,8008,4004
4774,16204850,0,0.005800331,-0.000964119,0.0006641339,-0.2356791,0.2531215,-9.762587,0,0,44.81524,1,1,8008,4004
4805,16207880,0,0.005529112,-0.001373828,0.0005263889,-0.2342895,0.2485197,-9.766112,0,0,44.8152,1,1,8008,4004
4808,16209733,0,0.004279608,-0.0009739742,-0.0004875018,-0.2314603,0.239382,-9.773334999999999,0,0,44.81507,1,1,8008,4004
4812,16212313,0,0.003104339,-0.0001893869,-0.0009729245,-0.2299066,0.2346492,-9.776732000000001,0,0,44.815,1,1,8008,4004
4816,16215179,0,0.001408597,0.0007572665,-0.001272433,-0.2261134,0.230948,-9.780149,0,0,44.8149,1,1,8008,4004
4847,16217219,0,0.0004861871,0.001455249,-0.0007711803,-0.2242116,0.2284939,-9.782685000000001,0,0,44.81484,1,1,8008,4004
4850,16219901,0,-0.0002300871,0.002296973,-0.001037034,-0.2234507,0.2264311,-9.783865,0,0,44.81477,1,1,8008,4004
4853,16222663,0,-7.896316999999999e-05,0.002315125,-0.002089742,-0.22211,0.2276949,-9.783339,0,0,44.81475,1,1,8008,4004
4856,16225254,0,0.001223663,0.001135496,-0.002785548,-0.2220605,0.2304328,-9.781603,0,0,44.81477,1,1,8008,4004
4887,16228018,0,0.001834858,0.0006583632,-0.002190733,-0.2279491,0.2346018,-9.77624,0,0,44.8148,1,1,8008,4004
4890,16229776,0,0.002383387,0.0007962731,-0.00250677,-0.2312091,0.2384771,-9.772036999999999,0,0,44.81488,1,1,8008,4004
4894,16232306,0,0.002674826,0.0008340552,-0.003631598,-0.233865,0.2414214,-9.766984000000001,0,0,44.81493,1,1,8008,4004
4897,16235553,0,0.002203958,0.0002385867,-0.003840374,-0.2362951,0.2417255,-9.762090000000001,0,0,44.81505,1,1,8008,4004
4928,16237672,0,0.002163349,0.0001544672,-0.003251691,-0.2373469,0.2398709,-9.767402000000001,0,0,44.81516,1,1,8008,4004
4931,16242724,0,0.0002010698,0.001505067,-0.002558496,-0.2337853,0.2367215,-9.777773,0,0,44.81528,1,1,8008,4004
4935,16245069,0,-0.001234949,0.001035633,-0.001897263,-0.2302521,0.2352375,-9.777561,0,0,44.81537,1,1,8008,4004
4966,16249784,0,-0.002966294,0.001233463,-0.002805519,-0.2231498,0.2347711,-9.771881,0,0,44.81555,1,1,8008,4004
4969,16252731,0,-0.00269784,0.0007209615,-0.003682556,-0.221148,0.2376296,-9.768288999999999,0,0,44.81561,1,1,8008,4004
4972,16255103,0,-0.002311441,0.0009969446,-0.00438855,-0.2197478,0.2419754,-9.759627999999999,0,0,44.81572,1,1,8008,4004
5003,16257158,0,-0.001987546,0.001751611,-0.00418929,-0.2202644,0.2445754,-9.750862,0,0,44.81578,1,1,8008,4004
5006,16260453,0,-0.002104831,0.002330181,-0.002502206,-0.2229895,0.2507071,-9.738028999999999,0,0,44.81591,1,1,8008,4004
5009,16262289,0,-0.00186961,0.002067951,-0.001184611,-0.2258168,0.2547297,-9.733007000000001,0,0,44.81606,1,1,8008,4004
5014,16264866,0,-0.0006991434,0.000979136,0.0002933615,-0.2313442,0.2580338,-9.730357,0,0,44.81622,1,1,8008,4004
5045,16268054,0,0.0002827905,-0.0002324046,0.000571663,-0.2349618,0.2582026,-9.730869999999999,0,0,44.81632,1,1,8008,4004
5048,16269896,0,0.001213917,-0.0004698324,0.001199807,-0.2400624,0.2568196,-9.733948,0,0,44.81649,1,1,8008,4004
5052,16272576,0,0.001152104,0.000546032,0.001567918,-0.240367,0.2548092,-9.736567000000001,0,0,44.81659,1,1,8008,4004
5056,16275239,0,-0.0006203862,0.001070064,0.001507676,-0.2348966,0.2512908,-9.740995,0,0,44.81673,1,1,8008,4004
5087,16277857,0,-0.001854824,-0.0002072786,0.001805455,-0.2287148,0.2486277,-9.744959,0,0,44.81693,1,1,8008,4004
5090,16279747,0,-0.002183974,-0.0004220066,0.002397013,-0.2207085,0.2459678,-9.749124999999999,0,0,44.81709,1,1,8008,4004
5093,16282270,0,-0.002229381,-0.0001706318,0.002549972,-0.2155359,0.2468062,-9.747926,0,0,44.81721,1,1,8008,4004
5096,16284787,0,-0.003035347,0.0008419587,0.002442849,-0.2070823,0.2483927,-9.746555000000001,0,0,44.81736,1,1,8008,4004
5127,16288033,0,-0.004079107,0.001655352,0.002530351,-0.203189,0.2494769,-9.747807999999999,0,0,44.81748,1,1,8008,4004
5130,16290175,0,-0.003162652,0.001717871,0.002474586,-0.2024941,0.2540697,-9.754972,0,0,44.81765,1,1,8008,4004
5136,16292808,0,-0.001925694,0.001473202,0.002177758,-0.2030584,0.2593937,-9.761093000000001,0,0,44.81774,1,1,8008,4004
5141,16294869,0,-0.001307512,0.0001708229,0.002114432,-0.204643,0.2654319,-9.762508,0,0,44.81792,1,1,8008,4004
5172,16298028,0,-0.001702532,-0.0007207779,0.001564067,-0.2062018,0.2688147,-9.758412999999999,0,0,44.818,1,1,8008,4004
5175,16299672,0,-0.003025624,-0.001465356,0.0002049162,-0.2074154,0.2736054,-9.750745999999999,0,0,44.81815,1,1,8008,4004
5178,16302710,0,-0.002398435,-0.001116222,-0.0003593716,-0.2079801,0.2755828,-9.748676,0,0,44.81825,1,1,8008,4004
5182,16304940,0,-0.0003438423,-0.0008511798,0.0005763415,-0.2111584,0.2750202,-9.748246,0,0,44.81839,1,1,8008,4004
5213,16307257,0,0.0004874367,-0.001181877,0.00186946,-0.2128487,0.2732863,-9.751286,0,0,44.81849,1,1,8008,4004
5216,16310165,0,0.0005959814,-0.002219899,0.003192641,-0.213583,0.2709398,-9.757287,0,0,44.81865,1,1,8008,4004
5219,16312682,0,-0.0001241169,-0.002523671,0.004090827,-0.214138,0.2693799,-9.760554000000001,0,0,44.81874,1,1,8008,4004
5223,16315228,0,-0.0006764102,-0.002080813,0.004290747,-0.216095,0.2691618,-9.767232,0,0,44.81887,1,1,8008,4004
5254,16317275,0,-0.0004461219,-0.001782813,0.003832692,-0.2167283,0.2698652,-9.770927,0,0,44.819,1,1,8008,4004
5257,16319794,0,0.0006092039,-0.001685517,0.003546584,-0.2148285,0.2715616,-9.772779,0,0,44.81918,1,1,8008,4004
5260,16322821,0,0.001018818,-0.002125175,0.003707863,-0.2141607,0.271376,-9.772511,0,0,44.81929,1,1,8008,4004
5263,16324906,0,0.0008953636,-0.001870092,0.003417475,-0.2143632,0.2695236,-9.774818,0,0,44.81948,1,1,8008,4004
5294,16327860,0,0.001387359,-0.001863952,0.003072022,-0.2158781,0.2671331,-9.779004,0,0,44.81963,1,1,8008,4004
5299,16330026,0,0.002191497,-0.002012667,0.002050112,-0.2199216,0.2628272,-9.783868999999999,0,0,44.81991,1,1,8008,4004
5302,16332752,0,0.002218676,-0.00181455,0.001270026,-0.2231877,0.2606737,-9.786225999999999,0,0,44.82005,1,1,8008,4004
5306,16337245,0,0.002821588,-0.001974039,0.0007560429,-0.2284845,0.2586935,-9.781276999999999,0,0,44.82039,1,1,8008,4004
5337,16342279,0,0.0001015193,-0.0008485533,0.0006541412,-0.2258047,0.2601892,-9.772646999999999,0,0,44.82077,1,1,8008,4004
5340,16345301,0,0.001346338,0.0003707634,0.00167446,-0.2284691,0.2630241,-9.770320999999999,0,0,44.82091,1,1,8008,4004
5343,16347366,0,0.003840018,0.001398625,0.001557965,-0.2277875,0.2623917,-9.766821999999999,0,0,44.821,1,1,8008,4004
5374,16349809,0,0.005183504,0.0007190313,0.001246726,-0.2249232,0.258026,-9.762162999999999,0,0,44.82113,1,1,8008,4004
5377,16352319,0,0.004179536,-3.161915e-05,0.000801693,-0.2254083,0.2557868,-9.761944,0,0,44.82122,1,1,8008,4004
5382,16355241,0,0.001952601,-0.0001623238,0.00118119,-0.2274481,0.2555322,-9.762879999999999,0,0,44.82133,1,1,8008,4004
5385,16358294,0,0.001083766,0.0003917463,0.001208611,-0.2269257,0.2550456,-9.762095,0,0,44.8214,1,1,8008,4004
5388,16359645,0,0.0009171473,0.0009049373,0.0002254212,-0.2264825,0.253437,-9.761236,0,0,44.82158,1,1,8008,4004
5419,16362276,0,0.000560594,0.001096412,-0.0001206028,-0.2274566,0.2515838,-9.760939,0,0,44.82167,1,1,8008,4004
5423,16364700,0,0.0005194392,0.001131997,-0.001594931,-0.2306654,0.2500994,-9.758969,0,0,44.8218,1,1,8008,4004
5426,16367818,0,0.001421079,0.00126712,-0.002256529,-0.2334963,0.2499169,-9.756667999999999,0,0,44.8219,1,1,8008,4004
5429,16370260,0,0.002848675,0.0003578276,-0.002234413,-0.2366213,0.251873,-9.752851,0,0,44.82202,1,1,8008,4004
5460,16372585,0,0.003788003,-0.0004277319,-0.002388917,-0.2386,0.2541097,-9.750393000000001,0,0,44.82218,1,1,8008,4004
5463,16374884,0,0.004500038,-0.0003166094,-0.002614894,-0.2407905,0.2545458,-9.747857,0,0,44.82226,1,1,8008,4004
5466,16377474,0,0.004694849,0.0002281903,-0.002714866,-0.2436568,0.2538266,-9.74854,0,0,44.82239,1,1,8008,4004
5469,16380269,0,0.004391424,0.001559203,-0.003175397,-0.2435465,0.2511679,-9.753296000000001,0,0,44.82256,1,1,8008,4004
5500,16382906,0,0.003979995,0.002693037,-0.00397898,-0.2410519,0.2445125,-9.756595000000001,0,0,44.82272,1,1,8008,4004
5504,16384771,0,0.003607376,0.002724335,-0.004289217,-0.2391417,0.2401853,-9.756885,0,0,44.82282,1,1,8008,4004
5508,16387304,0,0.002940197,0.002428191,-0.00393677,-0.2353112,0.2371518,-9.756612000000001,0,0,44.82293,1,1,8008,4004
5511,16389672,0,0.001490273,0.0009764124,-0.003094267,-0.2268601,0.2334286,-9.758355999999999,0,0,44.82307,1,1,8008,4004
5545,16393009,0,0.000783835,-0.0003165533,-0.002238757,-0.2231158,0.2317212,-9.758682,0,0,44.82314,1,1,8008,4004
5549,16395247,0,0.0005790672,-0.0002294406,-0.001447327,-0.2211089,0.2323559,-9.754367999999999,0,0,44.82325,1,1,8008,4004
5552,16397346,0,0.0006228269,-0.0003343163,-0.002007238,-0.2204648,0.2347639,-9.752193999999999,0,0,44.82333,1,1,8008,4004
5555,16399814,0,0.0005700552,-0.0006217929,-0.003069421,-0.2218484,0.2411805,-9.755452,0,0,44.82349,1,1,8008,4004
5586,16403119,0,0.001727243,0.0003207212,-0.002415723,-0.2249414,0.2458271,-9.760365999999999,0,0,44.8236,1,1,8008,4004
5590,16404895,0,0.002734549,0.000606394,-0.002200254,-0.2290933,0.2514873,-9.764227999999999,0,0,44.82371,1,1,8008,4004
5594,16407846,0,0.003517545,0.0001795192,-0.001422734,-0.2296176,0.2524632,-9.761339,0,0,44.82383,1,1,8008,4004
5597,16409924,0,0.003295166,0.0002403314,-2.661446e-05,-0.230192,0.2503263,-9.756754000000001,0,0,44.82403,1,1,8008,4004
5628,16412309,0,0.002110758,0.001051044,4.097741e-05,-0.2312286,0.2475871,-9.757925999999999,0,0,44.82412,1,1,8008,4004
5632,16415081,0,0.0007260561999999999,0.002077706,-0.0008403489,-0.2313958,0.2398447,-9.761639000000001,0,0,44.82424,1,1,8008,4004
5635,16417401,0,0.0002627475,0.00106489,-0.002445867,-0.2308468,0.2334219,-9.762558,0,0,44.82432,1,1,8008,4004
5638,16420019,0,-0.0006479437999999999,-0.001142892,-0.003733915,-0.2300687,0.2266471,-9.761673999999999,0,0,44.82448,1,1,8008,4004
5669,16422634,0,-0.00129463,-0.002007206,-0.003683038,-0.2291136,0.2238359,-9.759714000000001,0,0,44.82456,1,1,8008,4004
5672,16425040,0,-0.00109756,-0.0009908314000000001,-0.003404525,-0.225073,0.2212225,-9.756197999999999,0,0,44.82467,1,1,8008,4004
5675,16427895,0,-0.0004983124999999999,-0.0005597091,-0.002688594,-0.2227009,0.2220167,-9.751836000000001,0,0,44.82479,1,1,8008,4004
5678,16429695,0,0.0004779163,-0.000176642,-0.001366039,-0.2195416,0.2268374,-9.745074000000001,0,0,44.82497,1,1,8008,4004
5709,16432330,0,0.0001041367,-0.0004800068,-0.001045239,-0.219865,0.2305234,-9.743541,0,0,44.82509,1,1,8008,4004
5713,16440065,0,-0.0007347006,-0.001486793,-0.001454886,-0.2250023,0.2435076,-9.751023999999999,0,0,44.82563,1,1,8008,4004
5744,16442768,0,-0.0003517987,-0.001478707,-0.001075504,-0.2265822,0.2452043,-9.754967000000001,0,0,44.82582,1,1,8008,4004
5747,16445222,0,-0.0002644603,-0.00133104,0.0003661079,-0.2261442,0.2465676,-9.755661999999999,0,0,44.82594,1,1,8008,4004
5750,16448102,0,-0.0001527088,-0.00150297,0.00151672,-0.227234,0.2451267,-9.758794,0,0,44.82614,1,1,8008,4004
5754,16450883,0,-0.0006486677,-0.0014961,0.00155922,-0.2288493,0.242817,-9.761687,0,0,44.82633,1,1,8008,4004
5785,16453016,0,-0.0009619004,-0.0009637118,0.001106333,-0.231214,0.2386753,-9.764353,0,0,44.82651,1,1,8008,4004
5789,16455696,0,-0.001799168,-0.001095298,0.000139903,-0.232368,0.2350587,-9.766124,0,0,44.82669,1,1,8008,4004
5792,16458290,0,-0.003045291,-0.001411139,0.0006025592,-0.2330155,0.233724,-9.767872000000001,0,0,44.82681,1,1,8008,4004
5795,16461312,0,-0.004139849,-0.002023749,0.002137539,-0.2345186,0.2350912,-9.771077,0,0,44.82695,1,1,8008,4004
5826,16463869,0,-0.002934282,-0.001596638,0.002885676,-0.2373516,0.2390434,-9.772257,0,0,44.82713,1,1,8008,4004
5829,16465736,0,-0.001918003,-0.0003452346,0.002816843,-0.237786,0.2412384,-9.769435,0,0,44.82726,1,1,8008,4004
5832,16468738,0,-0.002010506,0.0005733849,0.002815443,-0.2349914,0.2427008,-9.764530000000001,0,0,44.82746,1,1,8008,4004
5835,16470901,0,-0.003232238,0.001508662,0.002790691,-0.2289118,0.2431399,-9.762164,0,0,44.82772,1,1,8008,4004
5866,16473624,0,-0.003776763,0.001508333,0.003312472,-0.2251461,0.2463697,-9.762172,0,0,44.82785,1,1,8008,4004
5870,16476120,0,-0.002618291,0.0007986637,0.002895532,-0.2200402,0.2532462,-9.762294000000001,0,0,44.82804,1,1,8008,4004
5874,16478375,0,-0.0021603,-0.0001671754,0.003069466,-0.2170985,0.2555767,-9.76183,0,0,44.82825,1,1,8008,4004
5877,16480694,0,-0.00268575,-0.001226047,0.003374031,-0.2158715,0.258689,-9.758167,0,0,44.82856,1,1,8008,4004
5908,16483100,0,-0.002893865,-0.001199106,0.002904271,-0.2177859,0.2624758,-9.755948,0,0,44.82871,1,1,8008,4004
5912,16486056,0,-0.001074802,-0.0007694562,0.001613406,-0.222377,0.2665387,-9.751284999999999,0,0,44.82893,1,1,8008,4004
5915,16488409,0,-0.0003569627,-0.0001414637,0.0004552035,-0.223549,0.2673925,-9.747341,0,0,44.82908,1,1,8008,4004
5919,16491058,0,-9.482984e-05,0.0007339655,-0.0002686546,-0.2250415,0.2681829,-9.741602,0,0,44.82938,1,1,8008,4004
5953,16493906,0,-1.165292e-05,0.001221335,0.0001612288,-0.2275076,0.2711637,-9.738925,0,0,44.82965,1,1,8008,4004
5957,16495921,0,0.0001708694,0.00118241,0.0002397463,-0.2290361,0.2756515,-9.740739,0,0,44.82977,1,1,8008,4004
5960,16498878,0,0.0007134729,0.001028656,1.760076e-05,-0.2304362,0.2809263,-9.741918999999999,0,0,44.82988,1,1,8008,4004
5963,16500889,0,0.002297536,0.001021158,-0.0004173271,-0.2317222,0.2873856,-9.741019,0,0,44.83009,1,1,8008,4004
5994,16503292,0,0.002235867,0.001289974,0.0008061486,-0.2307877,0.290215,-9.736114000000001,0,0,44.83029,1,1,8008,4004
5998,16506142,0,0.00170069,0.001510479,0.0007192141,-0.2293843,0.2902327,-9.734413,0,0,44.83039,1,1,8008,4004
6001,16508433,0,0.001916218,0.002063227,0.0003940231,-0.2291252,0.2897754,-9.733352,0,0,44.83054,1,1,8008,4004
6004,16511096,0,0.003037906,0.002898116,-5.210624e-05,-0.2272312,0.2880452,-9.734007,0,0,44.83073,1,1,8008,4004
6037,16513757,0,0.003170539,0.003573618,-0.0003276993,-0.2240274,0.2851828,-9.734493000000001,0,0,44.83092,1,1,8008,4004
6040,16516245,0,0.002463064,0.003287161,-0.0001457914,-0.2223698,0.2819902,-9.732154,0,0,44.83099,1,1,8008,4004
6043,16518787,0,0.002159989,0.003083611,-0.0006836606,-0.219469,0.2767639,-9.725459000000001,0,0,44.83115,1,1,8008,4004
6046,16521212,0,0.002837484,0.003132147,-0.002330324,-0.2173224,0.2745607,-9.720643000000001,0,0,44.83128,1,1,8008,4004
6077,16524030,0,0.004941284,0.00324502,-0.003230729,-0.2155046,0.2726876,-9.718723000000001,0,0,44.83146,1,1,8008,4004
6081,16526086,0,0.006263752,0.00313949,-0.002425996,-0.215519,0.2696717,-9.720537,0,0,44.83157,1,1,8008,4004
6084,16529234,0,0.006306246,0.002251189,-0.0008881071,-0.2172325,0.2684069,-9.725132,0,0,44.83183,1,1,8008,4004
6090,16531860,0,0.006190254,0.001546767,-0.000458727,-0.2191632,0.2689903,-9.729177999999999,0,0,44.83197,1,1,8008,4004
6121,16534009,0,0.00597421,0.001092609,-0.001128137,-0.2211187,0.2678266,-9.731297,0,0,44.83217,1,1,8008,4004
6124,16539695,0,0.005150364,0.0004846107,-0.0009028701,-0.2198158,0.2648007,-9.731895,0,0,44.83255,1,1,8008,4004
6127,16541845,0,0.005480416,0.0009372528,-0.001047661,-0.2205813,0.2656206,-9.732803000000001,0,0,44.83267,1,1,8008,4004
6158,16543916,0,0.006116119,0.001446917,-0.001524542,-0.2227867,0.2661412,-9.731728,0,0,44.83279,1,1,8008,4004
6161,16546662,0,0.006622902,0.001060943,-0.001698702,-0.2275587,0.2674554,-9.728664,0,0,44.83294,1,1,8008,4004
6164,16549549,0,0.005616452,-0.00114062,-0.001714953,-0.2296569,0.2675905,-9.726755000000001,0,0,44.83306,1,1,8008,4004
6167,16551963,0,0.005157287,-0.002170074,-0.001629731,-0.2309682,0.2654552,-9.724194000000001,0,0,44.83316,1,1,8008,4004
6198,16555116,0,0.005573845,-0.003197463,-0.001458033,-0.2321155,0.2647264,-9.725319000000001,0,0,44.83323,1,1,8008,4004
6201,16556591,0,0.006831304,-0.003618392,-0.0005493757,-0.2338904,0.2656292,-9.729882999999999,0,0,44.83333,1,1,8008,4004
6204,16559448,0,0.007553043,-0.003890526,-0.0005247886,-0.2336419,0.2664334,-9.731490000000001,0,0,44.83344,1,1,8008,4004
6207,16562256,0,0.006937394,-0.00394719,-0.0004473191,-0.2318955,0.2647876,-9.730504,0,0,44.83351,1,1,8008,4004
6238,16564260,0,0.004064893,-0.004755224,0.00109826,-0.2311507,0.2602306,-9.731085,0,0,44.83358,1,1,8008,4004
6242,16568118,0,0.003320477,-0.005186834,0.002330933,-0.231065,0.2567475,-9.734469000000001,0,0,44.83364,1,1,8008,4004
6245,16569308,0,0.004041767,-0.004058306,0.002981757,-0.2313654,0.2510546,-9.743596999999999,0,0,44.83378,1,1,8008,4004
6248,16572193,0,0.004193369,-0.002987042,0.002380178,-0.2311924,0.2452773,-9.74986,0,0,44.83387,1,1,8008,4004
6279,16574867,0,0.002608923,-0.002036132,0.0001183941,-0.2298251,0.234788,-9.755743000000001,0,0,44.83403,1,1,8008,4004
6283,16577060,0,0.0009821851,-0.001639309,-0.0003021972,-0.2279852,0.2292597,-9.758615000000001,0,0,44.8341,1,1,8008,4004
6286,16579863,0,-0.0003974737,-0.002677522,-0.0001613839,-0.2239486,0.2258479,-9.760171,0,0,44.83416,1,1,8008,4004
6289,16582212,0,2.840922e-05,-0.002568618,0.0003121954,-0.2210794,0.2273124,-9.760082000000001,0,0,44.83422,1,1,8008,4004
6320,16584582,0,0.0005937574,-0.00173241,0.00127835,-0.2178192,0.2297758,-9.75911,0,0,44.83428,1,1,8008,4004
6323,16587428,0,-0.0002996771,-0.0009018244,0.003424204,-0.2114289,0.2290177,-9.75409,0,0,44.83434,1,1,8008,4004
6327,16589661,0,-0.002707876,-0.001671027,0.003341893,-0.2070774,0.2270905,-9.751904,0,0,44.8344,1,1,8008,4004
6330,16592597,0,-0.003780431,-0.001617442,0.003092874,-0.2073909,0.2282715,-9.752829,0,0,44.83446,1,1,8008,4004
6364,16594755,0,-0.00408896,6.801667e-05,0.002134729,-0.2112986,0.2314731,-9.756033,0,0,44.83453,1,1,8008,4004
6369,16597458,0,-0.003342307,0.0009658636,0.001047821,-0.2128654,0.2325444,-9.758011,0,0,44.83457,1,1,8008,4004
6372,16600137,0,-0.001820648,0.0009706043,-0.0005257091,-0.2145144,0.2338723,-9.760308,0,0,44.83466,1,1,8008,4004
6376,16602264,0,-0.001179603,0.0003380864,-0.0003226377,-0.2161566,0.2340871,-9.760922000000001,0,0,44.83469,1,1,8008,4004
6410,16605464,0,-0.002945075,2.755005e-05,0.001039777,-0.2204884,0.2299979,-9.75756,0,0,44.83477,1,1,8008,4004
6413,16607603,0,-0.005269781,0.0004726587,0.001524976,-0.2248588,0.2255703,-9.754581999999999,0,0,44.83483,1,1,8008,4004
6416,16609701,0,-0.007601695,0.0009695478999999999,0.001598694,-0.2322638,0.220491,-9.752193,0,0,44.83493,1,1,8008,4004
6420,16612841,0,-0.007510623,0.001707269,0.0004521217,-0.2371881,0.2184169,-9.751949,0,0,44.835,1,1,8008,4004
6451,16615208,0,-0.007784832,0.002106154,-3.374105e-05,-0.2408799,0.216561,-9.753069,0,0,44.8351,1,1,8008,4004
6455,16617853,0,-0.009306851999999999,0.00148903,0.0003992075,-0.2408909,0.2155894,-9.753382,0,0,44.83516,1,1,8008,4004
6458,16619751,0,-0.01127424,0.001612639,0.0005297464999999999,-0.2405683,0.2194882,-9.750628000000001,0,0,44.83525,1,1,8008,4004
6461,16622684,0,-0.01081747,0.00273579,0.001238707,-0.2409493,0.226804,-9.745170999999999,0,0,44.83528,1,1,8008,4004
6492,16624653,0,-0.009568398000000001,0.003257054,0.002058156,-0.2373466,0.2385058,-9.737201000000001,0,0,44.83535,1,1,8008,4004
6495,16628193,0,-0.008532217,0.003439926,0.001673626,-0.2337619,0.2465546,-9.734386000000001,0,0,44.8354,1,1,8008,4004
6498,16630132,0,-0.006030878,0.003794405,0.0004515092,-0.2327317,0.2597306,-9.733134,0,0,44.8355,1,1,8008,4004
6502,16632679,0,-0.005120669,0.003076276,-0.0001516975,-0.2327345,0.266661,-9.735688,0,0,44.83555,1,1,8008,4004
6533,16634799,0,-0.004648992,0.002110073,-0.001178047,-0.2308762,0.2719629,-9.741272,0,0,44.83564,1,1,8008,4004
6537,16639719,0,-0.003098513,0.001391158,-0.0009846295000000001,-0.2262792,0.2760423,-9.743840000000001,0,0,44.83579,1,1,8008,4004
6540,16644869,0,-0.003548381,0.0022606,-0.0008558332,-0.2189328,0.2681797,-9.738791000000001,0,0,44.83596,1,1,8008,4004
6572,16647428,0,-0.003309779,0.0009298363,-0.0005317517,-0.2175827,0.2644945,-9.739451000000001,0,0,44.83607,1,1,8008,4004
6575,16650148,0,-0.0028349,-0.0003019822,0.0006725313,-0.2189981,0.2575682,-9.740066000000001,0,0,44.83625,1,1,8008,4004
6578,16652651,0,-0.001833386,-0.000553507,0.001386687,-0.2215946,0.2518244,-9.740394,0,0,44.83635,1,1,8008,4004
6581,16655163,0,-0.000970907,-0.002552137,0.001853745,-0.2244978,0.245791,-9.743369,0,0,44.83646,1,1,8008,4004
6612,16657218,0,-0.0007679309,-0.002926459,0.001735038,-0.2270877,0.244839,-9.747294999999999,0,0,44.83654,1,1,8008,4004
6615,16659743,0,-0.0007918379,-0.002188593,0.0011883,-0.2311172,0.2459454,-9.748749999999999,0,0,44.8367,1,1,8008,4004
6618,16662900,0,-0.0004655405,-0.001988106,0.0005501707999999999,-0.2327112,0.2482662,-9.745597999999999,0,0,44.83678,1,1,8008,4004
6621,16665412,0,0.001223693,-0.001975008,-0.0006690543,-0.2347994,0.2541882,-9.74103,0,0,44.8369,1,1,8008,4004
6652,16667669,0,0.002776414,-0.002130509,-0.002135713,-0.2371919,0.2611971,-9.741726999999999,0,0,44.83703,1,1,8008,4004
6656,16669753,0,0.003131268,-0.00208678,-0.003035736,-0.2396531,0.2648102,-9.743895999999999,0,0,44.83718,1,1,8008,4004
6660,16672870,0,0.003477221,-0.00253464,-0.003376506,-0.2408535,0.2687726,-9.747044000000001,0,0,44.83729,1,1,8008,4004
6663,16675233,0,0.005283438,-0.003654715,-0.003161677,-0.2379836,0.2727824,-9.751897,0,0,44.83745,1,1,8008,4004
6694,16678083,0,0.007194662,-0.004343721,-0.00286332,-0.2347429,0.2693809,-9.753795999999999,0,0,44.83759,1,1,8008,4004
6697,16679734,0,0.007022126,-0.004284131,-0.002442145,-0.2344832,0.2644119,-9.756347999999999,0,0,44.83767,1,1,8008,4004
6700,16682252,0,0.006319022,-0.003845764,-0.002184944,-0.2344662,0.2599375,-9.758753,0,0,44.83776,1,1,8008,4004
6703,16684664,0,0.006980102,-0.003845517,-0.001861258,-0.2339845,0.2546197,-9.759817999999999,0,0,44.83787,1,1,8008,4004
6734,16688099,0,0.007570264,-0.004721802,-0.001776946,-0.2332606,0.251387,-9.759111000000001,0,0,44.83794,1,1,8008,4004
6739,16690085,0,0.007575315,-0.005466416,-0.001270233,-0.232072,0.2482169,-9.755815999999999,0,0,44.83807,1,1,8008,4004
6742,16692630,0,0.007393283,-0.004949198,-0.0006308774,-0.230331,0.246174,-9.754336,0,0,44.83816,1,1,8008,4004
6748,16694935,0,0.007587539,-0.004249656,0.001233246,-0.2269827,0.2419092,-9.758191,0,0,44.83828,1,1,8008,4004
6780,16697867,0,0.008915469000000001,-0.003962436,0.00176854,-0.2276722,0.2391191,-9.765342,0,0,44.83836,1,1,8008,4004
6784,16700234,0,0.01015675,-0.00260791,0.0008175151,-0.231786,0.2375118,-9.770538999999999,0,0,44.83847,1,1,8008,4004
6787,16702741,0,0.0106057,-0.001830871,-0.0003372958,-0.2325473,0.2368537,-9.767949,0,0,44.8385,1,1,8008,4004
6790,16704661,0,0.008901829999999999,-0.001874668,-0.001338397,-0.2308897,0.2340805,-9.760471000000001,0,0,44.83849,1,1,8008,4004
6821,16707314,0,0.007706731,-0.002553462,-0.0009668398,-0.2302834,0.2332964,-9.756563999999999,0,0,44.83845,1,1,8008,4004
6825,16709681,0,0.007729433,-0.002428794,0.001038451,-0.231318,0.2357749,-9.755753,0,0,44.83833,1,1,8008,4004
6828,16712604,0,0.00807566,-0.002038876,0.001817452,-0.2326158,0.2379223,-9.758749999999999,0,0,44.83825,1,1,8008,4004
6831,16715054,0,0.008828136,-0.002302796,0.001214927,-0.2377467,0.245344,-9.764863,0,0,44.83811,1,1,8008,4004
6862,16718148,0,0.008977206,-0.001805055,0.0006728895,-0.2424326,0.2513575,-9.766639,0,0,44.83804,1,1,8008,4004
6866,16719710,0,0.006886625,-0.001635889,-0.000100954,-0.2472486,0.2555348,-9.762523,0,0,44.83794,1,1,8008,4004
6869,16722255,0,0.005756724,-0.001646959,-0.001096926,-0.2476294,0.2569557,-9.756804000000001,0,0,44.83791,1,1,8008,4004
6872,16724747,0,0.0054238,-0.0006860082,-0.0009915545999999999,-0.2468748,0.2592262,-9.751243000000001,0,0,44.83784,1,1,8008,4004
6903,16728018,0,0.005899344,0.0005620353,-0.0006712070000000001,-0.2466072,0.2578565,-9.74911,0,0,44.83781,1,1,8008,4004
6906,16730105,0,0.005549022,0.002235935,0.0004412742,-0.2467892,0.2509253,-9.747787000000001,0,0,44.83772,1,1,8008,4004
6911,16733034,0,0.005364249,0.002493086,0.001095521,-0.2475862,0.2457841,-9.748355,0,0,44.83766,1,1,8008,4004
6914,16734678,0,0.0041833,0.001414152,0.00203858,-0.2469058,0.2371065,-9.74968,0,0,44.83754,1,1,8008,4004
6945,16737282,0,0.001852763,0.0007343121,0.002278877,-0.2468226,0.2297347,-9.752672,0,0,44.83748,1,1,8008,4004
6949,16745263,0,-8.195048000000001e-05,0.003352289,-0.001826857,-0.2508205,0.2253361,-9.749931,0,0,44.83707,1,1,8008,4004
6980,16747552,0,-0.002013987,0.00382709,-0.0003116679,-0.2496864,0.2279946,-9.748555,0,0,44.83692,1,1,8008,4004
6983,16750119,0,-0.003632537,0.004099972,0.001849778,-0.2501693,0.2376183,-9.750189000000001,0,0,44.83681,1,1,8008,4004
6986,16752874,0,-0.002994517,0.003955087,0.003475355,-0.2468406,0.2488887,-9.750416,0,0,44.83666,1,1,8008,4004
6989,16755584,0,-0.002277713,0.003142716,0.002993926,-0.2421331,0.2551041,-9.748537000000001,0,0,44.83657,1,1,8008,4004
7020,16758125,0,-0.003327292,0.002365326,0.001270465,-0.2322394,0.2634134,-9.745782,0,0,44.83639,1,1,8008,4004
7024,16760187,0,-0.004130038,0.002796472,0.0002437101,-0.2265625,0.2670271,-9.745419,0,0,44.83626,1,1,8008,4004
7027,16763012,0,-0.004722109,0.004472895,-0.0002296165,-0.2196171,0.2730507,-9.746703,0,0,44.83604,1,1,8008,4004
7030,16765345,0,-0.003780193,0.005124401,9.870246999999999e-06,-0.2164965,0.2773243,-9.748037999999999,0,0,44.83593,1,1,8008,4004
7061,16768156,0,-0.00199326,0.004618265,8.629697999999999e-06,-0.2141145,0.2793181,-9.751409000000001,0,0,44.83578,1,1,8008,4004
7065,16770862,0,-0.001647617,0.004547685,0.0006362981,-0.2137678,0.2773827,-9.753532999999999,0,0,44.83574,1,1,8008,4004
7068,16772899,0,-0.002592545,0.004802879,0.001165548,-0.2133174,0.2735921,-9.75339,0,0,44.83561,1,1,8008,4004
7071,16775094,0,-0.003793401,0.003571634,0.0006238909,-0.2133533,0.2695631,-9.752553000000001,0,0,44.83553,1,1,8008,4004
7102,16777940,0,-0.004175257,0.001768769,0.0001275104,-0.217323,0.2624627,-9.756187000000001,0,0,44.83535,1,1,8008,4004
7106,16780741,0,-0.004395114,0.002061814,0.0006037151,-0.222063,0.2595443,-9.758221000000001,0,0,44.8352,1,1,8008,4004
7109,16783156,0,-0.005650561,0.002416585,0.001455664,-0.2243733,0.2557929,-9.759573,0,0,44.83498,1,1,8008,4004
7112,16785295,0,-0.006214975,0.001616706,0.0009174,-0.2228131,0.2525412,-9.761096,0,0,44.83488,1,1,8008,4004
7143,16788037,0,-0.006412822,0.0007423227,1.667697e-05,-0.2242598,0.2493053,-9.764396,0,0,44.83466,1,1,8008,4004
7147,16790075,0,-0.005692816,0.0006976763,-4.681317e-05,-0.2269127,0.2476877,-9.768018,0,0,44.8345,1,1,8008,4004
7151,16792849,0,-0.005191347,0.0004567315,0.0003433888,-0.2287344,0.245184,-9.769817,0,0,44.83427,1,1,8008,4004
7157,16795664,0,-0.00477782,-9.701819e-05,0.00102816,-0.229189,0.2472778,-9.768905999999999,0,0,44.83415,1,1,8008,4004
7191,16798660,0,-0.003851713,-0.00120752,0.001772709,-0.2290443,0.2543442,-9.765065,0,0,44.8339,1,1,8008,4004
7194,16799925,0,-0.004034044,-0.001675091,0.001516545,-0.2274279,0.2575795,-9.761312999999999,0,0,44.83374,1,1,8008,4004
7197,16802790,0,-0.004164678,-0.001387339,0.001007631,-0.2243405,0.2591326,-9.756674,0,0,44.83345,1,1,8008,4004
7200,16805056,0,-0.004079217,-0.001000591,0.0005273190000000001,-0.2228061,0.2618011,-9.753386000000001,0,0,44.83331,1,1,8008,4004
7231,16808227,0,-0.003026985,-0.001428089,-0.0002181559,-0.2194633,0.2657504,-9.748227999999999,0,0,44.83303,1,1,8008,4004
7236,16810785,0,-0.002325019,-0.002368242,-0.0005120428,-0.2169732,0.2674583,-9.745969000000001,0,0,44.8329,1,1,8008,4004
7239,16812930,0,-0.002348459,-0.003627252,-0.0009494178,-0.2141241,0.2699283,-9.747028,0,0,44.83264,1,1,8008,4004
7242,16815083,0,-0.002345752,-0.004310952,-0.0007486643,-0.2131804,0.2716549,-9.748404000000001,0,0,44.8325,1,1,8008,4004
7273,16817730,0,-0.001704077,-0.004542236,-0.0008818489000000001,-0.2143288,0.2744151,-9.753163000000001,0,0,44.83225,1,1,8008,4004
7277,16820720,0,-0.000688743,-0.00422582,-0.0009546837,-0.2160107,0.2765932,-9.757109,0,0,44.83213,1,1,8008,4004
7280,16822849,0,0.0002572751,-0.003682494,-0.0002355258,-0.2184508,0.2782071,-9.759439,0,0,44.83187,1,1,8008,4004
7283,16825587,0,-0.0003877735,-0.003815919,9.840278e-05,-0.2196636,0.2778205,-9.757505,0,0,44.83173,1,1,8008,4004
7314,16827701,0,-0.001064262,-0.003472265,-0.0004173173,-0.2185119,0.2790196,-9.749129999999999,0,0,44.83145,1,1,8008,4004
7317,16830589,0,-0.0001070784,-0.002889223,-0.0006237555,-0.2156685,0.2813756,-9.742311000000001,0,0,44.83126,1,1,8008,4004
7320,16833213,0,0.002066617,-0.001033081,8.009567e-05,-0.2121661,0.2841225,-9.734617,0,0,44.83098,1,1,8008,4004
7323,16835626,0,0.002431776,0.0006987104,0.0006928907,-0.2102668,0.2846112,-9.732397000000001,0,0,44.83078,1,1,8008,4004
7354,16838209,0,0.003787127,0.002228972,0.001744137,-0.2073386,0.2857686,-9.732772000000001,0,0,44.83052,1,1,8008,4004
7358,16840186,0,0.005237079,0.002220857,0.001324189,-0.2057334,0.2847222,-9.735575000000001,0,0,44.83033,1,1,8008,4004
7361,16843001,0,0.006242298,0.0004567703,-0.0002065037,-0.2050418,0.2788101,-9.740895,0,0,44.83014,1,1,8008,4004
7364,16845065,0,0.005955215,0.0002969654,-0.001276823,-0.2069263,0.2743041,-9.743474000000001,0,0,44.82998,1,1,8008,4004
7395,16848965,0,0.005850299,-4.655361e-05,-0.0008290539,-0.2111178,0.2695846,-9.745968,0,0,44.82979,1,1,8008,4004
7398,16853363,0,0.006367988,0.001582044,0.0007120335,-0.2140228,0.2609727,-9.749226999999999,0,0,44.82951,1,1,8008,4004
7401,16855670,0,0.006507593,0.003320707,0.001067063,-0.2205549,0.2576477,-9.750794000000001,0,0,44.82928,1,1,8008,4004
7432,16858218,0,0.00632441,0.003024173,0.0003056151,-0.2229809,0.2537515,-9.749026000000001,0,0,44.82918,1,1,8008,4004
7435,16861543,0,0.004946111,0.002283301,-0.0002730573,-0.2241849,0.2476601,-9.746572,0,0,44.82899,1,1,8008,4004
7438,16863613,0,0.004733063,0.002401508,-0.0004980682,-0.2251701,0.2467745,-9.745799,0,0,44.82889,1,1,8008,4004
7442,16865671,0,0.006035301,0.002251804,-0.0007337869,-0.2213595,0.2490931,-9.746606,0,0,44.82869,1,1,8008,4004
7474,16868291,0,0.007424915,0.001962847,4.562222e-05,-0.2164756,0.2496051,-9.747766,0,0,44.82859,1,1,8008,4004
7477,16870810,0,0.008544761,0.001844021,0.001311034,-0.2114133,0.2481173,-9.747429,0,0,44.8284,1,1,8008,4004
7480,16873704,0,0.007991148,0.001871726,0.001368428,-0.2079558,0.2465417,-9.745526999999999,0,0,44.82829,1,1,8008,4004
7484,16876281,0,0.005995631,0.002117238,0.0002939083,-0.201402,0.2429574,-9.742855,0,0,44.82808,1,1,8008,4004
7515,16878666,0,0.004624344,0.001773811,-0.0008204001,-0.196861,0.2398598,-9.744724,0,0,44.82799,1,1,8008,4004
7518,16881119,0,0.004436035,0.00122437,-0.001377649,-0.1912653,0.2355188,-9.753646,0,0,44.82784,1,1,8008,4004
7521,16883672,0,0.0058322,0.002533012,-0.0009193565,-0.1895193,0.2325173,-9.759638000000001,0,0,44.8277,1,1,8008,4004
7524,16886474,0,0.0066935,0.002584183,0.00022633,-0.1909202,0.2276835,-9.760159,0,0,44.82761,1,1,8008,4004
7555,16888672,0,0.005971724,0.001687828,0.001359468,-0.1943202,0.2216458,-9.760218999999999,0,0,44.82753,1,1,8008,4004
7558,16890939,0,0.002907912,-4.915635e-05,0.002054077,-0.203334,0.21645,-9.758679000000001,0,0,44.82734,1,1,8008,4004
7561,16893697,0,0.0002768683,-0.0007793083,0.00121712,-0.2131662,0.2170811,-9.756053,0,0,44.82716,1,1,8008,4004
7568,16896297,0,0.00111193,-0.0009466177,-0.0001661898,-0.2166437,0.2193344,-9.754829000000001,0,0,44.82704,1,1,8008,4004
7600,16899430,0,0.002804902,-0.0007712902,-0.0008426114,-0.2208654,0.2242648,-9.752765999999999,0,0,44.82687,1,1,8008,4004
7603,16901128,0,0.002514208,-0.0001965118,-0.0006832635,-0.2232607,0.2269028,-9.751184,0,0,44.82672,1,1,8008,4004
7607,16903406,0,0.00132911,0.0006159155,0.0002191929,-0.2237071,0.2302444,-9.750486,0,0,44.82661,1,1,8008,4004
7610,16905894,0,0.0005128093,0.0007151357,0.0004875858,-0.2231614,0.23365,-9.750978,0,0,44.82645,1,1,8008,4004
7641,16909062,0,0.0001499898,-0.0001061992,0.0001715502,-0.2225964,0.2365174,-9.749717,0,0,44.82629,1,1,8008,4004
7644,16911365,0,0.0004403529,-0.002161268,-0.0004938602,-0.2205301,0.2361534,-9.744908000000001,0,0,44.82606,1,1,8008,4004
7648,16913653,0,-0.0001480303,-0.002060484,-0.0007400214,-0.2184859,0.233042,-9.742352,0,0,44.82593,1,1,8008,4004
7652,16915877,0,-0.001692911,-0.001141552,7.090934000000001e-05,-0.2153098,0.2294104,-9.740591,0,0,44.82577,1,1,8008,4004
7683,16918691,0,-0.002259295,-0.001266082,0.0009572215,-0.2134573,0.2286042,-9.742768,0,0,44.82562,1,1,8008,4004
7686,16921123,0,-0.002930911,-0.001360569,0.001147812,-0.2132646,0.2250847,-9.748376,0,0,44.82539,1,1,8008,4004
7689,16924001,0,-0.003069112,-0.002132941,0.0002725885,-0.2154383,0.2215652,-9.753192,0,0,44.82526,1,1,8008,4004
7693,16926289,0,-0.003578914,-0.003279037,5.367707e-05,-0.218993,0.2185468,-9.75906,0,0,44.82507,1,1,8008,4004
7724,16928685,0,-0.004682153,-0.004106019,-0.000134195,-0.2213467,0.2176691,-9.760344,0,0,44.82494,1,1,8008,4004
7727,16931046,0,-0.006141878,-0.005661698,-0.001646222,-0.225368,0.2190468,-9.760548,0,0,44.8247,1,1,8008,4004
7732,16933907,0,-0.007656001,-0.005989636,-0.00182664,-0.229259,0.2244655,-9.756577,0,0,44.82454,1,1,8008,4004
7735,16939086,0,-0.006595628,-0.002841306,0.0008243039,-0.2385126,0.2368418,-9.745566999999999,0,0,44.82425,1,1,8008,4004
7766,16941328,0,-0.006574127,-0.002209068,0.0009305934,-0.2429777,0.2419507,-9.743193,0,0,44.8241,1,1,8008,4004
7769,16943884,0,-0.005563227,-0.00229086,0.001697849,-0.248904,0.2537495,-9.744149,0,0,44.82394,1,1,8008,4004
7773,16946598,0,-0.00397764,-0.002138969,0.001896705,-0.254163,0.2624204,-9.748033,0,0,44.82383,1,1,8008,4004
7776,16949269,0,-0.003207614,-0.0018048,0.001620806,-0.2611459,0.2723621,-9.75192,0,0,44.82364,1,1,8008,4004
7807,16954051,0,-0.004185794,-0.002041216,0.0005582174,-0.2632285,0.2810521,-9.744721,0,0,44.82351,1,1,8008,4004
7810,16956374,0,-0.003448184,-0.002634483,0.0002261445,-0.2628192,0.2821131,-9.742181,0,0,44.82347,1,1,8008,4004
7813,16958901,0,-0.002595928,-0.001304485,0.0004759616,-0.2595759,0.2799626,-9.743916,0,0,44.82339,1,1,8008,4004
7844,16962027,0,-0.002638625,-0.000176709,0.001428169,-0.2559159,0.2767206,-9.747695999999999,0,0,44.82337,1,1,8008,4004
7847,16964682,0,-0.002535052,-0.0001698966,0.002083136,-0.2507732,0.270856,-9.754197,0,0,44.82334,1,1,8008,4004
7852,16966624,0,-0.002282702,-0.0003198748,0.002350918,-0.2475313,0.2668931,-9.757444,0,0,44.82331,1,1,8008,4004
7855,16969003,0,-0.002365385,0.0007602603,0.001584552,-0.2419792,0.2599566,-9.759739,0,0,44.82327,1,1,8008,4004
7886,16971405,0,-0.0028442,0.0008364991999999999,0.0004539551,-0.238261,0.2559139,-9.757947,0,0,44.82323,1,1,8008,4004
7889,16974278,0,-0.00298068,0.0003799692,-0.0003685458,-0.2335112,0.2523922,-9.750794000000001,0,0,44.82316,1,1,8008,4004
7892,16976829,0,-0.003343347,-0.0004797092,-0.0003536571,-0.2332321,0.2512291,-9.74577,0,0,44.82312,1,1,8008,4004
7895,16978905,0,-0.002843688,-0.0007532649,0.001580544,-0.2366391,0.2531052,-9.741975,0,0,44.82302,1,1,8008,4004
7926,16981663,0,-0.001958879,-4.002807e-05,0.002110246,-0.2387855,0.2562878,-9.739463000000001,0,0,44.82298,1,1,8008,4004
7929,16983700,0,0.0003721043,0.0007272594,0.001109282,-0.2434456,0.2618446,-9.737310000000001,0,0,44.82292,1,1,8008,4004
7933,16986732,0,0.001307721,0.0005016206,0.0001757054,-0.2488908,0.2654888,-9.740551999999999,0,0,44.82286,1,1,8008,4004
7936,16989153,0,0.0007994412,0.0001443677,-0.0003879973,-0.2577452,0.2717506,-9.748317999999999,0,0,44.82267,1,1,8008,4004
7967,16991803,0,0.001667612,-0.0002267092,-0.0008670776,-0.259829,0.2763803,-9.751860000000001,0,0,44.82256,1,1,8008,4004
7971,16994238,0,0.003837144,-0.000773616,-0.0008371576,-0.2570322,0.2802362,-9.755193999999999,0,0,44.82243,1,1,8008,4004
7978,16996663,0,0.004006634,-7.54182e-05,-0.0008126193,-0.2551721,0.2804846,-9.756207,0,0,44.82235,1,1,8008,4004
7982,16999581,0,0.0039251,0.002226001,-0.0003838295,-0.2533673,0.2771548,-9.755165,0,0,44.82218,1,1,8008,4004
8013,17001581,0,0.002707356,0.0029135,-0.0006884308999999999,-0.2490485,0.2715231,-9.754849999999999,0,0,44.82205,1,1,8008,4004
8016,17004152,0,0.002414244,0.001410666,-0.001384226,-0.246695,0.2676134,-9.755864000000001,0,0,44.82196,1,1,8008,4004
8019,17007206,0,0.002563093,0.0002071581,-0.00104283,-0.2469836,0.2631058,-9.760408999999999,0,0,44.82183,1,1,8008,4004
8024,17009568,0,0.002329246,0.0005683672,-0.0004367007,-0.247564,0.261932,-9.763897,0,0,44.8217,1,1,8008,4004
8057,17012561,0,0.002343776,0.0007225723,0.0001760736,-0.2461441,0.2608939,-9.765635,0,0,44.82156,1,1,8008,4004
8060,17014292,0,0.002882878,0.0007487267,0.0005698385,-0.2444608,0.2607896,-9.764447000000001,0,0,44.82148,1,1,8008,4004
8064,17017150,0,0.003409534,0.0009015095000000001,0.002140617,-0.2447684,0.2635265,-9.762318,0,0,44.82141,1,1,8008,4004
8067,17019221,0,0.003877328,0.001123674,0.002470047,-0.2442732,0.2679617,-9.763700999999999,0,0,44.82138,1,1,8008,4004
8098,17021716,0,0.005341227,0.001034755,0.0006425344,-0.2396545,0.2747414,-9.76862,0,0,44.82139,1,1,8008,4004
8101,17024702,0,0.00648619,0.0007081649,-0.0007101928,-0.2372276,0.2801155,-9.771592999999999,0,0,44.82143,1,1,8008,4004
8104,17026648,0,0.008828443,0.000410315,-0.0005255491,-0.231338,0.2890818,-9.770649000000001,0,0,44.82151,1,1,8008,4004
8107,17029683,0,0.01032687,0.001637109,0.001038039,-0.2280204,0.2905594,-9.767288000000001,0,0,44.82159,1,1,8008,4004
8138,17032596,0,0.008776703,0.0044854,0.004097774,-0.2234736,0.2784947,-9.758628,0,0,44.82165,1,1,8008,4004
8141,17034555,0,0.009902551000000001,0.0007591355,0.003233821,-0.211571,0.2698958,-9.753838,0,0,44.82166,1,1,8008,4004
8145,17039237,0,0.008276220000000001,-0.0002926174,0.0004373657,-0.2197762,0.2423843,-9.772235999999999,0,0,44.82167,1,1,8008,4004
8176,17044169,0,0.01007328,0.003399483,-0.003862686,-0.2137422,0.2456014,-9.77835,0,0,44.82164,1,1,8008,4004
8179,17046634,0,0.01514091,-0.01193011,-0.007287341,-0.2013996,0.2330422,-9.759017,0,0,44.82163,1,1,8008,4004
8182,17050001,0,0.006359977,-0.00691172,-0.005591984,-0.2209798,0.2167089,-9.755048,0,0,44.82165,1,1,8008,4004
8213,17052272,0,-0.005496521,0.01239367,-0.002565581,-0.2280184,0.211229,-9.760061,0,0,44.82167,1,1,8008,4004
8216,17055475,0,0.00698995,0.007127625,-0.007088492,-0.1966731,0.2192073,-9.774037,0,0,44.82167,1,1,8008,4004
8220,17057307,0,0.01338507,-0.002895445,-0.01146601,-0.2009983,0.2218498,-9.788885000000001,0,0,44.82167,1,1,8008,4004
8223,17060079,0,0.004289083,-0.0003771036,-0.009134695999999999,-0.2363712,0.2315373,-9.792183,0,0,44.82169,1,1,8008,4004
8254,17062289,0,-0.003099868,0.006150428,-0.004378933,-0.2318595,0.2420582,-9.768649,0,0,44.82171,1,1,8008,4004
8257,17064650,0,0.001232991,-0.003320731,-0.003489455,-0.1853434,0.2473748,-9.726953,0,0,44.82174,1,1,8008,4004
8260,17067674,0,0.005717115,-0.01061587,-0.003438203,-0.1828417,0.2412477,-9.725576,0,0,44.82173,1,1,8008,4004
8263,17069776,0,0.004004055,0.002724608,0.00405643,-0.2260124,0.2420926,-9.766302,0,0,44.82166,1,1,8008,4004
8294,17072818,0,0.002443275,0.01559319,0.010457,-0.2360251,0.2464367,-9.792085,0,0,44.82161,1,1,8008,4004
8297,17074765,0,-0.001048522,0.009989408,0.0109169,-0.2142551,0.2317636,-9.781817,0,0,44.82153,1,1,8008,4004
8301,17077106,0,-0.003151084,-0.005176657,0.005939689,-0.20804,0.2294717,-9.760579999999999,0,0,44.8215,1,1,8008,4004
8305,17079876,0,0.007143169,-0.01765105,0.003585891,-0.2203341,0.2576419,-9.753769,0,0,44.82144,1,1,8008,4004
8336,17082701,0,0.01058543,-0.01028874,0.00886114,-0.2307354,0.2534226,-9.766423,0,0,44.8214,1,1,8008,4004
8339,17085028,0,-0.01713196,0.01206017,0.01921069,-0.2339177,0.2019948,-9.779413999999999,0,0,44.82139,1,1,8008,4004
8344,17087683,0,-0.02668312,0.01489102,0.01764081,-0.2172615,0.2068444,-9.777934,0,0,44.82143,1,1,8008,4004
8347,17089779,0,0.01227803,-0.0038073,0.006706868,-0.1941438,0.2698506,-9.773635000000001,0,0,44.82149,1,1,8008,4004
8378,17092291,0,0.03035531,-0.008663682000000001,0.007140636,-0.2087793,0.2698096,-9.778608,0,0,44.82152,1,1,8008,4004
8381,17095308,0,-0.005969594,0.006006445,0.01488081,-0.2341751,0.2248038,-9.773265,0,0,44.82155,1,1,8008,4004
8387,17097379,0,-0.03442102,0.007846264,0.01450446,-0.2134634,0.2331692,-9.751823,0,0,44.82156,1,1,8008,4004
8391,17100150,0,-0.01071128,-0.01606848,0.004371854,-0.1621589,0.2916648,-9.733852000000001,0,0,44.82163,1,1,8008,4004
8422,17102649,0,0.0254506,-0.02226156,0.0001978948,-0.1685658,0.3069736,-9.746057,0,0,44.82169,1,1,8008,4004
8425,17104796,0,0.01775307,0.01258541,0.009047039,-0.2261832,0.274814,-9.785028000000001,0,0,44.8217,1,1,8008,4004
8429,17107788,0,-0.014729,0.03157892,0.01478298,-0.2281113,0.2638478,-9.796697999999999,0,0,44.8217,1,1,8008,4004
8432,17109814,0,-0.01352449,0.006100267,0.005832199,-0.1691761,0.300622,-9.766848,0,0,44.82167,1,1,8008,4004
8463,17112810,0,0.01637042,-0.02475844,-0.003937162,-0.1542839,0.3158074,-9.741158,0,0,44.82163,1,1,8008,4004
8467,17114815,0,0.02439816,-0.02155714,-0.002963836,-0.2049965,0.2705176,-9.727807,0,0,44.82156,1,1,8008,4004
8470,17117122,0,-0.006640528,0.01545801,0.007086858,-0.2396417,0.2319028,-9.747225,0,0,44.82154,1,1,8008,4004
8474,17120088,0,-0.0175259,0.02667562,0.007937365,-0.1986088,0.2631916,-9.785148,0,0,44.82151,1,1,8008,4004
8505,17122225,0,0.01712937,-0.009907167999999999,-0.00192809,-0.1490164,0.3011284,-9.770269000000001,0,0,44.8215,1,1,8008,4004
8508,17125124,0,0.03467401,-0.0359904,-0.004452115,-0.1842156,0.2631136,-9.714841,0,0,44.8215,1,1,8008,4004
8512,17127328,0,-0.003441231,-0.003946565,0.002489375,-0.2531016,0.2238054,-9.69632,0,0,44.8215,1,1,8008,4004
8515,17129814,0,-0.0370308,0.03806674,0.006406877,-0.2586026,0.2627896,-9.704745000000001,0,0,44.8215,1,1,8008,4004
8546,17132863,0,0.005531957,0.01494384,-0.006482991,-0.2048331,0.3238157,-9.719338,0,0,44.82151,1,1,8008,4004
8551,17135018,0,0.05703912,-0.03318166,-0.01803546,-0.2087963,0.3165444,-9.717148,0,0,44.82158,1,1,8008,4004
8555,17139867,0,-0.04413778,0.01777206,0.001906359,-0.2675238,0.2456657,-9.672499999999999,0,0,44.82162,1,1,8008,4004
8586,17142211,0,-0.01489636,0.01552881,-0.004034157,-0.2177947,0.3144906,-9.687151,0,0,44.82163,1,1,8008,4004
8589,17147310,0,0.04414292,-0.004978505,-0.007004527,-0.2492616,0.2464937,-9.729393999999999,0,0,44.82164,1,1,8008,4004
8592,17150579,0,-0.03583131,0.01875269,-0.003375508,-0.2616875,0.1975292,-9.710959000000001,0,0,44.82161,1,1,8008,4004
8595,17152509,0,-0.03387294,0.004125433,-0.01060014,-0.202791,0.2392646,-9.700666999999999,0,0,44.82159,1,1,8008,4004
8626,17155106,0,0.03063305,-0.02605021,-0.01923228,-0.1814155,0.2569314,-9.719662,0,0,44.82154,1,1,8008,4004
8629,17157274,0,0.03381752,-0.01235454,-0.01169382,-0.2386486,0.208343,-9.738436,0,0,44.82151,1,1,8008,4004
8633,17159598,0,-0.02104556,0.03048208,0.003551033,-0.2795972,0.1649143,-9.757980999999999,0,0,44.8215,1,1,8008,4004
8636,17162683,0,-0.02766195,0.02348086,-0.0004124438,-0.2377213,0.1950247,-9.759902,0,0,44.82149,1,1,8008,4004
8667,17165116,0,0.01168392,-0.01976339,-0.01644866,-0.2149847,0.2196981,-9.756802,0,0,44.82145,1,1,8008,4004
8670,17167357,0,0.01068844,-0.01507387,-0.01667221,-0.272834,0.1893297,-9.768573999999999,0,0,44.82142,1,1,8008,4004
8673,17169843,0,-0.02619714,0.02023677,-0.007252685,-0.3104716,0.1855578,-9.783844,0,0,44.82143,1,1,8008,4004
8676,17172425,0,-0.02735608,0.01843884,-0.005892297,-0.2609034,0.2242188,-9.775822,0,0,44.82147,1,1,8008,4004
8707,17175106,0,0.007044205,-0.01126823,-0.01013015,-0.2159607,0.2480538,-9.771196,0,0,44.82157,1,1,8008,4004
8710,17177676,0,0.01279817,-0.01018238,-0.008270420000000001,-0.2432133,0.2373767,-9.79302,0,0,44.82162,1,1,8008,4004
8714,17179802,0,-0.01060565,0.02006937,0.0009368695,-0.2657006,0.2413054,-9.838473,0,0,44.82173,1,1,8008,4004
8717,17182153,0,-0.01855009,0.0229675,0.0002378177,-0.232225,0.256744,-9.851703000000001,0,0,44.82177,1,1,8008,4004
8748,17184824,0,-0.006385681,-0.008034662999999999,-0.009436757,-0.1787728,0.2679956,-9.829967,0,0,44.82181,1,1,8008,4004
8751,17187699,0,-0.0003636239,-0.01862586,-0.01198789,-0.1809794,0.2650735,-9.818498,0,0,44.82181,1,1,8008,4004
8755,17190126,0,-0.00582066,-0.0004951483,-0.005591454,-0.2061615,0.2678824,-9.845719000000001,0,0,44.82179,1,1,8008,4004
8758,17192418,0,-0.00928845,0.01348419,-1.113539e-05,-0.2076187,0.2775601,-9.876778,0,0,44.82176,1,1,8008,4004
8789,17194763,0,-0.005557686,0.006793438,0.002551046,-0.196946,0.2877375,-9.885645999999999,0,0,44.82166,1,1,8008,4004
8795,17197636,0,-0.0006057324999999999,-0.009049181,0.0006103248,-0.1942632,0.289589,-9.861651999999999,0,0,44.82161,1,1,8008,4004
8799,17200256,0,0.002802164,-0.02022616,-0.002396911,-0.1989321,0.2936479,-9.815477,0,0,44.82146,1,1,8008,4004
8802,17202746,0,0.001791594,-0.01002378,-0.00202768,-0.2138549,0.2973244,-9.794686,0,0,44.82137,1,1,8008,4004
8833,17204727,0,0.002747868,0.007971024,-0.0001039347,-0.2276572,0.3087279,-9.774763999999999,0,0,44.8213,1,1,8008,4004
8836,17207463,0,0.007422204,0.004119813,0.0001357298,-0.2137732,0.3169822,-9.76285,0,0,44.82125,1,1,8008,4004
8840,17209658,0,0.01114479,-0.01699039,-4.833691e-05,-0.200077,0.3122856,-9.764244,0,0,44.82118,1,1,8008,4004
8843,17212818,0,0.007592342,-0.02032872,0.001138362,-0.2177199,0.3010233,-9.768637,0,0,44.82113,1,1,8008,4004
8874,17215333,0,0.0007258677,-0.004215382,0.004762212,-0.2398734,0.2797795,-9.734743999999999,0,0,44.82103,1,1,8008,4004
8877,17217909,0,0.005880044,0.001877517,0.003871186,-0.2177694,0.2542498,-9.672675999999999,0,0,44.82096,1,1,8008,4004
8880,17219872,0,0.01063776,-0.007297667,0.001370046,-0.2094256,0.2384209,-9.663686,0,0,44.82088,1,1,8008,4004
8883,17223024,0,0.004041639,-0.01318237,0.003466213,-0.244345,0.2166092,-9.701881,0,0,44.82081,1,1,8008,4004
8914,17225019,0,-0.008346836,-0.005076103,0.009333668,-0.2737261,0.1988401,-9.715055,0,0,44.82076,1,1,8008,4004
8918,17227785,0,-0.01878405,0.00494997,0.01438046,-0.2789242,0.1754647,-9.684873,0,0,44.82066,1,1,8008,4004
8922,17230229,0,-0.01214967,-3.786647e-05,0.01186775,-0.2716981,0.1704817,-9.666202,0,0,44.8205,1,1,8008,4004
8925,17232652,0,-0.001747831,-0.00333052,0.008271857000000001,-0.3001691,0.1669686,-9.692595000000001,0,0,44.82033,1,1,8008,4004
8956,17237882,0,-0.02028845,0.0149309,0.01507036,-0.3205995,0.1818494,-9.716555,0,0,44.81998,1,1,8008,4004
8959,17240027,0,-0.01091182,-0.003518772,0.0130301,-0.2691317,0.2193384,-9.6937,0,0,44.81985,1,1,8008,4004
8962,17242926,0,0.006617096,-0.02636333,0.01149519,-0.2416973,0.2625171,-9.689659000000001,0,0,44.81967,1,1,8008,4004
8993,17248247,0,-0.008089341,0.02186179,0.02088327,-0.2464937,0.3331953,-9.736655000000001,0,0,44.81938,1,1,8008,4004
8997,17250696,0,0.01257818,0.01165136,0.01437794,-0.1810787,0.3892029,-9.75525,0,0,44.81925,1,1,8008,4004
9000,17253103,0,0.03806879,-0.02067341,0.002623069,-0.1460554,0.4128244,-9.772119999999999,0,0,44.81915,1,1,8008,4004
9031,17255862,0,0.01952555,-0.01533116,0.003081341,-0.1804848,0.3840318,-9.760725000000001,0,0,44.8191,1,1,8008,4004
9034,17258065,0,-0.01198828,0.01361868,0.009366503999999999,-0.1890706,0.3639647,-9.71846,0,0,44.81902,1,1,8008,4004
9038,17261043,0,0.002507483,0.01002522,0.007910469999999999,-0.1540639,0.3666097,-9.709638999999999,0,0,44.81897,1,1,8008,4004
9041,17262870,0,0.04036834,-0.01147276,0.004805032,-0.1708019,0.3129669,-9.753653999999999,0,0,44.8189,1,1,8008,4004
9072,17265316,0,0.03003293,-0.004362106,0.008461341000000001,-0.241706,0.2363008,-9.783616,0,0,44.81885,1,1,8008,4004
9075,17267859,0,-0.01815169,0.01937518,0.01274308,-0.3033523,0.1386046,-9.770514,0,0,44.81878,1,1,8008,4004
9078,17271061,0,-0.02704199,0.01602907,0.007663758,-0.2963323,0.1034885,-9.746078000000001,0,0,44.81873,1,1,8008,4004
9081,17273033,0,-0.005156912,-0.0008852212,-0.001677854,-0.3175956,0.05986793,-9.727171,0,0,44.81867,1,1,8008,4004
9112,17275763,0,-0.002860718,0.001792655,-0.0007832173,-0.3579986,0.02364561,-9.717935000000001,0,0,44.81864,1,1,8008,4004
9115,17278074,0,-0.0251032,0.01607423,0.006082915,-0.3617628,0.004093774,-9.714302999999999,0,0,44.8186,1,1,8008,4004
9119,17280667,0,-0.0311584,0.01176812,0.006613457,-0.3232333,0.03726868,-9.737477,0,0,44.81858,1,1,8008,4004
9122,17283282,0,-0.01386354,-0.002505782,0.003764885,-0.2889058,0.128822,-9.809977999999999,0,0,44.81857,1,1,8008,4004
9153,17285766,0,-0.002099398,0.0008158815,0.003413817,-0.2850551,0.1940347,-9.863543999999999,0,0,44.81854,1,1,8008,4004
9156,17288582,0,0.00180661,0.011501,0.001445309,-0.2328843,0.2961277,-9.897325,0,0,44.81847,1,1,8008,4004
9159,17290781,0,0.0005029971,0.00363918,-0.003352306,-0.1626554,0.3577741,-9.87668,0,0,44.81837,1,1,8008,4004
9162,17293011,0,-0.00130074,-0.01590286,-0.01162039,-0.08600599,0.4203537,-9.829262999999999,0,0,44.81827,1,1,8008,4004
9193,17295659,0,-0.0001573561,-0.01387823,-0.01205739,-0.07326742,0.451448,-9.822141999999999,0,0,44.81821,1,1,8008,4004
9199,17298667,0,0.0157967,0.006860382,-0.006295592,-0.07180930000000001,0.481167,-9.830882000000001,0,0,44.81819,1,1,8008,4004
9204,17301111,0,0.02755628,0.01665425,-0.003065229,-0.07774934,0.4598169,-9.821184000000001,0,0,44.81818,1,1,8008,4004
9207,17302885,0,0.01412001,0.01564081,-0.003896853,-0.1215061,0.3554665,-9.775607000000001,0,0,44.8182,1,1,8008,4004
9232,17325889,0,0.003731047,-0.005341606,-0.01069372,-0.2507091,0.2944705,-9.760714,0,0,44.81833,1,1,8008,4004
9235,17328133,0,-0.003997754,0.008007653,-0.01289478,-0.2106107,0.3943491,-9.776507000000001,0,0,44.81823,1,1,8008,4004
9239,17330816,0,0.007539356,0.007364574,-0.0127738,-0.1672239,0.4395495,-9.798003,0,0,44.81815,1,1,8008,4004
9242,17332878,0,0.01946892,-0.005790141,-0.01050235,-0.1138568,0.4136481,-9.800309,0,0,44.81808,1,1,8008,4004
9274,17335825,0,0.01182265,-0.006935422,-0.008666609,-0.1131202,0.3573992,-9.757917000000001,0,0,44.81807,1,1,8008,4004
9279,17339115,0,-0.001205777,0.006238402,-0.009544861999999999,-0.1332176,0.2565337,-9.621962999999999,0,0,44.81808,1,1,8008,4004
9282,17340632,0,0.0009368406,0.00593656,-0.01578045,-0.1331195,0.146325,-9.526106,0,0,44.81812,1,1,8008,4004
9285,17342924,0,0.001841715,-0.00350483,-0.01819646,-0.1524138,0.09271066,-9.565391,0,0,44.81815,1,1,8008,4004
9316,17345537,0,0.002283515,-0.009308621,-0.0153958,-0.205314,0.08156115,-9.676799000000001,0,0,44.8182,1,1,8008,4004
9319,17348261,0,0.01298823,-0.01032437,-0.00340315,-0.2792394,0.1300839,-9.819959000000001,0,0,44.81826,1,1,8008,4004
9322,17353007,0,-0.001744844,-0.02860472,0.00532267,-0.2517448,0.1782897,-9.772544,0,0,44.81839,1,1,8008,4004
9354,17358186,0,-0.025673,0.02843249,-0.002091266,-0.303682,0.3034739,-9.791451,0,0,44.81852,1,1,8008,4004
9357,17360628,0,0.0121363,0.03344214,-0.007802856,-0.2720446,0.3616922,-9.795222000000001,0,0,44.81856,1,1,8008,4004
9360,17362886,0,0.03610903,0.003767175,-0.01049746,-0.2130599,0.3265306,-9.737095,0,0,44.81861,1,1,8008,4004
9392,17365894,0,-0.0006166056,-0.01152168,-0.005618228,-0.214176,0.2649954,-9.684823,0,0,44.81864,1,1,8008,4004
9395,17368299,0,-0.03771817,-0.01743966,0.003773871,-0.2016616,0.2848153,-9.666103,0,0,44.8187,1,1,8008,4004
9398,17370665,0,0.005525012,-0.0213902,0.007673884,-0.1682059,0.3638684,-9.707477000000001,0,0,44.81877,1,1,8008,4004
9401,17373162,0,0.09206729,-0.01764633,0.0155208,-0.169067,0.4159078,-9.780006,0,0,44.81887,1,1,8008,4004
9432,17375285,0,0.08443471,-0.006206286,0.02136485,-0.1897996,0.3771313,-9.777937,0,0,44.81892,1,1,8008,4004
9435,17378578,0,-0.0002160191,0.0005739449,0.01587504,-0.1669762,0.3143426,-9.724095,0,0,44.81899,1,1,8008,4004
9438,17380713,0,-0.03012686,-0.007608121,0.0005661112,-0.1428409,0.3050845,-9.735054,0,0,44.81907,1,1,8008,4004
9441,17382846,0,0.0006475155,-0.004060128,-0.01681303,-0.1715225,0.2865512,-9.853991000000001,0,0,44.81911,1,1,8008,4004
9472,17385844,0,0.0287457,0.01763173,-0.01261831,-0.2076045,0.2323622,-9.908250000000001,0,0,44.81914,1,1,8008,4004
9476,17388011,0,0.02357136,0.03372619,0.002471203,-0.1998848,0.09825676999999999,-9.832967,0,0,44.8192,1,1,8008,4004
9479,17390928,0,-0.002556735,0.005539795,0.005674708,-0.1595332,0.02063899,-9.749354,0,0,44.8193,1,1,8008,4004
9483,17393229,0,-0.0240444,-0.04500683,0.00606294,-0.169655,0.009906854999999999,-9.762897000000001,0,0,44.81944,1,1,8008,4004
9514,17395651,0,-0.01078711,-0.03477745,0.01372624,-0.2556383,0.08315694,-9.841051999999999,0,0,44.81955,1,1,8008,4004
9520,17398285,0,0.03783278,0.007092384,0.02762849,-0.3286252,0.2297495,-9.846863000000001,0,0,44.81966,1,1,8008,4004
9524,17400846,0,0.05142007,0.0008543357,0.02490253,-0.2779308,0.281662,-9.745376,0,0,44.81972,1,1,8008,4004
9527,17403388,0,0.003300376,-0.02677089,0.008566252,-0.2470047,0.2945424,-9.640864000000001,0,0,44.81983,1,1,8008,4004
9558,17405924,0,-0.04547828,0.01772651,0.0008177786,-0.3529423,0.3727891,-9.705907,0,0,44.81999,1,1,8008,4004
9562,17408024,0,-0.01066027,0.0543093,-0.0004424259,-0.3535455,0.4503064,-9.751275,0,0,44.82006,1,1,8008,4004
9565,17410717,0,0.05615903,0.04774737,-0.003572285,-0.2615342,0.4580936,-9.755144,0,0,44.82016,1,1,8008,4004
9568,17413103,0,0.07083082,-0.01657153,-0.004565962,-0.1551486,0.2990323,-9.776574,0,0,44.82027,1,1,8008,4004
9599,17415733,0,0.008608352,-0.03332882,0.004361232,-0.1824653,0.2100712,-9.856907,0,0,44.82034,1,1,8008,4004
9602,17418180,0,-0.02043999,-0.006856788,0.02155977,-0.208583,0.2691719,-9.947426,0,0,44.82047,1,1,8008,4004
9605,17421061,0,0.06454335,-0.0124939,0.02245701,-0.1413554,0.3124227,-9.876372,0,0,44.82063,1,1,8008,4004
9608,17422968,0,0.06448866,-0.03099598,0.01455087,-0.05973642,0.1777394,-9.661325,0,0,44.82078,1,1,8008,4004
9639,17425652,0,-0.003619291,-0.0224079,0.005652259,-0.111624,0.07991234,-9.588139999999999,0,0,44.82088,1,1,8008,4004
9643,17428546,0,-0.07104188,0.03697636,-0.004298921,-0.2492221,0.1339921,-9.611355,0,0,44.82103,1,1,8008,4004
9648,17430748,0,-0.02631089,0.05347796,-0.01126401,-0.2758833,0.2010452,-9.625648999999999,0,0,44.82117,1,1,8008,4004
9651,17432929,0,0.04762884,0.007239082,-0.02002786,-0.2552905,0.1433294,-9.630162,0,0,44.82135,1,1,8008,4004
9682,17435882,0,0.01877959,-0.02654584,-0.01600314,-0.2939551,0.06997615,-9.694345,0,0,44.82147,1,1,8008,4004
9686,17438102,0,-0.04778892,-0.01502747,0.007135997,-0.4119622,0.138953,-9.853496,0,0,44.82166,1,1,8008,4004
9689,17440804,0,-0.01502006,0.007730751,0.02219879,-0.4207476,0.2802462,-9.88486,0,0,44.82186,1,1,8008,4004
9692,17443010,0,0.0729445,-0.009614625,0.02629227,-0.2821791,0.3624814,-9.755912,0,0,44.82204,1,1,8008,4004
9723,17448445,0,-0.04043692,-0.01821487,-0.0004095663,-0.2038568,0.3088338,-9.685788000000001,0,0,44.82234,1,1,8008,4004
9726,17450407,0,-0.04900767,0.03332775,-0.009536817,-0.2293291,0.3905447,-9.718164,0,0,44.82252,1,1,8008,4004
9729,17452936,0,0.0328716,0.04979987,-0.02427828,-0.1237578,0.3964544,-9.662863,0,0,44.82272,1,1,8008,4004
9760,17455277,0,0.05089293,0.003628024,-0.03212756,-0.03150784,0.2755027,-9.632583,0,0,44.82286,1,1,8008,4004
9763,17458638,0,-0.02704431,-0.0269621,-0.02067933,-0.1337225,0.1399639,-9.745065,0,0,44.82302,1,1,8008,4004
9767,17460611,0,-0.0473164,0.01015422,0.0001836134,-0.2915592,0.1972685,-9.849133999999999,0,0,44.82315,1,1,8008,4004
9771,17465540,0,0.05764208,-0.06041019,0.007985186999999999,-0.1998405,0.1574425,-9.635244,0,0,44.82345,1,1,8008,4004
9802,17468172,0,-0.02271381,-0.06694748,-0.001603013,-0.2930984,0.07621931,-9.634243,0,0,44.82352,1,1,8008,4004
9806,17470885,0,-0.08158222,-0.001108408,-0.003838829,-0.4522834,0.1346103,-9.714938999999999,0,0,44.82363,1,1,8008,4004
9809,17472850,0,-0.007831812,0.08655554999999999,-0.01213911,-0.4453809,0.2753324,-9.766684,0,0,44.82376,1,1,8008,4004
9812,17476073,0,0.05912187,0.04980175,-0.02850234,-0.2781063,0.2116808,-9.728018,0,0,44.82386,1,1,8008,4004
9843,17478280,0,-0.002471954,-0.03409975,-0.03888464,-0.2070659,0.01306842,-9.773448999999999,0,0,44.82401,1,1,8008,4004
9846,17480902,0,-0.09366739,0.01693645,-0.009315456,-0.3762132,0.1050739,-9.961342,0,0,44.82413,1,1,8008,4004
9849,17483728,0,-0.03515733,0.04813837,0.008787145999999999,-0.3382823,0.2693371,-9.980817,0,0,44.82417,1,1,8008,4004
9852,17485923,0,0.07395483,-0.03789864,0.006312548,-0.06832216000000001,0.2756799,-9.778418,0,0,44.82423,1,1,8008,4004
9883,17488749,0,0.02712419,-0.09461019,-0.002108356,-0.03408852,0.1674295,-9.657708,0,0,44.82427,1,1,8008,4004
9887,17491005,0,-0.09749337,-0.01958793,0.0003264105,-0.2501987,0.2477852,-9.670214,0,0,44.82435,1,1,8008,4004
9890,17493108,0,-0.06339213,0.06056911,4.040061e-05,-0.2977667,0.4324005,-9.699488000000001,0,0,44.82439,1,1,8008,4004
9893,17496086,0,0.08058754,0.04261499,-0.0225366,-0.1333305,0.4698431,-9.649803,0,0,44.82445,1,1,8008,4004
9927,17498558,0,0.07069222999999999,-0.0122316,-0.03376861,-0.1267135,0.3166921,-9.666017,0,0,44.82449,1,1,8008,4004
9931,17501055,0,-0.06336389000000001,0.01514273,-0.01630368,-0.3896778,0.2530883,-9.887430999999999,0,0,44.82457,1,1,8008,4004
9934,17503250,0,-0.05838209,0.05982405,0.002317428,-0.4753494,0.3854742,-10.00547,0,0,44.82462,1,1,8008,4004
9937,17506259,0,0.07658561,-0.007116563,0.004931292,-0.2680505,0.4079785,-9.902412,0,0,44.82471,1,1,8008,4004
9970,17508731,0,0.08062743,-0.08846588,-0.001669916,-0.1592539,0.2214787,-9.769405000000001,0,0,44.82476,1,1,8008,4004
9974,17511128,0,-0.06000054,-0.0652592,0.006953485,-0.2796751,0.08005427,-9.725011,0,0,44.82492,1,1,8008,4004
9977,17513172,0,-0.08589694,0.02524769,0.01614417,-0.3412637,0.1762924,-9.739198,0,0,44.82503,1,1,8008,4004
9981,17515848,0,0.03929062,0.06351590999999999,-0.0007849447,-0.1637707,0.2347278,-9.652756999999999,0,0,44.82521,1,1,8008,4004
10012,17518741,0,0.0714552,0.01249215,-0.02331975,-0.0565405,0.09870682,-9.602197,0,0,44.82534,1,1,8008,4004
10015,17520816,0,-0.05455262,-0.002429926,-0.02792919,-0.2174395,-0.02943762,-9.762351000000001,0,0,44.8255,1,1,8008,4004
10018,17523644,0,-0.09810070999999999,0.04403136,-0.01141746,-0.3686818,0.1061073,-9.94983,0,0,44.82557,1,1,8008,4004
10021,17525686,0,0.01731955,0.01934696,0.004539825,-0.2745547,0.3251248,-9.980385,0,0,44.82569,1,1,8008,4004
10052,17528343,0,0.06909616,-0.075171,0.004263825,-0.1244953,0.2643598,-9.832355,0,0,44.82581,1,1,8008,4004
10056,17531546,0,-0.03011889,-0.1177308,0.01315534,-0.1815118,0.1525143,-9.70787,0,0,44.826,1,1,8008,4004
10059,17533164,0,-0.08496279,-0.02367113,0.02884403,-0.3330763,0.276769,-9.731353,0,0,44.82619,1,1,8008,4004
10062,17536217,0,0.02464603,0.09079234,0.02579944,-0.3025517,0.4970471,-9.663836,0,0,44.82636,1,1,8008,4004
10095,17538883,0,0.1057114,0.05683935,-0.001234423,-0.1509682,0.4373908,-9.567544,0,0,44.82652,1,1,8008,4004
10098,17543037,0,-0.06823991,0.0267753,-0.02261863,-0.4032956,0.2580279,-9.907919,0,0,44.82692,1,1,8008,4004
10101,17545713,0,-0.009278504,0.04294037,0.001939551,-0.38483,0.4326802,-9.987667999999999,0,0,44.82704,1,1,8008,4004
10132,17550789,0,-0.03176304,-0.1082679,0.02483772,-0.0805935,0.05367438,-9.617034,0,0,44.82739,1,1,8008,4004
10136,17553674,0,-0.07595439,0.008534102999999999,0.04233754,-0.2530829,0.04903833,-9.654158000000001,0,0,44.82747,1,1,8008,4004
10140,17556474,0,0.0391951,0.1088374,0.03076789,-0.3090196,0.2392083,-9.650608999999999,0,0,44.82758,1,1,8008,4004
10171,17559131,0,0.08104662999999999,0.01473406,-0.02248809,-0.07232703,0.1443063,-9.523419000000001,0,0,44.82767,1,1,8008,4004
10174,17561270,0,-0.01531242,-0.01414598,-0.03833432,-0.1041322,0.01494604,-9.609840999999999,0,0,44.82773,1,1,8008,4004
10178,17563369,0,-0.08535679,0.05249294,-0.01407369,-0.4242263,0.1402777,-9.981399,0,0,44.82787,1,1,8008,4004
10181,17566541,0,-0.005950229,0.0357793,0.005580619,-0.4429727,0.341107,-10.08506,0,0,44.82795,1,1,8008,4004
10212,17569020,0,0.06321016,-0.06263471,0.01341651,-0.1161491,0.3370298,-9.842854000000001,0,0,44.82806,1,1,8008,4004
10215,17571670,0,-0.006643871,-0.1322399,0.0258817,-0.1061457,0.1575394,-9.643704,0,0,44.82824,1,1,8008,4004
10218,17573760,0,-0.05750924,0.04032916,0.04924396,-0.3030586,0.2415027,-9.659098999999999,0,0,44.82835,1,1,8008,4004
10221,17576315,0,0.03005859,0.1246295,0.04161269,-0.3648433,0.4143221,-9.639597999999999,0,0,44.82841,1,1,8008,4004
10252,17579196,0,0.1202904,0.05178543,-0.01108772,-0.06516232,0.3391923,-9.496511,0,0,44.8285,1,1,8008,4004
10256,17581325,0,0.04474373,-0.00781769,-0.03720715,-0.07335504,0.2660469,-9.548940999999999,0,0,44.82853,1,1,8008,4004
10260,17583938,0,-0.07041933,0.03100727,-0.02284758,-0.3670976,0.2695981,-9.915559,0,0,44.82851,1,1,8008,4004
10263,17586079,0,-0.02383735,0.03565559,-0.0009989663000000001,-0.4427665,0.4119129,-10.04546,0,0,44.82848,1,1,8008,4004
10294,17588818,0,0.06014966,-0.07903861,0.01157404,-0.1456406,0.3588857,-9.835613,0,0,44.82835,1,1,8008,4004
10297,17591657,0,0.01301714,-0.1118729,0.01756234,-0.03065876,0.1433764,-9.677178,0,0,44.82824,1,1,8008,4004
10300,17593826,0,-0.05708921,0.02481756,0.03703767,-0.2440901,0.03920118,-9.693607999999999,0,0,44.82808,1,1,8008,4004
10303,17596578,0,-0.002188945,0.1108724,0.03422608,-0.3344844,0.1399304,-9.710122999999999,0,0,44.82801,1,1,8008,4004
10337,17599088,0,0.07639298999999999,0.05380597,-0.0130241,-0.05503504,0.05682117,-9.539638,0,0,44.82783,1,1,8008,4004
10341,17601782,0,0.01835263,-0.01535468,-0.04181759,-0.03667464,-0.006736173,-9.553585,0,0,44.82775,1,1,8008,4004
10345,17603898,0,-0.08677322,0.01115504,-0.03120334,-0.2786903,0.02945669,-9.839622,0,0,44.82757,1,1,8008,4004
10349,17606235,0,-0.04675793,0.03522897,-0.004896923,-0.4066656,0.2333823,-10.00809,0,0,44.82748,1,1,8008,4004
10380,17609295,0,0.02887144,-0.01426634,0.01354265,-0.1960934,0.3560804,-9.874801,0,0,44.82733,1,1,8008,4004
10383,17611328,0,0.009831002,-0.1159304,0.02209258,-0.05027879,0.2379706,-9.686082000000001,0,0,44.82708,1,1,8008,4004
10387,17613793,0,-0.06104255,-0.02070584,0.0333423,-0.2006641,0.199882,-9.654221,0,0,44.8269,1,1,8008,4004
10390,17616574,0,-0.006374124,0.08424465,0.03149281,-0.3431387,0.35522,-9.710907000000001,0,0,44.82684,1,1,8008,4004
10421,17619118,0,0.09698805000000001,0.07691679999999999,-0.008221819999999999,-0.1390524,0.3752969,-9.576307,0,0,44.82669,1,1,8008,4004
10424,17621645,0,0.060338,-0.004090547,-0.04026623,-0.08002674,0.3036268,-9.572647999999999,0,0,44.82663,1,1,8008,4004
10427,17623930,0,-0.05832765,-0.01831392,-0.03882359,-0.1999384,0.2375694,-9.839219999999999,0,0,44.82651,1,1,8008,4004
10430,17626076,0,-0.04682236,0.01977488,-0.0109685,-0.3618949,0.3621113,-10.04649,0,0,44.82642,1,1,8008,4004
10462,17629309,0,0.01880742,0.001708873,0.009496731,-0.2259542,0.4097584,-9.970408000000001,0,0,44.82633,1,1,8008,4004
10465,17631657,0,0.02761494,-0.09922876,0.01141088,0.01652597,0.1375558,-9.720154000000001,0,0,44.82613,1,1,8008,4004
10469,17633655,0,-0.05253316,-0.0483303,0.01278199,-0.07827908,0.04841885,-9.711316,0,0,44.82598,1,1,8008,4004
10472,17636051,0,-0.03382385,0.04999392,0.01403696,-0.2773191,0.1676439,-9.746959,0,0,44.82583,1,1,8008,4004
10503,17638861,0,0.04647626,0.06192385,-0.01281608,-0.1794314,0.1824454,-9.652635,0,0,44.82566,1,1,8008,4004
10506,17641276,0,0.02113229,-0.008841339,-0.03917752,-0.02133837,0.07520808,-9.570523,0,0,44.82555,1,1,8008,4004
10509,17648766,0,0.04088809,-0.02002537,0.006017101,-0.2006452,0.3619181,-9.921068,0,0,44.82502,1,1,8008,4004
10540,17651856,0,-0.02678067,-0.1145556,0.006892744,-0.07179571,0.2076341,-9.748487000000001,0,0,44.82483,1,1,8008,4004
10545,17654014,0,-0.08561369000000001,-0.06801771,0.0109293,-0.1617685,0.1639604,-9.707013,0,0,44.8247,1,1,8008,4004
10548,17657100,0,0.01230389,0.06896447,0.01448227,-0.3717843,0.4219622,-9.734652000000001,0,0,44.82446,1,1,8008,4004
10551,17659387,0,0.09946762000000001,0.07442237,-0.001515228,-0.2006454,0.4525028,-9.570007,0,0,44.82421,1,1,8008,4004
10583,17661769,0,0.02734731,0.004998651,-0.03195032,-0.1303377,0.2235668,-9.627934,0,0,44.82397,1,1,8008,4004
10586,17663899,0,-0.06589852,0.01793464,-0.032357,-0.3193966,0.2685585,-9.875940999999999,0,0,44.8238,1,1,8008,4004
10589,17666706,0,-0.01653275,0.04467648,-0.01169356,-0.4150274,0.4878611,-10.02627,0,0,44.82357,1,1,8008,4004
10593,17669571,0,0.05920465,-0.0191382,-0.004861843,-0.2158322,0.4005296,-9.868073000000001,0,0,44.82335,1,1,8008,4004
10624,17672175,0,-0.002274076,-0.1122114,-0.0007892467,-0.07554311,0.06874534,-9.670386000000001,0,0,44.82312,1,1,8008,4004
10628,17674070,0,-0.07548417,-0.05998486,0.01150181,-0.2223265,0.06363858999999999,-9.683332999999999,0,0,44.82296,1,1,8008,4004
10631,17676383,0,0.005757264,0.07216257,0.02241293,-0.2877397,0.2663338,-9.65537,0,0,44.82272,1,1,8008,4004
10634,17679052,0,0.08690515,0.07202835,0.008667796,-0.1194158,0.2075039,-9.572834,0,0,44.82246,1,1,8008,4004
10665,17681809,0,-0.003534746,0.01475078,-0.02240781,-0.08455683,-0.04125284,-9.670679,0,0,44.82224,1,1,8008,4004
10669,17684223,0,-0.102443,0.04036686,-0.02788183,-0.3042019,0.03160954,-9.899703000000001,0,0,44.82209,1,1,8008,4004
10672,17686896,0,-0.02149457,0.05814854,-0.01996215,-0.4283518,0.2780023,-10.04452,0,0,44.82194,1,1,8008,4004
10675,17689234,0,0.06999764999999999,-0.02718045,-0.01426722,-0.1837052,0.3594061,-9.891055,0,0,44.82163,1,1,8008,4004
10706,17692058,0,-0.02485552,-0.1272024,0.004177375,-0.09936061,0.09800146999999999,-9.697543,0,0,44.82136,1,1,8008,4004
10709,17694074,0,-0.1192612,-0.06347392,0.02635803,-0.2796596,0.1767427,-9.706390000000001,0,0,44.8212,1,1,8008,4004
10712,17696913,0,0.01154506,0.07161162,0.03953315,-0.3409066,0.5472769,-9.656824,0,0,44.82088,1,1,8008,4004
10718,17699556,0,0.1435104,0.06899901,0.02329512,-0.1849261,0.5320189,-9.54161,0,0,44.82064,1,1,8008,4004
10750,17702070,0,0.05521391,0.03092407,-0.007657505,-0.2045687,0.2335988,-9.619308999999999,0,0,44.82039,1,1,8008,4004
10754,17704623,0,-0.07325108,0.06326428000000001,-0.01600224,-0.4177771,0.2772192,-9.861929,0,0,44.82024,1,1,8008,4004
10757,17706838,0,-0.007311183,0.05741275,-0.02003433,-0.4309431,0.5742024,-10.00747,0,0,44.82004,1,1,8008,4004
10761,17710010,0,0.1003508,-0.09908224,-0.01637441,-0.1072087,0.3444183,-9.780317,0,0,44.8198,1,1,8008,4004
10792,17712675,0,0.005951101,-0.1372464,0.002859418,-0.09952382999999999,0.07355995,-9.689019,0,0,44.81969,1,1,8008,4004
10795,17715296,0,-0.09702629,-0.0004206524,0.04159619,-0.2953621,0.1393312,-9.698086,0,0,44.81955,1,1,8008,4004
10798,17717572,0,0.01514461,0.07994591,0.04497638,-0.2383911,0.2988469,-9.654779,0,0,44.81945,1,1,8008,4004
10801,17719807,0,0.1342812,0.04909397,0.01222675,-0.01990938,0.1070847,-9.6027,0,0,44.81929,1,1,8008,4004
10832,17722811,0,0.01842525,0.0280136,-0.01061361,-0.1084499,-0.09879804,-9.733378999999999,0,0,44.81919,1,1,8008,4004
10836,17724884,0,-0.1289238,0.06728207,-0.02404754,-0.4023633,0.0935571,-10.02437,0,0,44.81902,1,1,8008,4004
10839,17727829,0,-0.03356386,0.03237617,-0.02743395,-0.3476482,0.3461526,-10.03938,0,0,44.81892,1,1,8008,4004
10842,17729702,0,0.07944913000000001,-0.124577,-0.01617498,-0.08794028,0.2395006,-9.817157,0,0,44.81873,1,1,8008,4004
10873,17732620,0,-0.02069089,-0.1452894,0.01292401,-0.1456093,0.05783089,-9.717572000000001,0,0,44.81863,1,1,8008,4004
10877,17735230,0,-0.1123786,0.004982042,0.05783083,-0.3806762,0.2783421,-9.691163,0,0,44.81848,1,1,8008,4004
10880,17737677,0,0.02478808,0.07262122999999999,0.05776471,-0.3251026,0.527628,-9.624271999999999,0,0,44.81838,1,1,8008,4004
10885,17740260,0,0.1644157,0.03342158,0.01825662,-0.1482529,0.3885552,-9.534741,0,0,44.81816,1,1,8008,4004
10916,17742574,0,-0.03490603,0.03970223,-0.01345528,-0.364179,0.1897633,-9.788753,0,0,44.81805,1,1,8008,4004
10919,17744926,0,-0.09632876999999999,0.06901740000000001,-0.02548385,-0.4942209,0.4017199,-10.00731,0,0,44.818,1,1,8008,4004
10922,17751178,0,0.1062059,-0.1399023,-0.02059839,-0.06616797000000001,0.3438408,-9.832973000000001,0,0,44.81786,1,1,8008,4004
10925,17752663,0,-0.08529676999999999,-0.1018698,0.02925855,-0.1809821,0.01598608,-9.731619,0,0,44.81781,1,1,8008,4004
10957,17755128,0,-0.1114377,0.01366639,0.05245746,-0.2703301,0.1522717,-9.709630000000001,0,0,44.81776,1,1,8008,4004
10961,17757768,0,0.03344252,0.07017025,0.04493011,-0.1681294,0.3073915,-9.637012,0,0,44.81773,1,1,8008,4004
10965,17760108,0,0.1489731,0.0221851,0.001736354,-0.006196871,0.03901238,-9.574692000000001,0,0,44.81767,1,1,8008,4004
10968,17763055,0,-0.001721575,0.02060061,-0.01824978,-0.1614639,-0.1905758,-9.70931,0,0,44.81763,1,1,8008,4004
10999,17765021,0,-0.1541832,0.06796808999999999,-0.03038894,-0.4331086,0.06086178,-9.989712000000001,0,0,44.81757,1,1,8008,4004
11002,17767832,0,0.05202465,-0.04792922,-0.03632725,-0.234135,0.3754622,-9.933825000000001,0,0,44.81751,1,1,8008,4004
11005,17770201,0,0.09734925,-0.1502962,-0.01982912,-0.1224064,0.2075668,-9.781005,0,0,44.81745,1,1,8008,4004
11008,17773022,0,-0.09771328,-0.08819037,0.03967944,-0.3375087,0.03618339,-9.677789000000001,0,0,44.81735,1,1,8008,4004
11039,17775656,0,-0.1198996,0.03161562,0.06301256,-0.4399579,0.2891571,-9.660254999999999,0,0,44.81724,1,1,8008,4004
11043,17778056,0,0.124885,0.0658194,0.03510497,-0.2469352,0.5582994,-9.556084,0,0,44.81711,1,1,8008,4004
11046,17780444,0,0.1697883,0.02732239,0.0003478198,-0.1890544,0.3586829,-9.540274999999999,0,0,44.81703,1,1,8008,4004
11049,17783413,0,-0.05616045,0.05976357,-0.02908514,-0.4353818,0.1651098,-9.785999,0,0,44.81694,1,1,8008,4004
11080,17785826,0,-0.06228416,0.05899125,-0.04366898,-0.4286591,0.5250645,-9.996931999999999,0,0,44.81693,1,1,8008,4004
11083,17787761,0,0.0779111,-0.04705742,-0.04426234,-0.1997449,0.5756373,-9.946953000000001,0,0,44.81694,1,1,8008,4004
11086,17790113,0,0.1035499,-0.1387244,-0.02439514,-0.07829131,0.3141946,-9.850410999999999,0,0,44.81698,1,1,8008,4004
11089,17792879,0,-0.08826874,-0.06047956,0.03697124,-0.2369096,0.03353057,-9.770799,0,0,44.81705,1,1,8008,4004
11120,17795615,0,-0.1009632,0.04841193,0.0561222,-0.2708032,0.1704423,-9.698726000000001,0,0,44.81713,1,1,8008,4004
11124,17798136,0,0.1126432,0.06264039,0.01893207,-0.06380118,0.2393611,-9.545533000000001,0,0,44.81727,1,1,8008,4004
11131,17800462,0,0.1228405,0.02976569,-0.01631329,-0.06493324,-0.0128545,-9.571712,0,0,44.81733,1,1,8008,4004
11137,17803068,0,-0.1118087,0.07414809999999999,-0.03920978,-0.3788464,-0.1690444,-9.862887000000001,0,0,44.8174,1,1,8008,4004
11168,17805072,0,-0.1432359,0.08689102999999999,-0.04504709,-0.4457875,0.0938518,-10.01677,0,0,44.81741,1,1,8008,4004
11172,17808236,0,0.05724521,-0.0572434,-0.04467306,-0.1903033,0.3373955,-9.951302999999999,0,0,44.81738,1,1,8008,4004
11175,17810798,0,0.06967424999999999,-0.1416177,-0.01779745,-0.1261421,0.1591356,-9.825029000000001,0,0,44.81733,1,1,8008,4004
11178,17812804,0,-0.1222886,-0.04404925,0.04817202,-0.3309419,0.06281504,-9.700671,0,0,44.81718,1,1,8008,4004
11209,17815121,0,-0.1096217,0.0638089,0.06303778,-0.3526508,0.3232159,-9.627831,0,0,44.81709,1,1,8008,4004
11212,17817725,0,0.1301468,0.06735581,0.02167409,-0.1402356,0.5115556,-9.514854,0,0,44.81697,1,1,8008,4004
11215,17820849,0,0.1371583,0.03613263,-0.01267296,-0.1467847,0.3054495,-9.557694,0,0,44.81691,1,1,8008,4004
11218,17823147,0,-0.08890248000000001,0.07545266,-0.03679362,-0.3918924,0.2094052,-9.826513,0,0,44.8168,1,1,8008,4004
11249,17825141,0,-0.1014075,0.06969333,-0.04684595,-0.3724515,0.4664833,-9.951693000000001,0,0,44.81672,1,1,8008,4004
11253,17827893,0,0.08404336,-0.07616247,-0.04355099,-0.07232108,0.5746435,-9.885152,0,0,44.81661,1,1,8008,4004
11256,17830238,0,0.07271677999999999,-0.1336241,-0.01257354,-0.03014567,0.3000054,-9.790633,0,0,44.81649,1,1,8008,4004
11260,17832920,0,-0.1088657,-0.02023094,0.04996204,-0.1991816,0.1128742,-9.695684999999999,0,0,44.81639,1,1,8008,4004
11291,17835648,0,-0.07349076,0.06259539,0.05659423,-0.1745093,0.2704296,-9.631584,0,0,44.81635,1,1,8008,4004
11294,17838142,0,0.1296027,0.04532782,0.01059233,-0.01110218,0.2470305,-9.569043000000001,0,0,44.81629,1,1,8008,4004
11297,17840110,0,0.08851564000000001,0.02511664,-0.01978673,-0.08633789,-0.0223079,-9.638885,0,0,44.81625,1,1,8008,4004
11300,17842889,0,-0.1342566,0.05844758,-0.04025904,-0.3282742,-0.07641169,-9.863130999999999,0,0,44.81615,1,1,8008,4004
11331,17845049,0,-0.1117866,0.03525267,-0.04687384,-0.2985797,0.1953499,-9.950098000000001,0,0,44.8161,1,1,8008,4004
11335,17851675,0,-0.027594,-0.09751530999999999,0.03397595,-0.1953009,0.07509383,-9.756989000000001,0,0,44.81588,1,1,8008,4004
11338,17853066,0,-0.1238049,-0.01558777,0.06542031,-0.2730671,0.1548975,-9.673616000000001,0,0,44.81584,1,1,8008,4004
11369,17855661,0,0.021805,0.04189121,0.04601196,-0.1788169,0.4964752,-9.574721,0,0,44.81578,1,1,8008,4004
11373,17858072,0,0.1390344,0.02182913,0.01060873,-0.1351697,0.4708891,-9.553525,0,0,44.81576,1,1,8008,4004
11376,17861076,0,0.01315208,0.03939476,-0.02329613,-0.2950704,0.2236954,-9.686612,0,0,44.81573,1,1,8008,4004
11379,17863018,0,-0.1004803,0.06559934000000001,-0.03413049,-0.3790043,0.315805,-9.840776999999999,0,0,44.81571,1,1,8008,4004
11411,17865650,0,0.01287279,-0.01042344,-0.04368795,-0.2350423,0.6280177,-9.932617,0,0,44.81567,1,1,8008,4004
11414,17868069,0,0.1032893,-0.09516545,-0.02807769,-0.1244242,0.5396816,-9.881603,0,0,44.81565,1,1,8008,4004
11417,17870883,0,-0.01791415,-0.08670422,0.03038594,-0.1722962,0.1870011,-9.790327,0,0,44.81559,1,1,8008,4004
11420,17874003,0,-0.0989133,-0.008290884,0.05634096,-0.2115402,0.1901661,-9.743930000000001,0,0,44.81556,1,1,8008,4004
11423,17875933,0,0.04531502,0.03875048,0.03479511,-0.1056286,0.3415835,-9.654819,0,0,44.81548,1,1,8008,4004
11454,17878099,0,0.1276145,0.01742435,0.003153434,-0.05915853,0.2017358,-9.622112,0,0,44.81544,1,1,8008,4004
11458,17880666,0,-0.02436881,0.0270601,-0.02485161,-0.1915826,-0.08725856999999999,-9.725168,0,0,44.81538,1,1,8008,4004
11461,17883305,0,-0.1232349,0.04512772,-0.03277209,-0.2745182,0.01487834,-9.850152,0,0,44.81536,1,1,8008,4004
11464,17885808,0,-0.004392497,-0.0160745,-0.03202022,-0.1918451,0.334383,-9.926214999999999,0,0,44.81532,1,1,8008,4004
11495,17888622,0,0.07348792,-0.08500341,-0.01092513,-0.1214061,0.3012379,-9.880692,0,0,44.8153,1,1,8008,4004
11499,17890621,0,-0.0366719,-0.08131492999999999,0.04170827,-0.1927901,0.1261897,-9.779018000000001,0,0,44.81526,1,1,8008,4004
11502,17893226,0,-0.09159159,-0.01960685,0.05974294,-0.2539639,0.2445095,-9.723331999999999,0,0,44.81524,1,1,8008,4004
11506,17895577,0,0.05783264,0.02694824,0.03773091,-0.2139491,0.505827,-9.629592000000001,0,0,44.81524,1,1,8008,4004
11537,17898638,0,0.1296406,0.0203928,0.009777667,-0.1943187,0.4316619,-9.594822000000001,0,0,44.81524,1,1,8008,4004
11544,17901054,0,-0.001244034,0.040282,-0.01714769,-0.3093519,0.238706,-9.723962999999999,0,0,44.81524,1,1,8008,4004
11548,17903108,0,-0.06858619000000001,0.05635442,-0.02735487,-0.3775175,0.3554145,-9.884296000000001,0,0,44.81524,1,1,8008,4004
11551,17905593,0,0.051463,-0.008000458,-0.02872375,-0.2809833,0.5752337,-9.958444999999999,0,0,44.81524,1,1,8008,4004
11582,17908069,0,0.09848105,-0.07369114,-0.01037552,-0.1862024,0.4337224,-9.86835,0,0,44.81524,1,1,8008,4004
11586,17910904,0,-0.03436467,-0.06769174999999999,0.03082528,-0.1967448,0.1286012,-9.713656,0,0,44.81524,1,1,8008,4004
11589,17913573,0,-0.07675058,-0.01032886,0.04158165,-0.2212708,0.1724998,-9.650995999999999,0,0,44.81525,1,1,8008,4004
11592,17915763,0,0.07693835,0.03386911,0.02188731,-0.150568,0.2838157,-9.585305,0,0,44.81529,1,1,8008,4004
11623,17917929,0,0.120169,0.03473257,0.001869843,-0.1294568,0.1136646,-9.595777999999999,0,0,44.81531,1,1,8008,4004
11626,17920925,0,-0.04694147,0.05436669,-0.02066453,-0.2467104,-0.1210693,-9.751754999999999,0,0,44.81533,1,1,8008,4004
11629,17923336,0,-0.1098388,0.05510223,-0.03318863,-0.3069069,0.01080667,-9.874708,0,0,44.81537,1,1,8008,4004
11632,17926084,0,0.02106131,-0.02053677,-0.03524306,-0.2413956,0.2536316,-9.908008000000001,0,0,44.8154,1,1,8008,4004
11663,17928144,0,0.06233509,-0.06914254,-0.01274462,-0.2066492,0.1686078,-9.840679,0,0,44.81542,1,1,8008,4004
11667,17930700,0,-0.06566289,-0.04277892,0.03344145,-0.2740525,0.04035869,-9.73329,0,0,44.81546,1,1,8008,4004
11670,17933091,0,-0.08748835000000001,0.001136997,0.04397066,-0.2926075,0.2045467,-9.686171999999999,0,0,44.81548,1,1,8008,4004
11673,17935814,0,0.07602771,0.02114536,0.02203837,-0.2426912,0.4362096,-9.63842,0,0,44.81552,1,1,8008,4004
11704,17938679,0,0.1128764,0.02949568,0.0029611,-0.2582445,0.3420579,-9.643618,0,0,44.81554,1,1,8008,4004
11709,17941314,0,-0.02779634,0.06113508,-0.01867784,-0.3387502,0.2308195,-9.765516999999999,0,0,44.81557,1,1,8008,4004
11712,17943213,0,-0.05503157,0.05461656,-0.03322677,-0.3335974,0.3953463,-9.878923,0,0,44.81559,1,1,8008,4004
11715,17945355,0,0.0729882,-0.01736928,-0.03483716,-0.2438184,0.5557047000000001,-9.916456,0,0,44.81564,1,1,8008,4004
11746,17947926,0,0.07710868999999999,-0.06021711,-0.01418186,-0.1960422,0.3837641,-9.837861,0,0,44.81565,1,1,8008,4004
11750,17954367,0,-0.07441425,-0.01510528,0.02343369,-0.1561102,0.2167975,-9.666312,0,0,44.8157,1,1,8008,4004
11753,17955751,0,0.09078797,0.02839623,0.007206146,-0.1543593,0.2645195,-9.657645,0,0,44.81572,1,1,8008,4004
11784,17958661,0,0.1067932,0.04710034,-0.003358796,-0.1715249,0.07696727,-9.697436,0,0,44.81572,1,1,8008,4004
11788,17961116,0,-0.0592605,0.06017777,-0.01953886,-0.2309615,-0.1030547,-9.852762999999999,0,0,44.81572,1,1,8008,4004
11791,17963927,0,-0.09834233000000001,0.03578534,-0.03428454,-0.2640973,0.03889752,-9.948266,0,0,44.81571,1,1,8008,4004
11794,17966575,0,0.01981021,-0.04651599,-0.03596659,-0.2334285,0.2281214,-9.907593,0,0,44.81569,1,1,8008,4004
11825,17968602,0,-0.006654744,-0.08957493,0.002173767,-0.1908157,0.05180752,-9.731748,0,0,44.81565,1,1,8008,4004
11830,17971398,0,-0.09363297,-0.05969932,0.02637665,-0.2202869,0.02618833,-9.663588000000001,0,0,44.81564,1,1,8008,4004
11833,17974115,0,-0.03196702,0.009132144999999999,0.03080277,-0.2734473,0.315892,-9.659579000000001,0,0,44.81561,1,1,8008,4004
11837,17976301,0,0.09098937,0.03112984,0.01908336,-0.2740776,0.409695,-9.668215,0,0,44.81559,1,1,8008,4004
11868,17979460,0,0.06147917,0.04316201,-0.0005141381,-0.2928785,0.2128152,-9.716635999999999,0,0,44.81554,1,1,8008,4004
11872,17981344,0,-0.05612482,0.0454983,-0.015855,-0.3391606,0.1858445,-9.811737000000001,0,0,44.81551,1,1,8008,4004
11875,17984038,0,-0.04047398,0.01017975,-0.03744439,-0.355603,0.4691384,-9.932164,0,0,44.81548,1,1,8008,4004
11878,17986799,0,0.05747897,-0.04307453,-0.03494446,-0.2904604,0.5184018,-9.899341,0,0,44.81545,1,1,8008,4004
11909,17989568,0,0.0223454,-0.08985827,-0.003742874,-0.1867104,0.2107591,-9.744571000000001,0,0,44.81541,1,1,8008,4004
11912,17991395,0,-0.07861574,-0.06443904,0.01753268,-0.1770852,0.09121767,-9.665046999999999,0,0,44.81539,1,1,8008,4004
11915,17993695,0,-0.03677122,0.007887368000000001,0.02182811,-0.1869549,0.215782,-9.622456,0,0,44.81536,1,1,8008,4004
11918,17996245,0,0.07375133,0.03516914,0.009704010000000001,-0.1672573,0.2062438,-9.632744000000001,0,0,44.81536,1,1,8008,4004
11951,17999224,0,0.03587139,0.0519278,-0.007585497,-0.1842731,-0.06743915,-9.736438,0,0,44.81536,1,1,8008,4004
11958,18001932,0,-0.08555967,0.05544336,-0.01795916,-0.2604875,-0.1105126,-9.850253,0,0,44.81538,1,1,8008,4004
11962,18003892,0,-0.08110236,0.008022837999999999,-0.03452557,-0.3139261,0.1783761,-9.932378999999999,0,0,44.81541,1,1,8008,4004
11965,18006317,0,0.01018571,-0.06461582,-0.03196167,-0.2518675,0.2742312,-9.868448000000001,0,0,44.81543,1,1,8008,4004
11996,18008874,0,-0.02100457,-0.117573,0.005782498,-0.2094749,0.1037189,-9.712179000000001,0,0,44.81547,1,1,8008,4004
11999,18012050,0,-0.1034502,-0.06846293000000001,0.03402989,-0.2763864,0.1086679,-9.645434,0,0,44.81549,1,1,8008,4004
12002,18014141,0,-0.02662713,0.02966524,0.04376073,-0.3211564,0.4170337,-9.608954000000001,0,0,44.81552,1,1,8008,4004
12005,18016238,0,0.09202108000000001,0.05209805,0.02953187,-0.2815588,0.4851136,-9.612253000000001,0,0,44.81554,1,1,8008,4004
12036,18018881,0,0.04296108,0.0599331,0.00237674,-0.3123776,0.2802523,-9.700263,0,0,44.81557,1,1,8008,4004
12040,18021291,0,-0.06744791999999999,0.06596218,-0.01685746,-0.3918205,0.2924788,-9.810575,0,0,44.81559,1,1,8008,4004
12043,18024092,0,-0.02708196,0.01558392,-0.03853663,-0.364525,0.5877404000000001,-9.908571999999999,0,0,44.81562,1,1,8008,4004
12047,18026690,0,0.06534188,-0.06350342,-0.03347122,-0.2443963,0.5954337,-9.87674,0,0,44.81564,1,1,8008,4004
12078,18028928,0,0.007168941,-0.1079263,0.01007137,-0.1656393,0.277226,-9.766078,0,0,44.81569,1,1,8008,4004
12081,18032001,0,-0.08184353,-0.05137547,0.04016509,-0.1968667,0.1996089,-9.692496999999999,0,0,44.8157,1,1,8008,4004
12084,18033789,0,0.000282813,0.03948458,0.04227839,-0.1612404,0.3271087,-9.60023,0,0,44.81573,1,1,8008,4004
12087,18039909,0,0.01721648,0.07528345,-0.009574746,-0.2046669,-0.04366658,-9.729884,0,0,44.81579,1,1,8008,4004
12091,18041680,0,-0.1081671,0.07946752999999999,-0.03310597,-0.3502512,0.06778555999999999,-9.921150000000001,0,0,44.81584,1,1,8008,4004
12122,18043891,0,-0.03757859,0.01378613,-0.04246515,-0.3005881,0.276402,-9.965783999999999,0,0,44.81589,1,1,8008,4004
12125,18046329,0,0.04553855,-0.08345344,-0.0329797,-0.2018356,0.2968369,-9.928395,0,0,44.81596,1,1,8008,4004
12128,18049633,0,-0.03506178,-0.1156499,0.021166,-0.2258261,0.09998638999999999,-9.80316,0,0,44.81617,1,1,8008,4004
12132,18052034,0,-0.1044705,-0.04080675,0.05428092,-0.2974149,0.1687425,-9.708035000000001,0,0,44.81627,1,1,8008,4004
12163,18054811,0,0.03213289,0.04867903,0.05380336,-0.2368733,0.4699472,-9.588276,0,0,44.81639,1,1,8008,4004
12166,18056867,0,0.1269632,0.0667275,0.01745979,-0.2047761,0.3611603,-9.596099000000001,0,0,44.81651,1,1,8008,4004
12169,18059109,0,0.0179852,0.09519625,-0.005189525,-0.3216205,0.2267609,-9.710735,0,0,44.81664,1,1,8008,4004
12172,18062252,0,-0.06659524999999999,0.09517425,-0.04174271,-0.3953792,0.4420228,-9.903562000000001,0,0,44.81674,1,1,8008,4004
12203,18064295,0,0.07557604,-0.05045646,-0.05381769,-0.1835148,0.5878189,-9.91395,0,0,44.81684,1,1,8008,4004
12206,18067045,0,0.07356814,-0.1313197,-0.02792943,-0.1033881,0.3784285,-9.857666,0,0,44.81691,1,1,8008,4004
12210,18069303,0,-0.03280715,-0.1104476,0.01700673,-0.1491957,0.1890085,-9.801315000000001,0,0,44.81703,1,1,8008,4004
12215,18071937,0,-0.05697698,0.01609294,0.0594228,-0.1687968,0.3000886,-9.681882999999999,0,0,44.81721,1,1,8008,4004
12246,18074889,0,0.07989122,0.05012888,0.04881459,-0.06180162,0.3678,-9.590807,0,0,44.81729,1,1,8008,4004
12249,18076773,0,0.122206,0.05550484,0.01060959,-0.05727721,0.07099055,-9.595390999999999,0,0,44.81741,1,1,8008,4004
12252,18079145,0,-0.02196486,0.08850472,-0.01118982,-0.2274472,-0.08346114,-9.726595,0,0,44.81745,1,1,8008,4004
12255,18082275,0,-0.09861859000000001,0.08776639,-0.04481323,-0.3380449,0.1692835,-9.929397,0,0,44.81745,1,1,8008,4004
12287,18084616,0,0.01457325,-0.01038934,-0.05753,-0.2189139,0.3390726,-9.956281000000001,0,0,44.81741,1,1,8008,4004
12290,18087075,0,0.0487016,-0.1549704,-0.02349965,-0.1183049,0.1526211,-9.873294,0,0,44.81735,1,1,8008,4004
12293,18089280,0,-0.06814545,-0.1276489,0.02651833,-0.2063533,0.04770551,-9.793284999999999,0,0,44.81724,1,1,8008,4004
12297,18092035,0,-0.07006498,0.006873772,0.06940438,-0.2457102,0.3256612,-9.626773,0,0,44.81709,1,1,8008,4004
12328,18094813,0,0.08680404999999999,0.04504647,0.05695195,-0.1447413,0.4801254,-9.513025000000001,0,0,44.817,1,1,8008,4004
12331,18097074,0,0.1349132,0.05809735,0.01367101,-0.1522857,0.2741924,-9.510744000000001,0,0,44.81687,1,1,8008,4004
12334,18099828,0,-0.004201677,0.09341685,-0.012404,-0.3135632,0.1846081,-9.667026999999999,0,0,44.81677,1,1,8008,4004
12340,18102089,0,-0.05441368,0.08502857,-0.05378906,-0.3906735,0.4920548,-9.907888,0,0,44.8167,1,1,8008,4004
