LineNo,TimeUS,I,GyrX,GyrY,GyrZ,AccX,AccY,AccZ,EG,EA,T,GH,AH,GHz,AHz
187,15037020,2,0.0007416745,-0.003342959,-0.002606827,-0.1723803,0.1866358,-9.805695999999999,0,0,40.61849,1,1,7761,3880
218,15039579,2,0.000256208,-0.002746671,-0.002661696,-0.1727972,0.1863374,-9.809806999999999,0,0,40.61848,1,1,7761,3880
290,15071017,2,0.002161993,-0.0007200799,0.002032657,-0.1730679,0.1875498,-9.842299000000001,0,0,40.61806,1,1,7761,3880
321,15073159,2,-0.0002897377,-0.002140752,0.00179433,-0.1737031,0.1892829,-9.842796,0,0,40.61802,1,1,7761,3880
401,15090845,2,0.003663984,0.0003112101,0.001631395,-0.162369,0.2173352,-9.834991,0,0,40.61826,1,1,7761,3880
516,15112284,2,-0.0002901902,0.0009469673,0.003572828,-0.1708219,0.1908838,-9.811493,0,0,40.61917,1,1,7761,3880
632,15132723,2,0.0008446279,0.002313211,0.0002179871,-0.1557892,0.2071086,-9.827999,0,0,40.62035,1,1,7761,3880
745,15149017,2,-0.0003998308,0.001550091,-0.0008997182,-0.1711966,0.2064747,-9.846318999999999,0,0,40.62112,1,1,7761,3880
858,15164609,2,0.000667031,-0.000617141,-0.0009036219,-0.1573926,0.2218068,-9.839840000000001,0,0,40.62179,1,1,7761,3880
971,15182013,2,-0.0001235509,-0.001824117,-0.003583883,-0.1568996,0.2234454,-9.830769999999999,0,0,40.62243,1,1,7761,3880
1084,15203857,2,0.0006173935,-0.002076796,0.001232114,-0.1509212,0.1973996,-9.813981999999999,0,0,40.62304,1,1,7761,3880
1199,15256035,2,-0.0005204124,-0.0007464711,0.00257838,-0.1686223,0.1751066,-9.815415,0,0,40.62385,1,1,7761,3880
1202,15259852,2,0.001138203,-0.0003534085,0.00236675,-0.1722682,0.1772143,-9.802201,0,0,40.62395,1,1,7761,3880
1311,15329590,2,0.001693901,0.0006994542,-0.001357588,-0.1700029,0.2190342,-9.815448,0,0,40.62517,1,1,7761,3880
1405,15386314,2,-0.001595065,0.003016038,0.001089448,-0.1755709,0.1940659,-9.830037000000001,0,0,40.62445,1,1,7761,3880
1494,15400621,2,-0.0006842421,0.002115723,0.001415823,-0.172851,0.1824974,-9.816172,0,0,40.62418,1,1,7761,3880
1586,15415571,2,-0.0002542225,0.001038112,0.002453152,-0.1612068,0.1903894,-9.813977,0,0,40.62397,1,1,7761,3880
1618,15418088,2,-0.0008730841,0.001370629,0.002486216,-0.1623921,0.190139,-9.816666,0,0,40.62391,1,1,7761,3880
1658,15421315,2,-0.002178475,0.001298345,0.0005020323,-0.1685553,0.1882427,-9.820784,0,0,40.62383,1,1,7761,3880
1661,15423801,2,-0.002310161,0.001144222,-0.001125338,-0.1727401,0.1865813,-9.821770000000001,0,0,40.6238,1,1,7761,3880
1664,15425931,2,-0.001637071,0.0009045315,-0.002184375,-0.1746151,0.1848811,-9.821707999999999,0,0,40.62375,1,1,7761,3880
1696,15428680,2,-0.001455642,-0.0003842707,-0.002865139,-0.1745496,0.183766,-9.820786999999999,0,0,40.6237,1,1,7761,3880
1699,15431597,2,-0.001089332,-0.001660799,-0.001854798,-0.1748634,0.1841877,-9.820278,0,0,40.62362,1,1,7761,3880
1702,15433929,2,-0.0008237638,-0.001704635,-0.001497986,-0.1734858,0.1837068,-9.819485999999999,0,0,40.62356,1,1,7761,3880
1706,15436260,2,-0.0005637354,-0.0008928371,-0.0008544609,-0.1708115,0.1828224,-9.818440000000001,0,0,40.6235,1,1,7761,3880
1737,15438721,2,-0.0004692488,0.000291598,-0.0008944151,-0.1641027,0.181269,-9.818489,0,0,40.62344,1,1,7761,3880
1740,15441028,2,-0.0006538613,0.0006027609,-0.0002935424,-0.1555066,0.1809267,-9.823505000000001,0,0,40.62338,1,1,7761,3880
1743,15444052,2,-0.0006242061,-0.0001898423,-0.0004246798,-0.1496994,0.1802568,-9.828884,0,0,40.62334,1,1,7761,3880
1746,15446294,2,6.607276e-05,-0.001636164,-0.0005197461,-0.1411891,0.1788788,-9.836017,0,0,40.62328,1,1,7761,3880
1778,15448620,2,-0.0003508742,-0.001789083,3.961795e-05,-0.1385752,0.1789902,-9.837631999999999,0,0,40.62325,1,1,7761,3880
1781,15451006,2,-0.0006353764999999999,-0.001347379,0.0003106137,-0.1318787,0.1812451,-9.840412000000001,0,0,40.62323,1,1,7761,3880
1784,15453572,2,-0.0005268534,-0.0009616633,-0.000386798,-0.1296482,0.1841089,-9.842724,0,0,40.62323,1,1,7761,3880
1787,15459931,2,-0.001473127,-0.002198973,-0.001461176,-0.1317392,0.1950951,-9.844336999999999,0,0,40.62328,1,1,7761,3880
1818,15462160,2,-0.001336098,-0.002821213,0.0001426866,-0.1355137,0.20001,-9.837548,0,0,40.62334,1,1,7761,3880
1821,15464629,2,-0.0005898709,-0.003161593,0.000125883,-0.1373662,0.2032431,-9.831979,0,0,40.62338,1,1,7761,3880
1824,15467749,2,8.078716e-05,-0.002319514,-0.0001101536,-0.1392186,0.2043868,-9.825881000000001,0,0,40.62344,1,1,7761,3880
1827,15470926,2,0.0008406564,-0.001718431,0.0001020791,-0.1394853,0.2035954,-9.823226,0,0,40.62348,1,1,7761,3880
1830,15472270,2,0.001481359,-0.001256819,-8.499563e-05,-0.1390209,0.2005228,-9.823566,0,0,40.62354,1,1,7761,3880
1862,15474609,2,0.000882441,-0.001086056,-0.0004274079,-0.138999,0.1980714,-9.826390999999999,0,0,40.62358,1,1,7761,3880
1865,15477154,2,0.0006412276,-0.001343954,-0.001301482,-0.140272,0.1942438,-9.829628,0,0,40.62366,1,1,7761,3880
1869,15480293,2,0.0002502128,-0.001340281,-0.0005919245,-0.141215,0.1932578,-9.831258,0,0,40.62371,1,1,7761,3880
1872,15482694,2,-0.0005195651,-0.001461869,0.0006635939,-0.1449769,0.1920149,-9.835804,0,0,40.62382,1,1,7761,3880
1904,15484839,2,0.0004981101,-0.001670063,0.0009270033,-0.1500351,0.1921623,-9.836364,0,0,40.62389,1,1,7761,3880
1910,15487232,2,0.001387641,-0.001613937,0.00016494,-0.153254,0.192767,-9.835281,0,0,40.62393,1,1,7761,3880
1914,15489875,2,0.0005080827,-0.001350848,-0.0005013124,-0.1567008,0.1936791,-9.833349,0,0,40.624,1,1,7761,3880
1917,15492418,2,-0.0009653875,-0.0005519403,-0.0008415375,-0.162383,0.1964322,-9.827892,0,0,40.62407,1,1,7761,3880
1948,15495129,2,0.0002270594,-0.0004056567,-0.0007441012,-0.1669242,0.200274,-9.823817,0,0,40.62411,1,1,7761,3880
1951,15497699,2,0.002159743,-0.0007961731,0.0009794792,-0.1715977,0.206892,-9.820731,0,0,40.62418,1,1,7761,3880
1954,15499665,2,0.002313659,-0.0007638622,0.002158597,-0.1735339,0.21015,-9.822167,0,0,40.62422,1,1,7761,3880
1957,15502198,2,0.001747959,-0.0007703405,0.00165663,-0.1730227,0.2139635,-9.826248,0,0,40.62429,1,1,7761,3880
1989,15504665,2,0.001275941,-0.0002783789,0.001061321,-0.1712287,0.2145199,-9.828087999999999,0,0,40.62433,1,1,7761,3880
1992,15507825,2,0.001706969,0.0003390666,-0.0007549977,-0.1689672,0.2147943,-9.83337,0,0,40.62439,1,1,7761,3880
1995,15510018,2,0.00216805,0.0003831555,-0.002402851,-0.1672551,0.2141908,-9.837139000000001,0,0,40.62441,1,1,7761,3880
1998,15512587,2,0.001997943,-0.0003501232,-0.002325804,-0.1650001,0.2120546,-9.840458999999999,0,0,40.62445,1,1,7761,3880
2029,15514674,2,0.0009750457,-0.0004899113,-0.001103833,-0.1609874,0.2067658,-9.843389999999999,0,0,40.62449,1,1,7761,3880
2032,15517329,2,0.0003624759,-0.0004552198,-0.0003993843,-0.157965,0.2037229,-9.845765,0,0,40.62452,1,1,7761,3880
2035,15520125,2,0.0008309129,0.0001165726,0.0004833049,-0.1558826,0.2013353,-9.847294,0,0,40.62455,1,1,7761,3880
2039,15522782,2,0.002147955,0.000614837,0.001026055,-0.1548192,0.199068,-9.848865999999999,0,0,40.62458,1,1,7761,3880
2072,15524880,2,0.002211354,0.0002118658,8.118161e-05,-0.1569575,0.1984415,-9.848795000000001,0,0,40.62463,1,1,7761,3880
2076,15527368,2,0.001604133,-0.0008108186,4.679479e-05,-0.1589883,0.1985053,-9.846629999999999,0,0,40.62468,1,1,7761,3880
2079,15529632,2,0.001719945,-0.001171082,6.017853e-05,-0.1615513,0.2000825,-9.844360999999999,0,0,40.62473,1,1,7761,3880
2082,15536313,2,0.003280417,0.001521142,-4.45789e-05,-0.1703266,0.2057852,-9.846050999999999,0,0,40.62489,1,1,7761,3880
2085,15537825,2,0.001679388,0.001658631,-0.0002174062,-0.1717672,0.2060989,-9.849005,0,0,40.62493,1,1,7761,3880
2119,15540310,2,0.0009042444,0.0006150394,-0.0009604258,-0.1743178,0.2060333,-9.84985,0,0,40.625,1,1,7761,3880
2122,15543080,2,0.0003695494,-0.0003752208,-0.001852081,-0.1752203,0.2050798,-9.848217999999999,0,0,40.62506,1,1,7761,3880
2125,15545098,2,-0.0002839105,-0.0009539588,-0.001450811,-0.1752996,0.204667,-9.846875000000001,0,0,40.62515,1,1,7761,3880
2129,15547925,2,-0.0005156267,-0.0008829311,-0.001287856,-0.1745087,0.2051307,-9.844956,0,0,40.6252,1,1,7761,3880
2160,15550619,2,-0.001776427,-0.000497019,-0.001248565,-0.1737189,0.2054455,-9.840096000000001,0,0,40.62528,1,1,7761,3880
2163,15552933,2,-0.002058076,-8.401053e-05,-0.001836215,-0.1734577,0.2055194,-9.837407000000001,0,0,40.62534,1,1,7761,3880
2166,15555582,2,-0.001549322,-0.000475214,-0.00245086,-0.1732724,0.2055508,-9.833881999999999,0,0,40.62543,1,1,7761,3880
2169,15557884,2,-0.0009808175999999999,-0.001080901,-0.001992364,-0.1738057,0.2069576,-9.831564,0,0,40.62548,1,1,7761,3880
2201,15560783,2,-0.0005952616,-0.00151277,-0.001273426,-0.1729979,0.2081794,-9.828633999999999,0,0,40.62558,1,1,7761,3880
2204,15562683,2,-0.0004395544,-0.001605444,-0.0008912199,-0.1715892,0.2075881,-9.827450000000001,0,0,40.62566,1,1,7761,3880
2207,15565225,2,-0.0004694821,-0.002142808,-0.001343297,-0.169218,0.2067529,-9.82626,0,0,40.62573,1,1,7761,3880
2210,15567818,2,-0.000216513,-0.002176953,-0.001827272,-0.1673174,0.207325,-9.825502999999999,0,0,40.62577,1,1,7761,3880
2242,15570906,2,-0.0008060078,-0.002386415,-0.001505961,-0.1664416,0.207596,-9.829718,0,0,40.62584,1,1,7761,3880
2245,15573096,2,-0.002826568,-0.002946385,-0.001379433,-0.1669539,0.206665,-9.83325,0,0,40.62589,1,1,7761,3880
2248,15575016,2,-0.003986181,-0.003392454,-0.002779081,-0.1678804,0.2053768,-9.834963,0,0,40.62594,1,1,7761,3880
2251,15577936,2,-0.003705302,-0.003054089,-0.003730698,-0.1692825,0.2054085,-9.836282000000001,0,0,40.62595,1,1,7761,3880
2282,15580106,2,-0.00264572,-0.001151631,-0.003276702,-0.172689,0.2079597,-9.835231,0,0,40.62596,1,1,7761,3880
2285,15583082,2,-0.001281173,0.0002850499,-0.002293423,-0.1757615,0.2088867,-9.834191000000001,0,0,40.62597,1,1,7761,3880
2289,15585471,2,-3.233101e-05,0.0004593417,-0.001104852,-0.180764,0.2090664,-9.833593,0,0,40.62596,1,1,7761,3880
2295,15587967,2,-0.0005367149,-0.0003429826,-0.0008404857,-0.1814427,0.2079741,-9.834196,0,0,40.62595,1,1,7761,3880
2327,15590287,2,-0.0009151341,-0.001530934,-0.0008212747,-0.1801379,0.2063683,-9.840069,0,0,40.62594,1,1,7761,3880
2331,15593117,2,-0.0006347855,-0.001821964,-0.0007383198,-0.1782059,0.205481,-9.843707,0,0,40.62594,1,1,7761,3880
2334,15595624,2,0.0001141481,-0.001256858,-0.001072876,-0.1724715,0.2048129,-9.848231999999999,0,0,40.62594,1,1,7761,3880
2337,15598166,2,0.0006533376,-0.001186199,-0.001285056,-0.1693696,0.2030683,-9.853287,0,0,40.62594,1,1,7761,3880
2368,15600582,2,-0.0005464783,-0.0009821309,-0.0008188952,-0.1662813,0.1998789,-9.857265,0,0,40.62592,1,1,7761,3880
2372,15602933,2,-0.001106291,-0.0002404231,0.0004527956,-0.1651357,0.1976596,-9.856514000000001,0,0,40.6259,1,1,7761,3880
2375,15605336,2,-0.001298459,0.0004081983,0.001682169,-0.1643369,0.1960965,-9.853652,0,0,40.62588,1,1,7761,3880
2378,15608328,2,-0.001206335,-0.0002495446,0.001555235,-0.1645096,0.1960988,-9.84895,0,0,40.62585,1,1,7761,3880
2409,15611061,2,-0.001026854,-0.001429507,0.0008685432,-0.1663371,0.1994629,-9.839055,0,0,40.6258,1,1,7761,3880
2416,15613297,2,-0.001090563,-0.002005778,0.0005440199,-0.1692005,0.20353,-9.832390999999999,0,0,40.62578,1,1,7761,3880
2419,15615677,2,-0.001069283,-0.001409599,-6.964109e-05,-0.1742759,0.2108133,-9.823035000000001,0,0,40.62573,1,1,7761,3880
2422,15618338,2,0.0002311628,-0.0002837733,3.041679e-05,-0.177243,0.2139811,-9.816770999999999,0,0,40.6257,1,1,7761,3880
2453,15621169,2,0.003109736,0.0009206970000000001,-0.0001184283,-0.1803167,0.213672,-9.811771,0,0,40.62568,1,1,7761,3880
2456,15622891,2,0.004361719,1.558888e-05,0.0001578868,-0.1800385,0.2114395,-9.810555000000001,0,0,40.62566,1,1,7761,3880
2459,15625853,2,0.003699247,-0.0005668132,0.0004853243,-0.1786131,0.2059959,-9.812336999999999,0,0,40.62564,1,1,7761,3880
2462,15628020,2,0.003066029,-0.0003889511,0.0001904427,-0.1770647,0.202148,-9.814166,0,0,40.62561,1,1,7761,3880
2493,15630615,2,0.002902508,-0.0006731513,-0.0009298699,-0.1739055,0.1978363,-9.816466,0,0,40.62555,1,1,7761,3880
2497,15637169,2,0.002917551,0.0006804848,-0.001304602,-0.1705616,0.1917721,-9.814596999999999,0,0,40.62544,1,1,7761,3880
2500,15638774,2,0.004055517,0.002581027,-0.0008526401,-0.1679264,0.1884311,-9.811947999999999,0,0,40.62538,1,1,7761,3880
2531,15641301,2,0.003983025,0.002951201,9.407588e-05,-0.1654931,0.1862594,-9.812728999999999,0,0,40.62529,1,1,7761,3880
2536,15644147,2,0.003101241,0.002722721,0.0005424021999999999,-0.1649365,0.1846288,-9.814114999999999,0,0,40.62523,1,1,7761,3880
2539,15646054,2,0.001855918,0.001747904,-0.0001072143,-0.1647924,0.1817339,-9.817159999999999,0,0,40.62515,1,1,7761,3880
2543,15648848,2,0.00104598,0.001089648,-0.001370319,-0.1646692,0.1805663,-9.819463000000001,0,0,40.62511,1,1,7761,3880
2574,15651309,2,0.001129639,0.001403459,-0.001326137,-0.1658222,0.1832101,-9.823104000000001,0,0,40.62503,1,1,7761,3880
2577,15654221,2,0.002157733,0.002979041,-0.001409268,-0.1667061,0.1871959,-9.824140999999999,0,0,40.62494,1,1,7761,3880
2580,15656614,2,0.003104358,0.002701885,-0.001212069,-0.1666905,0.1922563,-9.821909,0,0,40.62487,1,1,7761,3880
2583,15658822,2,0.003124709,0.001136661,-0.001457086,-0.165913,0.1945452,-9.818568000000001,0,0,40.62482,1,1,7761,3880
2614,15661381,2,0.003618934,-0.0003022594,-0.000451906,-0.1631214,0.1971297,-9.815474999999999,0,0,40.62474,1,1,7761,3880
2618,15663658,2,0.004349828,-0.0003272202,-0.0001100276,-0.1610953,0.197643,-9.815702,0,0,40.62469,1,1,7761,3880
2621,15666641,2,0.004621136,0.0005770542,0.0001748636,-0.158892,0.1965552,-9.822145000000001,0,0,40.6246,1,1,7761,3880
2624,15668831,2,0.004014,0.001577193,-1.461047e-05,-0.1579028,0.196604,-9.825818999999999,0,0,40.62456,1,1,7761,3880
2655,15672019,2,0.003531327,0.00229141,-0.0004639014,-0.154115,0.1986076,-9.836748,0,0,40.62447,1,1,7761,3880
2658,15673569,2,0.002925128,0.002689446,-0.000819174,-0.1515596,0.1995779,-9.842597,0,0,40.62443,1,1,7761,3880
2661,15676067,2,0.002092838,0.002824036,-0.002469055,-0.1491316,0.2011275,-9.847867000000001,0,0,40.62434,1,1,7761,3880
2664,15678808,2,0.001386943,0.001661041,-0.002733406,-0.14835,0.2009045,-9.84722,0,0,40.62431,1,1,7761,3880
2695,15681824,2,0.001117708,-8.603917000000001e-05,-0.001335448,-0.1484655,0.1992242,-9.843309,0,0,40.62426,1,1,7761,3880
2699,15684113,2,0.001455726,-0.001600443,-0.0003851306,-0.1488779,0.1980373,-9.841443,0,0,40.62423,1,1,7761,3880
2702,15686242,2,0.00199267,-0.001463499,8.017590000000001e-05,-0.1494609,0.1987404,-9.839378,0,0,40.62416,1,1,7761,3880
2709,15688877,2,0.002126443,-0.0007854819,-8.40084e-05,-0.1496656,0.2003877,-9.839065,0,0,40.62413,1,1,7761,3880
2741,15691569,2,0.001364853,-0.0004719289,-0.0005511783,-0.152352,0.2050125,-9.834379999999999,0,0,40.62407,1,1,7761,3880
2744,15694088,2,0.0005537703,-0.0008392941,-0.0007901833,-0.1547242,0.2077596,-9.828870999999999,0,0,40.62406,1,1,7761,3880
2747,15696558,2,-0.0007188852,-0.0004386275,0.0006785382,-0.1565375,0.2116074,-9.822355,0,0,40.62403,1,1,7761,3880
2750,15698848,2,-0.0009562874,-0.0002012379,0.00147909,-0.157897,0.2138011,-9.820285999999999,0,0,40.62401,1,1,7761,3880
2781,15701269,2,-0.0001391893,-0.000773662,0.001237365,-0.1589233,0.2142054,-9.819889,0,0,40.62398,1,1,7761,3880
2785,15703601,2,0.0001600715,-0.00100384,0.0007492205,-0.1588336,0.2147989,-9.821115000000001,0,0,40.62396,1,1,7761,3880
2788,15706720,2,0.0002684178,-0.001248085,9.201564e-05,-0.1566063,0.2153291,-9.822818,0,0,40.62393,1,1,7761,3880
2791,15709226,2,-0.0003855636,-0.001288441,0.0004398013,-0.155609,0.2134358,-9.824325999999999,0,0,40.62392,1,1,7761,3880
2822,15711456,2,-0.0002885994,-0.0003581201,0.0007040945,-0.1557312,0.2092679,-9.824063000000001,0,0,40.62393,1,1,7761,3880
2826,15713618,2,0.0004722049,0.0002152079,0.0004546123,-0.1560717,0.2078388,-9.823193,0,0,40.62396,1,1,7761,3880
2829,15716083,2,0.000539783,-0.0003600084,0.0006581551,-0.1569961,0.2068899,-9.823479000000001,0,0,40.62398,1,1,7761,3880
2832,15718894,2,-0.0003742681,-0.0003909494,0.0005822145,-0.1584248,0.207499,-9.82347,0,0,40.62401,1,1,7761,3880
2863,15721919,2,-0.0007377218,-0.0006704248,0.001849,-0.1601133,0.2086443,-9.824351,0,0,40.62407,1,1,7761,3880
2866,15724014,2,-0.0009123866,-0.0009700898,0.002846029,-0.1599913,0.20739,-9.823976,0,0,40.62412,1,1,7761,3880
2869,15726616,2,-0.0008779533,-0.0007510645,0.0035303,-0.1591757,0.2012445,-9.824961999999999,0,0,40.62421,1,1,7761,3880
2872,15728920,2,-0.001179537,-0.0005462975,0.002835046,-0.1588187,0.199097,-9.824892,0,0,40.62426,1,1,7761,3880
2903,15731621,2,-0.001497694,-0.0002712744,0.002021199,-0.1581741,0.1939504,-9.821548,0,0,40.62436,1,1,7761,3880
2908,15735046,2,-0.003330763,-0.0001753988,0.0007783652,-0.159054,0.1919465,-9.820859,0,0,40.62446,1,1,7761,3880
2911,15736757,2,-0.003453448,-0.000131835,0.0003700533,-0.1613862,0.1936472,-9.820316999999999,0,0,40.62458,1,1,7761,3880
2914,15738788,2,-0.003574438,-0.0009302270000000001,0.001247492,-0.1618687,0.1976731,-9.822371,0,0,40.62469,1,1,7761,3880
2947,15741585,2,-0.003210967,-0.002328917,0.002876176,-0.1604982,0.2050693,-9.825003000000001,0,0,40.62479,1,1,7761,3880
2950,15743783,2,-0.002351544,-0.002455364,0.002814367,-0.1588212,0.2084358,-9.826032,0,0,40.62486,1,1,7761,3880
2953,15746605,2,-0.002312507,-0.001935528,0.001273265,-0.1577237,0.2127745,-9.826598000000001,0,0,40.625,1,1,7761,3880
2956,15748825,2,-0.002474135,-0.001581091,0.0003229817,-0.1575715,0.2156033,-9.826066000000001,0,0,40.62507,1,1,7761,3880
2987,15751609,2,-0.00162053,-0.001554604,-0.0006074072,-0.1563699,0.2184921,-9.825346,0,0,40.62521,1,1,7761,3880
2992,15756787,2,0.000477396,-0.001629602,-0.001153203,-0.1537511,0.2162343,-9.827439,0,0,40.62545,1,1,7761,3880
2995,15758927,2,-0.0003989985,-0.001786332,5.994727e-05,-0.1529868,0.2122941,-9.829556,0,0,40.62555,1,1,7761,3880
3026,15761842,2,-0.0009947979,-0.0008293475,0.0009830111,-0.1515454,0.2081774,-9.834524,0,0,40.62561,1,1,7761,3880
3030,15764447,2,-0.00114495,-0.0001565461,0.0008164358,-0.1502503,0.2046099,-9.842369,0,0,40.62576,1,1,7761,3880
3034,15766457,2,-0.001380511,0.0002640559,0.0005498684,-0.1505289,0.202692,-9.845034999999999,0,0,40.62582,1,1,7761,3880
3037,15769297,2,-0.00122248,0.0004697673,-0.0005285721,-0.1524558,0.1996508,-9.847697999999999,0,0,40.62591,1,1,7761,3880
3068,15772097,2,-0.001213026,-0.0008078139,-0.00135464,-0.1541346,0.197966,-9.851276,0,0,40.62598,1,1,7761,3880
3071,15774076,2,-0.001897471,-0.002799043,-0.00202791,-0.1565085,0.1969095,-9.855677,0,0,40.6261,1,1,7761,3880
3074,15776781,2,-0.002287415,-0.00280913,-0.0007953685,-0.1576219,0.1987557,-9.857697,0,0,40.62616,1,1,7761,3880
3077,15779240,2,-0.00149768,-0.0009915385999999999,0.001751016,-0.1599972,0.2030024,-9.856168,0,0,40.62629,1,1,7761,3880
3108,15782128,2,-0.0004506186,0.0002350518,0.003045295,-0.1616804,0.2045875,-9.855202999999999,0,0,40.62635,1,1,7761,3880
3112,15783933,2,0.000344139,0.0019257,0.00367542,-0.1607567,0.2067499,-9.853403999999999,0,0,40.62649,1,1,7761,3880
3115,15786476,2,0.001077747,0.002201267,0.003378894,-0.1572932,0.2067689,-9.85177,0,0,40.62655,1,1,7761,3880
3121,15789552,2,0.001932774,0.001170135,0.002156495,-0.1534581,0.2050373,-9.851296,0,0,40.6266,1,1,7761,3880
3155,15792115,2,0.001781351,0.0009854492000000001,0.0007610987,-0.1517148,0.2024712,-9.851727,0,0,40.62669,1,1,7761,3880
3159,15794893,2,0.0005904834,0.0009979068000000001,-0.0004429292,-0.1523644,0.1987944,-9.852138999999999,0,0,40.62683,1,1,7761,3880
3162,15797046,2,-0.0001087321,0.0009592717,0.0001542061,-0.153402,0.1960538,-9.852577,0,0,40.62691,1,1,7761,3880
3165,15799346,2,-0.000542354,0.0005201673,0.0008094694,-0.1550552,0.1941093,-9.854678,0,0,40.62704,1,1,7761,3880
3196,15802238,2,-0.0004088719,0.0004232028,0.001198888,-0.1563745,0.1932597,-9.853954999999999,0,0,40.62713,1,1,7761,3880
3200,15804242,2,-0.0002519055,0.001277244,0.001169643,-0.1594136,0.1912226,-9.849769999999999,0,0,40.62727,1,1,7761,3880
3203,15807267,2,2.413443e-05,0.0009055034999999999,0.001909065,-0.1623534,0.1901279,-9.844526999999999,0,0,40.62735,1,1,7761,3880
3206,15809455,2,0.0005346069,0.0005768322,0.0006213229,-0.1665981,0.1878863,-9.83813,0,0,40.62746,1,1,7761,3880
3237,15812027,2,0.0005573885,0.0007912944,-0.0006714884,-0.16871,0.1862617,-9.833662,0,0,40.62754,1,1,7761,3880
3241,15814729,2,0.0008865549,0.001038463,-0.00131529,-0.1694142,0.1841893,-9.826950999999999,0,0,40.62765,1,1,7761,3880
3244,15817013,2,0.000285783,0.001353315,-0.0007708718,-0.1688747,0.1833589,-9.822622000000001,0,0,40.62772,1,1,7761,3880
3247,15820056,2,-0.0006314337,0.001803992,0.001914311,-0.1676844,0.1826185,-9.818410999999999,0,0,40.62783,1,1,7761,3880
3278,15822554,2,-0.000667763,0.001467528,0.002939169,-0.1658361,0.1837504,-9.816117999999999,0,0,40.62798,1,1,7761,3880
3283,15825083,2,-0.0004045612,0.001203822,0.00186782,-0.1650953,0.1843756,-9.815889,0,0,40.62806,1,1,7761,3880
3286,15827264,2,0.0003014534,0.0007946196,0.0009570154,-0.1634942,0.1869763,-9.813514,0,0,40.62819,1,1,7761,3880
3289,15832675,2,0.001830735,-0.0006690914,-0.00178189,-0.1638935,0.1965088,-9.81564,0,0,40.6284,1,1,7761,3880
3320,15835274,2,0.001970344,-0.001205556,-0.001485124,-0.1639843,0.2014001,-9.818265999999999,0,0,40.62853,1,1,7761,3880
3323,15841055,2,0.003296015,-0.001532923,0.0006710002,-0.1667745,0.2049266,-9.819991999999999,0,0,40.62875,1,1,7761,3880
3326,15842938,2,0.003677262,-0.001254856,0.0008596067,-0.1710299,0.2034107,-9.820541,0,0,40.62883,1,1,7761,3880
3358,15845233,2,0.002176375,-0.002532809,0.0008821798,-0.1776417,0.1991002,-9.822495,0,0,40.62896,1,1,7761,3880
3361,15847929,2,0.0009139395,-0.00318295,0.0009477517,-0.1813283,0.1958744,-9.825063,0,0,40.62903,1,1,7761,3880
3364,15850730,2,0.001415967,-0.002913563,-0.0002904941,-0.1853941,0.1918122,-9.829981,0,0,40.62914,1,1,7761,3880
3368,15853284,2,0.002157617,-0.002285856,-0.0005537564,-0.1865568,0.1895554,-9.832989,0,0,40.62925,1,1,7761,3880
3400,15855280,2,0.001212931,-0.002485286,0.0006342147,-0.1863342,0.1874714,-9.833983,0,0,40.62936,1,1,7761,3880
3403,15857900,2,-0.0006142984,-0.002622218,0.0009934384000000001,-0.1848534,0.1832522,-9.830270000000001,0,0,40.62946,1,1,7761,3880
3406,15860553,2,-0.001950598,-0.002947005,0.0008141274,-0.1832824,0.1806665,-9.826013,0,0,40.62956,1,1,7761,3880
3409,15863448,2,-0.001878528,-0.00289451,4.989583e-05,-0.1807765,0.1810282,-9.821839000000001,0,0,40.62965,1,1,7761,3880
3440,15865913,2,-0.0003223052,-0.00248029,-0.0005907789,-0.1774914,0.1866643,-9.817589999999999,0,0,40.62975,1,1,7761,3880
3443,15867866,2,0.0009690602,-0.002222824,-0.0008712549,-0.1762387,0.1925998,-9.817928,0,0,40.62981,1,1,7761,3880
3446,15870230,2,0.001664054,-0.001802703,0.0002931773,-0.1759205,0.2031244,-9.817339,0,0,40.6299,1,1,7761,3880
3449,15872892,2,0.001160687,-0.002422399,0.0008818196,-0.1761199,0.2098764,-9.817004000000001,0,0,40.62996,1,1,7761,3880
3480,15875829,2,0.0003258327,-0.002510951,0.0003976716,-0.1776374,0.2168111,-9.817335999999999,0,0,40.63006,1,1,7761,3880
3484,15878237,2,0.0004585545,-0.002339616,-0.0002964818,-0.1791665,0.2188788,-9.818561000000001,0,0,40.63013,1,1,7761,3880
3487,15880291,2,0.001752853,-0.002327944,-0.001579624,-0.1816103,0.2178356,-9.821567999999999,0,0,40.63023,1,1,7761,3880
3490,15883288,2,0.002322384,-0.002349458,-0.001883575,-0.1823754,0.215072,-9.822369999999999,0,0,40.63034,1,1,7761,3880
3521,15885332,2,0.001802668,-0.001869534,-0.0009359891,-0.1820005,0.2107032,-9.819502,0,0,40.6305,1,1,7761,3880
3524,15888544,2,0.001224915,-0.001300556,0.0001770045,-0.1807192,0.2091127,-9.818916,0,0,40.63059,1,1,7761,3880
3530,15891017,2,0.001155379,-0.001239609,0.001310472,-0.1749382,0.2032701,-9.819046,0,0,40.63078,1,1,7761,3880
3534,15893091,2,0.001292395,-0.0007146029,0.002199052,-0.1712236,0.1995931,-9.820809000000001,0,0,40.63088,1,1,7761,3880
3565,15895147,2,0.0004474509,-7.330187e-05,0.001466713,-0.1673291,0.1971334,-9.82635,0,0,40.6311,1,1,7761,3880
3569,15897880,2,-0.000485181,0.0002538864,0.0001985288,-0.1651472,0.1974328,-9.830564000000001,0,0,40.63126,1,1,7761,3880
3572,15900845,2,-0.0009939272,0.0004910868,-0.001762547,-0.1628665,0.1993337,-9.834678,0,0,40.6314,1,1,7761,3880
3575,15903274,2,-0.0006102421999999999,0.0006561087,-0.002099203,-0.1627731,0.201572,-9.837982,0,0,40.63155,1,1,7761,3880
3606,15905538,2,-0.0003736977,0.0002157047,-0.002439409,-0.1635379,0.2082139,-9.842392,0,0,40.63172,1,1,7761,3880
3610,15908037,2,-0.0006240726,3.945139e-05,-0.002645171,-0.1630021,0.2128344,-9.843109999999999,0,0,40.63182,1,1,7761,3880
3614,15910603,2,-0.001323905,0.000465179,-0.002520837,-0.1615846,0.2189963,-9.838066,0,0,40.632,1,1,7761,3880
3617,15913166,2,-0.0005908767,0.0009993862,-0.003435073,-0.1604838,0.2220872,-9.832998999999999,0,0,40.63217,1,1,7761,3880
3648,15915840,2,9.309231e-05,0.0008767254,-0.004069305,-0.1593972,0.2249324,-9.827591,0,0,40.63235,1,1,7761,3880
3651,15917978,2,-0.0003552293,0.0007022855,-0.003069087,-0.157276,0.226965,-9.821752,0,0,40.63253,1,1,7761,3880
3654,15920601,2,-0.0008248875,0.0002892527,-0.00204763,-0.1559331,0.2265573,-9.823024,0,0,40.63272,1,1,7761,3880
3659,15923221,2,-0.0007760631,-0.0001633247,-0.001648942,-0.155066,0.2250216,-9.825141,0,0,40.63293,1,1,7761,3880
3690,15925860,2,-0.0002352009,0.0001983867,-0.001309357,-0.1546894,0.2201616,-9.826241,0,0,40.63314,1,1,7761,3880
3694,15930670,2,-0.00167373,0.001576401,-0.0003767193,-0.1549992,0.2138676,-9.828163,0,0,40.63356,1,1,7761,3880
3697,15933229,2,-0.002997932,0.001391437,-0.001350029,-0.1590546,0.2093213,-9.829983,0,0,40.63377,1,1,7761,3880
3728,15938283,2,-0.002549723,0.001607484,-0.001622749,-0.1672058,0.2054869,-9.827429,0,0,40.63428,1,1,7761,3880
3731,15941014,2,-0.002478984,0.001246282,-0.001989507,-0.1682291,0.2064856,-9.827171,0,0,40.63443,1,1,7761,3880
3734,15944089,2,-0.001307624,0.0002917756,-0.002017087,-0.1666441,0.2088399,-9.827242999999999,0,0,40.63472,1,1,7761,3880
3765,15946016,2,-0.0004267528,0.0006933368,-0.00180388,-0.1619754,0.2111226,-9.825568000000001,0,0,40.63502,1,1,7761,3880
3768,15949135,2,0.0001227272,0.001609085,-0.00136474,-0.1602256,0.2119982,-9.825150000000001,0,0,40.63517,1,1,7761,3880
3772,15951654,2,0.0007133853,0.002053856,-0.0007121654,-0.1555709,0.2138842,-9.823729,0,0,40.63548,1,1,7761,3879
3776,15954019,2,0.00148395,0.002145827,-0.0001640336,-0.1534837,0.2133137,-9.82283,0,0,40.63562,1,1,7758,3879
3807,15956620,2,0.001766631,0.001651699,0.0003988348,-0.1518708,0.2123661,-9.819119000000001,0,0,40.63583,1,1,7758,3879
3810,15958882,2,0.001382063,0.0007736478,-0.0002752383,-0.1515285,0.2132847,-9.815727000000001,0,0,40.63596,1,1,7758,3879
3814,15961297,2,0.000571709,0.0001984724,-0.0006259687,-0.1543234,0.2150709,-9.811714,0,0,40.63615,1,1,7758,3879
3817,15963917,2,0.0001992377,0.0003710817,-0.001389958,-0.1577954,0.2153261,-9.813196,0,0,40.63631,1,1,7758,3879
3848,15966595,2,0.000592054,0.0002104756,-0.001891395,-0.1637479,0.2130799,-9.819644,0,0,40.63651,1,1,7758,3879
3851,15968900,2,0.0002962908,-0.0006911225999999999,-0.001607161,-0.1669587,0.2095014,-9.826184,0,0,40.6366,1,1,7758,3879
3854,15971752,2,-0.0001784864,-0.001849943,-0.001415704,-0.1685552,0.2023915,-9.834766999999999,0,0,40.63675,1,1,7758,3879
3857,15974109,2,-0.0003783202,-0.002172383,-0.001233748,-0.1684177,0.1983734,-9.837282,0,0,40.63691,1,1,7758,3879
3888,15976634,2,-0.0002280013,-0.001666927,-0.001104521,-0.167981,0.1971714,-9.835654999999999,0,0,40.63712,1,1,7758,3879
3891,15979141,2,-0.0003541003,-0.001794084,-0.0003363884,-0.1666368,0.2002914,-9.834057,0,0,40.63721,1,1,7758,3879
3895,15981641,2,-4.872078e-05,-0.001464172,0.001102736,-0.1645713,0.2047449,-9.834346,0,0,40.63734,1,1,7758,3879
3898,15983700,2,0.0003581287,-0.001580465,0.001388665,-0.1622748,0.208641,-9.834011,0,0,40.63746,1,1,7758,3879
3929,15986610,2,0.001804673,-0.001850317,0.001024695,-0.1601416,0.2133595,-9.832053,0,0,40.63758,1,1,7758,3879
3932,15989034,2,0.001961772,-0.001374602,0.0003368045,-0.1586483,0.2148934,-9.833541,0,0,40.63767,1,1,7758,3879
3938,15992089,2,0.00177158,-0.002211634,-0.0009778516000000001,-0.1580351,0.2151899,-9.836853,0,0,40.6378,1,1,7758,3879
3942,15994117,2,0.001697121,-0.00322373,-0.0009424985,-0.1580023,0.2154243,-9.837806,0,0,40.63792,1,1,7758,3879
3973,15996156,2,0.003086751,-0.004050371,0.0006618309,-0.1569387,0.214371,-9.838647999999999,0,0,40.63806,1,1,7758,3879
3976,15998916,2,0.004373688,-0.003422481,0.001965149,-0.1567039,0.2113511,-9.838949,0,0,40.63812,1,1,7758,3879
3980,16001300,2,0.004756128,-0.002464466,0.003250629,-0.1556246,0.205673,-9.839083,0,0,40.6382,1,1,7758,3879
3983,16004133,2,0.004149712,-0.00130266,0.003689104,-0.1540943,0.2010874,-9.839853,0,0,40.63828,1,1,7758,3879
4014,16006777,2,0.003270162,-3.343265e-05,0.002676216,-0.1524443,0.1942136,-9.841316000000001,0,0,40.63836,1,1,7758,3879
4017,16008857,2,0.003378879,-4.664994e-05,0.001875777,-0.1520534,0.1909616,-9.842122,0,0,40.63841,1,1,7758,3879
4020,16011316,2,0.003717676,0.0001158104,0.001458889,-0.1515913,0.1884044,-9.844592,0,0,40.6385,1,1,7758,3879
4024,16013834,2,0.00366007,2.475181e-05,0.001966365,-0.1505617,0.1851804,-9.847396,0,0,40.63861,1,1,7758,3879
4057,16016849,2,0.004075581,-0.0001887761,0.002247992,-0.1515333,0.1823764,-9.846098,0,0,40.63875,1,1,7758,3879
4060,16019047,2,0.004167884,-0.0003059167,0.00256987,-0.1531903,0.1793097,-9.842949000000001,0,0,40.6388,1,1,7758,3879
4064,16021686,2,0.003542073,-0.0002334152,0.003415779,-0.1568509,0.176449,-9.837851000000001,0,0,40.63891,1,1,7758,3879
4067,16023718,2,0.003597813,-4.96333e-06,0.002745156,-0.1588016,0.1756748,-9.835715,0,0,40.63897,1,1,7758,3879
4098,16026093,2,0.003369195,0.0006950903,0.0007911204,-0.1604792,0.1742302,-9.833435,0,0,40.63902,1,1,7758,3879
4101,16029460,2,0.002889827,0.001599417,8.965302000000001e-05,-0.1600099,0.1741833,-9.830715,0,0,40.63906,1,1,7758,3879
4105,16031333,2,0.002667912,0.001659642,-0.0009126803,-0.1588033,0.1756975,-9.825049,0,0,40.6391,1,1,7758,3879
4108,16034011,2,0.002608088,0.0008972959,-0.0008409448,-0.1584097,0.1774647,-9.820505000000001,0,0,40.63915,1,1,7758,3879
4139,16036659,2,0.003288566,0.001214425,0.001109089,-0.1577594,0.1783201,-9.814565999999999,0,0,40.63921,1,1,7758,3879
4142,16039089,2,0.003363508,0.0014129,0.002982883,-0.1564692,0.1778578,-9.812676,0,0,40.63924,1,1,7758,3879
4145,16044079,2,0.002457569,0.002205592,0.001559833,-0.1535877,0.1743824,-9.809958,0,0,40.63932,1,1,7758,3879
4176,16046894,2,0.002524339,0.001970983,0.0003986914,-0.1514093,0.173282,-9.809583,0,0,40.63935,1,1,7758,3879
4179,16048843,2,0.002740921,0.001967341,0.0002005455,-0.1484709,0.1734514,-9.812052,0,0,40.63938,1,1,7758,3879
4184,16051129,2,0.002664119,0.001494333,-0.0004478506,-0.1469959,0.1754262,-9.816936999999999,0,0,40.63942,1,1,7758,3879
4187,16054074,2,0.001967954,0.0005455332999999999,-0.001015924,-0.1469661,0.176481,-9.818172000000001,0,0,40.63946,1,1,7758,3879
4218,16056076,2,0.0001631944,0.0003943153,1.797446e-05,-0.1483089,0.1771606,-9.816592,0,0,40.63953,1,1,7758,3879
4221,16058928,2,-0.0006319575,0.0003608374,0.0005440022,-0.1517208,0.178106,-9.815735,0,0,40.6396,1,1,7758,3879
4225,16061880,2,-0.0005894082,-0.0004027266,-0.0003200036,-0.1578973,0.1786833,-9.815892,0,0,40.63965,1,1,7758,3879
4228,16065052,2,-0.0006956851,-0.001480273,-0.001250806,-0.1625217,0.1800059,-9.816414999999999,0,0,40.63973,1,1,7758,3879
4231,16066742,2,-0.002099035,-0.002423255,-0.002029276,-0.1699879,0.1840296,-9.817895999999999,0,0,40.63984,1,1,7758,3879
4262,16068897,2,-0.003926355,-0.001751346,-0.001563367,-0.175264,0.1882844,-9.820881999999999,0,0,40.63992,1,1,7758,3879
4266,16071919,2,-0.003599036,-0.001189244,-0.001750583,-0.1761244,0.1911122,-9.820228,0,0,40.63998,1,1,7758,3879
4270,16074088,2,-0.002486278,-0.0007167252,-0.001623611,-0.174825,0.1947602,-9.819307999999999,0,0,40.64009,1,1,7758,3879
4273,16077059,2,-0.001880452,-0.001093518,-0.001560933,-0.1716023,0.198968,-9.819380000000001,0,0,40.64014,1,1,7758,3879
4304,16080103,2,-0.0003268622,-0.002300093,-0.001844695,-0.1641942,0.2055935,-9.822165,0,0,40.64024,1,1,7758,3879
4307,16081322,2,-0.0004530013,-0.002920619,-0.001686345,-0.1596774,0.2095299,-9.824406,0,0,40.64032,1,1,7758,3879
4310,16084297,2,-0.001553778,-0.003093988,-0.001357293,-0.1551443,0.2119611,-9.823359999999999,0,0,40.64039,1,1,7758,3879
4313,16086912,2,-0.002310961,-0.002556267,-0.001860287,-0.1530235,0.2102638,-9.82381,0,0,40.64045,1,1,7758,3879
4344,16089603,2,-0.002746088,-0.0009916687,-0.002831208,-0.1522514,0.2072482,-9.824529999999999,0,0,40.64049,1,1,7758,3879
4351,16092574,2,-0.002910391,-0.0003813289,-0.003183817,-0.1537649,0.2064083,-9.822129,0,0,40.64051,1,1,7758,3879
4355,16094638,2,-0.002341828,9.850094999999999e-05,-0.002295701,-0.1552949,0.2055855,-9.817287,0,0,40.64053,1,1,7758,3879
4358,16096667,2,-0.001737708,-5.125519e-06,-0.001924183,-0.1553542,0.2045213,-9.814946000000001,0,0,40.64056,1,1,7758,3879
4389,16099014,2,-0.0009140127,-0.001097954,-0.001983571,-0.1561407,0.2040067,-9.812760000000001,0,0,40.6406,1,1,7758,3879
4393,16102256,2,-0.001518229,-0.001912085,-0.001400521,-0.1597863,0.2047279,-9.810261000000001,0,0,40.64064,1,1,7758,3879
4396,16104575,2,-0.003000804,-0.002587126,-0.0005296398,-0.16264,0.205327,-9.810169,0,0,40.6407,1,1,7758,3879
4399,16106850,2,-0.003444995,-0.00144303,-0.0009648059,-0.1657913,0.2060225,-9.809153999999999,0,0,40.64071,1,1,7758,3879
4430,16108963,2,-0.003055443,-0.0006979977,-0.001976277,-0.170682,0.2077094,-9.809938000000001,0,0,40.64072,1,1,7758,3879
4433,16112123,2,-0.00315336,-0.0007942992,-0.002475897,-0.1731853,0.2094133,-9.813591000000001,0,0,40.64073,1,1,7758,3879
4436,16114597,2,-0.004073604,-0.0004395241,-0.002523002,-0.1736593,0.2120409,-9.822346,0,0,40.64074,1,1,7758,3879
4439,16117216,2,-0.003913683,-0.0006418831,-0.002096404,-0.1722882,0.2128824,-9.827856000000001,0,0,40.64075,1,1,7758,3879
4470,16119307,2,-0.002588009,-0.001158368,-0.0008497618,-0.1702185,0.2155234,-9.830587,0,0,40.64075,1,1,7758,3879
4474,16121936,2,-0.001999634,-0.001103916,-0.0003899135,-0.1696172,0.2184676,-9.831104,0,0,40.64077,1,1,7758,3879
4477,16124697,2,-0.001849649,-0.00116572,-0.0001125227,-0.1678155,0.2195199,-9.832915,0,0,40.64079,1,1,7758,3879
4482,16130274,2,-0.0007402239,-0.002025241,-0.002089316,-0.1651065,0.2119781,-9.830332,0,0,40.64083,1,1,7758,3879
4485,16132450,2,-0.000262159,-0.001406655,-0.002414483,-0.1645373,0.2095919,-9.830170000000001,0,0,40.64086,1,1,7758,3879
4516,16134292,2,-0.0003695049,-0.000637203,-0.001639724,-0.1629603,0.2049967,-9.829855999999999,0,0,40.6409,1,1,7758,3879
4519,16136853,2,-0.0006477244,-0.0002411731,-0.0005144425,-0.1630936,0.2048929,-9.829826000000001,0,0,40.64092,1,1,7758,3879
4522,16140567,2,-0.001557414,0.0004325468,0.0002844048,-0.1658141,0.2047297,-9.827781,0,0,40.64094,1,1,7758,3879
4525,16143164,2,-0.001926595,0.001106776,0.0004170188,-0.1683868,0.2049436,-9.826001,0,0,40.64095,1,1,7758,3879
4528,16144575,2,-0.001599078,0.001612848,0.0008965526,-0.171648,0.2051638,-9.825639000000001,0,0,40.64094,1,1,7758,3879
4559,16147092,2,-9.78121e-05,0.0004624579,0.001749055,-0.1738001,0.2058265,-9.824911999999999,0,0,40.6409,1,1,7758,3879
4562,16149775,2,0.000904031,-0.0001860173,0.001687601,-0.1742342,0.2067934,-9.823270000000001,0,0,40.64087,1,1,7758,3879
4565,16152726,2,0.0008680943,5.152345e-05,0.001295427,-0.1737389,0.2089177,-9.820824,0,0,40.64086,1,1,7758,3879
4568,16155118,2,9.694516e-05,0.001303864,0.0004400568,-0.1720349,0.2121715,-9.817378,0,0,40.64082,1,1,7758,3879
4599,16157201,2,0.0007344897,0.002179793,0.0008612921,-0.1708786,0.2144185,-9.816666,0,0,40.64078,1,1,7758,3879
4602,16159984,2,0.001698632,0.001163495,0.001231095,-0.1701227,0.2146892,-9.819205,0,0,40.64075,1,1,7758,3879
4606,16162332,2,0.002083993,-0.0006815903,0.001863931,-0.1674511,0.2118689,-9.824718000000001,0,0,40.64072,1,1,7758,3879
4609,16165240,2,0.001356743,-0.0004814705,0.001397484,-0.1661259,0.2094591,-9.827655999999999,0,0,40.64072,1,1,7758,3879
4640,16167881,2,0.001028167,0.0001755451,-2.494352e-05,-0.166119,0.2063975,-9.828738,0,0,40.6407,1,1,7758,3879
4643,16169820,2,0.0009019279,0.001538674,-0.0008556825,-0.1669026,0.2030764,-9.827353,0,0,40.64067,1,1,7758,3879
4648,16172600,2,0.0004460607,0.002213508,-0.0006915623000000001,-0.1678177,0.1982693,-9.822016,0,0,40.64064,1,1,7758,3879
4651,16175027,2,-3.385025e-05,0.002235268,-0.0003874172,-0.1685952,0.1952326,-9.817719,0,0,40.64062,1,1,7758,3879
4682,16177935,2,0.0009412141,0.001647324,0.000131776,-0.1693611,0.1912061,-9.814996000000001,0,0,40.64055,1,1,7758,3879
4685,16180140,2,0.002150206,0.001388158,0.0003406304,-0.1702732,0.1894185,-9.81382,0,0,40.6405,1,1,7758,3879
4688,16182709,2,0.004197473,0.0007457401,0.0002829121,-0.1695715,0.1881227,-9.810184,0,0,40.64036,1,1,7758,3879
4691,16184716,2,0.005096735,0.0001945059,-0.0006705077,-0.1681543,0.1880095,-9.80823,0,0,40.64025,1,1,7758,3879
4722,16187360,2,0.003993253,-0.001207432,-0.001548101,-0.1664263,0.1894425,-9.806927,0,0,40.64016,1,1,7758,3879
4725,16190149,2,0.003129116,-0.0011478,-0.00160918,-0.1664425,0.1920203,-9.806537000000001,0,0,40.64009,1,1,7758,3879
4732,16192866,2,0.002352027,-0.0002488528,-4.840507e-05,-0.1669995,0.1969312,-9.807558999999999,0,0,40.64,1,1,7758,3879
4736,16195247,2,0.002796051,-0.0003154607,4.978343e-05,-0.1680904,0.1999717,-9.809388,0,0,40.63995,1,1,7758,3879
4767,16197457,2,0.003061644,-0.001068386,-8.058501e-05,-0.1710511,0.2023786,-9.810307999999999,0,0,40.63984,1,1,7758,3879
4770,16200101,2,0.002788392,-0.001153709,-0.0004908879000000001,-0.1729584,0.2027457,-9.809699,0,0,40.63978,1,1,7758,3879
4773,16202837,2,0.001809009,0.0001806391,-0.003257955,-0.1785166,0.2046359,-9.810430999999999,0,0,40.63966,1,1,7758,3879
4776,16204850,2,0.001770722,6.781759000000001e-05,-0.003362285,-0.1790097,0.2043427,-9.811902,0,0,40.63961,1,1,7758,3879
4807,16207880,2,0.002002722,-0.0003609956,-0.003002157,-0.1797307,0.200488,-9.816084,0,0,40.63952,1,1,7758,3879
4810,16209733,2,0.00203327,-0.0002460406,-0.00197965,-0.179258,0.1970278,-9.817447,0,0,40.63944,1,1,7758,3879
4814,16212313,2,0.001989076,-0.001383936,-0.00107921,-0.1761765,0.191414,-9.818892,0,0,40.63932,1,1,7758,3879
4818,16215179,2,0.0009770460000000001,-0.001863882,-0.0006516629,-0.1727805,0.1870975,-9.820334000000001,0,0,40.63928,1,1,7758,3879
4849,16217219,2,-0.0007125843,-0.001831533,-0.0007767156,-0.1685711,0.1821458,-9.824192,0,0,40.63921,1,1,7758,3879
4852,16219901,2,-0.001387,-0.001888849,-0.0009664549,-0.1667804,0.1806614,-9.825236,0,0,40.63918,1,1,7758,3879
4855,16222663,2,-0.001530746,-0.002301138,-0.001524288,-0.1655086,0.1809537,-9.825961,0,0,40.63911,1,1,7758,3879
4858,16225254,2,-0.001612198,-0.00234318,-0.002272461,-0.1650605,0.1822682,-9.826695000000001,0,0,40.63908,1,1,7758,3879
4889,16228018,2,-0.0001856317,-0.0006314041,-0.002560904,-0.1661656,0.1844001,-9.827686999999999,0,0,40.63899,1,1,7758,3879
4892,16229776,2,0.0008258481,0.001132858,-0.003093854,-0.1684118,0.1871318,-9.827484999999999,0,0,40.63893,1,1,7758,3879
4896,16232306,2,0.001659656,0.001524121,-0.00377355,-0.1726432,0.1904487,-9.829610000000001,0,0,40.63881,1,1,7758,3879
4899,16235553,2,0.001995822,0.0007880488,-0.004215603,-0.174976,0.1915378,-9.831289,0,0,40.63871,1,1,7758,3879
4930,16237672,2,0.001671867,0.0008176231,-0.004452712,-0.1759122,0.1909752,-9.833963000000001,0,0,40.63858,1,1,7758,3879
4933,16242724,2,0.0003555932,0.001278985,-0.004917069,-0.1702976,0.1874452,-9.846048,0,0,40.63832,1,1,7758,3879
4937,16245069,2,0.000331974,0.001270476,-0.004519915,-0.1676755,0.1864844,-9.849228,0,0,40.63818,1,1,7758,3879
4968,16249784,2,0.0001716888,0.001499313,-0.004758126,-0.1648208,0.1826434,-9.847918999999999,0,0,40.63792,1,1,7758,3879
4971,16252731,2,0.0002972247,0.0003719756,-0.00533552,-0.1624648,0.1819432,-9.847671999999999,0,0,40.63781,1,1,7758,3879
4974,16255103,2,5.749092e-05,7.056471999999999e-05,-0.005174325,-0.1609287,0.182047,-9.847163,0,0,40.63772,1,1,7758,3879
5005,16257158,2,-0.00115413,-0.0005617909,-0.004751228,-0.1626993,0.185316,-9.843648,0,0,40.6376,1,1,7758,3879
5008,16260453,2,-0.002611814,-0.0003702658,-0.003567215,-0.1638558,0.186414,-9.841891,0,0,40.63752,1,1,7758,3879
5011,16262289,2,-0.00273227,0.0002856071,-0.001493503,-0.1681946,0.1892475,-9.836126999999999,0,0,40.63741,1,1,7758,3879
5016,16264866,2,-0.0008697968,0.0006918859,-0.001206269,-0.17115,0.1907595,-9.831448,0,0,40.6373,1,1,7758,3879
5047,16268054,2,0.0008908069,0.001032186,-0.0012658,-0.1768929,0.1912186,-9.827978999999999,0,0,40.63718,1,1,7758,3879
5050,16269896,2,0.001233959,0.001465739,-0.001141664,-0.17978,0.1911022,-9.826693000000001,0,0,40.63706,1,1,7758,3879
5054,16272576,2,0.0001517198,0.001839675,-0.0004889537,-0.1802924,0.1907961,-9.823873000000001,0,0,40.63694,1,1,7758,3879
5058,16275239,2,-0.0004469857,0.00116188,-0.000109669,-0.1770265,0.1886853,-9.821619,0,0,40.63686,1,1,7758,3879
5089,16277857,2,-0.002084288,0.0005639254,3.784469e-05,-0.1682402,0.1845216,-9.817045999999999,0,0,40.63673,1,1,7758,3879
5092,16279747,2,-0.002678498,0.001146514,0.000433328,-0.1620279,0.1822036,-9.815863,0,0,40.63661,1,1,7758,3879
5095,16282270,2,-0.002347811,0.001055646,0.001252854,-0.1526008,0.1819555,-9.813211000000001,0,0,40.63646,1,1,7758,3879
5098,16284787,2,-0.002425544,0.0001585057,0.001185226,-0.1471199,0.1841906,-9.810908,0,0,40.63638,1,1,7758,3879
5129,16288033,2,-0.003388614,-0.001156386,0.001898503,-0.1418613,0.1919426,-9.810407,0,0,40.63623,1,1,7758,3879
5132,16290175,2,-0.00332227,-0.001263688,0.001654797,-0.1393858,0.1993167,-9.813409999999999,0,0,40.63614,1,1,7758,3879
5138,16292808,2,-0.002725078,-0.002023086,0.0007447958,-0.1393877,0.2072401,-9.817837000000001,0,0,40.63607,1,1,7758,3879
5143,16294869,2,-0.003071411,-0.002603317,0.0007973298,-0.140721,0.2139083,-9.820790000000001,0,0,40.63604,1,1,7758,3879
5174,16298028,2,-0.003104614,-0.001981694,0.001223294,-0.143617,0.2195189,-9.823394,0,0,40.63599,1,1,7758,3879
5177,16299672,2,-0.002110713,-0.001299612,0.001413199,-0.1458009,0.2203039,-9.824844000000001,0,0,40.63596,1,1,7758,3879
5180,16302710,2,0.0001747451,-0.001689422,0.001787092,-0.149616,0.2201396,-9.827429,0,0,40.63591,1,1,7758,3879
5184,16304940,2,0.001318522,-0.001587354,0.00324143,-0.1530968,0.2202068,-9.830401999999999,0,0,40.63588,1,1,7758,3879
5215,16307257,2,0.002187059,-0.001596201,0.004753824,-0.1566902,0.2190976,-9.835426,0,0,40.63583,1,1,7758,3879
5218,16310165,2,0.002253601,-0.001789596,0.004977759,-0.1583475,0.2169978,-9.840033999999999,0,0,40.63579,1,1,7758,3879
5221,16312682,2,0.001173576,-0.001255823,0.004221204,-0.1624042,0.2119069,-9.842155,0,0,40.63574,1,1,7758,3879
5225,16315228,2,0.000941562,-0.001504178,0.003119876,-0.1635498,0.2086461,-9.840607,0,0,40.6357,1,1,7758,3879
5256,16317275,2,7.833033e-05,-0.002631048,0.001518424,-0.1614736,0.2068635,-9.837629,0,0,40.63565,1,1,7758,3879
5259,16319794,2,0.0003661707,-0.003700787,0.0001339307,-0.1591422,0.2082104,-9.83666,0,0,40.63559,1,1,7758,3879
5262,16322821,2,0.001088739,-0.003998502,-0.0002279518,-0.1561958,0.2110025,-9.8362,0,0,40.63552,1,1,7758,3879
5265,16324906,2,0.0004800216,-0.003178479,-0.0006540668,-0.1553276,0.2111408,-9.835423,0,0,40.63549,1,1,7758,3879
5296,16327860,2,0.0006924079,-0.002312524,0.0003960395,-0.1535653,0.2102327,-9.834606000000001,0,0,40.63543,1,1,7758,3879
5301,16330026,2,0.001300359,-0.001392713,0.001532863,-0.1517629,0.2087039,-9.833734,0,0,40.63539,1,1,7758,3879
5304,16332752,2,0.0006573148,-0.0008666365,0.001694807,-0.1485088,0.2054658,-9.834860000000001,0,0,40.63532,1,1,7758,3879
5308,16337245,2,0.0005658543,-0.002923023,0.001459068,-0.1469237,0.2033762,-9.838085,0,0,40.63523,1,1,7758,3879
5339,16342279,2,0.0005794502,-0.00146086,0.00059444,-0.1545525,0.2058122,-9.844158,0,0,40.63519,1,1,7758,3879
5342,16345301,2,0.001100631,5.200056e-06,0.000578117,-0.1584729,0.2048097,-9.844443,0,0,40.63517,1,1,7758,3879
5345,16347366,2,0.001379691,0.000668833,0.0003589198,-0.1635901,0.2020404,-9.839143999999999,0,0,40.63515,1,1,7758,3879
5376,16349809,2,0.000678411,0.0007463417,-0.0004815742,-0.1664505,0.1998726,-9.837666,0,0,40.63514,1,1,7758,3879
5379,16352319,2,0.0003918567,0.0006236186,-0.001738874,-0.168299,0.1955131,-9.836864,0,0,40.63509,1,1,7758,3879
5384,16355241,2,0.0005434829,0.0002882482,-0.001917048,-0.1687063,0.1915256,-9.837565,0,0,40.63505,1,1,7758,3879
5387,16358294,2,0.0006224893,-0.0002107382,-0.0002920263,-0.1675363,0.1873703,-9.838502,0,0,40.63498,1,1,7758,3879
5390,16359645,2,0.0006057526,-0.0004167886,0.0001443569,-0.1652589,0.1840585,-9.840182,0,0,40.63493,1,1,7758,3879
5421,16362276,2,0.0003600955,-0.0007600523,9.712638e-05,-0.1633174,0.1811035,-9.843434999999999,0,0,40.63485,1,1,7758,3879
5425,16364700,2,0.0005381937,-0.0006562687,-0.0002757159,-0.1647703,0.1808124,-9.844440000000001,0,0,40.63481,1,1,7758,3879
5428,16367818,2,0.00123269,0.0004757665,-0.001741584,-0.168907,0.1828594,-9.844419,0,0,40.63472,1,1,7758,3879
5431,16370260,2,0.002445996,0.0005107509,-0.002412379,-0.1707793,0.1851951,-9.844835,0,0,40.63467,1,1,7758,3879
5462,16372585,2,0.004676954,0.0007159910999999999,-0.002636607,-0.1730255,0.1906899,-9.843794000000001,0,0,40.63459,1,1,7758,3879
5465,16374884,2,0.005566029,0.0007824225,-0.002032452,-0.1741492,0.1953268,-9.842468999999999,0,0,40.63454,1,1,7758,3879
5468,16377474,2,0.004755365,0.001505468,-0.00124283,-0.1750149,0.1995731,-9.841377,0,0,40.63447,1,1,7758,3879
5471,16380269,2,0.004332654,0.002094434,-0.00108388,-0.1736801,0.1988822,-9.84098,0,0,40.63441,1,1,7758,3879
5502,16382906,2,0.004317015,0.002517457,-0.002199133,-0.1707025,0.1955691,-9.838201,0,0,40.63433,1,1,7758,3879
5506,16384771,2,0.003984932,0.002064798,-0.00426574,-0.1689447,0.1921407,-9.833987,0,0,40.63429,1,1,7758,3879
5510,16387304,2,0.002594219,0.001469446,-0.004236489,-0.1679469,0.1885243,-9.830963000000001,0,0,40.63423,1,1,7758,3879
5513,16389672,2,0.001318024,0.001227965,-0.003065628,-0.167751,0.1857744,-9.830634,0,0,40.63419,1,1,7758,3879
5547,16393009,2,0.001129269,0.0004364523,-0.002625114,-0.165783,0.1844953,-9.829814000000001,0,0,40.63413,1,1,7758,3879
5551,16395247,2,0.001410802,-0.0001637609,-0.002020206,-0.1655276,0.1826236,-9.828268,0,0,40.63409,1,1,7758,3879
5554,16397346,2,0.001490352,-0.0002190508,-0.001136218,-0.1690419,0.181412,-9.829442,0,0,40.63404,1,1,7758,3879
5557,16399814,2,0.001205054,0.0004464736,-0.00172254,-0.1729541,0.1823415,-9.832152000000001,0,0,40.63401,1,1,7758,3879
5588,16403119,2,0.00161523,0.0006854605,-0.003743434,-0.1785552,0.1836278,-9.833943,0,0,40.63398,1,1,7758,3879
5592,16404895,2,0.002753437,0.0005449305,-0.004047117,-0.1810058,0.1841716,-9.831136000000001,0,0,40.63397,1,1,7758,3879
5596,16407846,2,0.003326567,-0.000253547,-0.003117005,-0.183937,0.1854766,-9.823840000000001,0,0,40.63393,1,1,7758,3879
5599,16409924,2,0.003015605,0.0001494693,-0.001876508,-0.1848775,0.1853582,-9.820235,0,0,40.6339,1,1,7758,3879
5630,16412309,2,0.002233067,0.0001868829,-0.0002430921,-0.1844012,0.1843571,-9.821393,0,0,40.63387,1,1,7758,3879
5634,16415081,2,0.00127522,-0.0003964301,-0.0008208,-0.183376,0.1842687,-9.824477999999999,0,0,40.63384,1,1,7758,3879
5637,16417401,2,-0.0001119094,-0.001643037,-0.001229692,-0.1822585,0.1842873,-9.82681,0,0,40.63381,1,1,7758,3879
5640,16420019,2,-0.001031833,-0.00246845,-0.001776038,-0.1808697,0.1844185,-9.826657000000001,0,0,40.6338,1,1,7758,3879
5671,16422634,2,-0.000958241,-0.002329872,-0.002294966,-0.1801693,0.1849157,-9.824615,0,0,40.6338,1,1,7758,3879
5674,16425040,2,2.478185e-05,-0.001374238,-0.002394317,-0.1797781,0.1866695,-9.824731999999999,0,0,40.63381,1,1,7758,3879
5677,16427895,2,0.001741004,-0.0001027208,-0.002222039,-0.1793046,0.1898293,-9.821135999999999,0,0,40.63382,1,1,7758,3879
5680,16429695,2,0.001575939,6.320507999999999e-05,-0.001057366,-0.1802305,0.1912117,-9.816077999999999,0,0,40.63382,1,1,7758,3879
5711,16432330,2,0.0009394442,-0.0001522414,-0.0004228039,-0.1820452,0.1938674,-9.80986,0,0,40.63385,1,1,7758,3879
5715,16440065,2,-0.000963265,-0.0024258,0.0003821436,-0.1798951,0.1949847,-9.822927999999999,0,0,40.63394,1,1,7758,3879
5746,16442768,2,-0.0003858803,-0.002011361,0.0001111665,-0.178712,0.1931528,-9.825606000000001,0,0,40.63394,1,1,7758,3879
5749,16445222,2,0.0002904726,-0.001135786,0.001480369,-0.1774393,0.1891745,-9.82776,0,0,40.63393,1,1,7758,3879
5752,16448102,2,-5.187303e-05,-0.00143537,0.002561338,-0.1769148,0.1866315,-9.828485000000001,0,0,40.63392,1,1,7758,3879
5756,16450883,2,-0.0003012624,-0.0006401279,0.003377874,-0.1770536,0.1834051,-9.829179999999999,0,0,40.63391,1,1,7758,3879
5787,16453016,2,-0.001033981,0.0003581315,0.00293414,-0.1756652,0.1775108,-9.832157,0,0,40.63391,1,1,7758,3879
5791,16455696,2,-0.001061111,0.0004246509,0.002404621,-0.1752381,0.174531,-9.836307,0,0,40.63391,1,1,7758,3879
5794,16458290,2,-0.001593008,-0.000342088,0.0006396359,-0.1752025,0.1737788,-9.843743999999999,0,0,40.6339,1,1,7758,3879
5797,16461312,2,-0.002177206,-0.001623753,0.000699098,-0.1755724,0.1757127,-9.848382000000001,0,0,40.63389,1,1,7758,3879
5828,16463869,2,-0.002125271,-0.002076396,0.00198047,-0.1767111,0.1806564,-9.850004,0,0,40.6339,1,1,7758,3879
5831,16465736,2,-0.001275781,-0.001335053,0.002085421,-0.1765365,0.1834947,-9.847097,0,0,40.63391,1,1,7758,3879
5834,16468738,2,-0.001320507,-0.001068788,0.00193643,-0.1768851,0.1866301,-9.844156,0,0,40.63393,1,1,7758,3879
5837,16470901,2,-0.001897837,-0.0006465471,0.002501168,-0.176654,0.1896688,-9.844543,0,0,40.63394,1,1,7758,3879
5868,16473624,2,-0.001703607,0.0003344477,0.002584857,-0.1735682,0.1932493,-9.846514000000001,0,0,40.63398,1,1,7758,3879
5872,16476120,2,-0.0008476655,0.0008165028,0.001287793,-0.171399,0.1971161,-9.850749,0,0,40.63399,1,1,7758,3879
5876,16478375,2,-0.0003612639,0.0005269466,0.0008076518,-0.1681103,0.2048741,-9.855866000000001,0,0,40.63401,1,1,7758,3879
5879,16480694,2,-0.001635093,0.000379828,0.001315868,-0.1672933,0.2070737,-9.855975000000001,0,0,40.63403,1,1,7758,3879
5910,16483100,2,-0.002855378,0.0001491472,0.00133348,-0.1652959,0.2103512,-9.853368,0,0,40.63404,1,1,7758,3879
5914,16486056,2,-0.002583139,0.0003994005,0.0008990935,-0.1667017,0.2111026,-9.851513000000001,0,0,40.63404,1,1,7758,3879
5917,16488409,2,-0.002078344,0.001422081,-0.0007817255,-0.1723859,0.2133379,-9.845969,0,0,40.63404,1,1,7758,3879
5921,16491058,2,-0.002246478,0.001464582,-0.001275474,-0.1766394,0.2160749,-9.839862999999999,0,0,40.63401,1,1,7758,3879
5955,16493906,2,-0.003401346,0.001592741,-0.001393334,-0.1820074,0.2187054,-9.829772,0,0,40.63396,1,1,7758,3879
5959,16495921,2,-0.00359152,0.001360791,-0.0004849774,-0.1838338,0.2201727,-9.824512,0,0,40.63393,1,1,7758,3879
5962,16498878,2,-0.002552351,0.001066888,0.0002426336,-0.1863448,0.2223666,-9.818555999999999,0,0,40.63387,1,1,7758,3879
5965,16500889,2,-0.001473447,0.0006380091,0.0006177025,-0.1874394,0.2239661,-9.815991,0,0,40.63384,1,1,7758,3879
5996,16503292,2,0.0002756923,0.0003033865,0.0003543044,-0.1876611,0.2264411,-9.813947000000001,0,0,40.6338,1,1,7758,3879
6000,16506142,2,0.0007413597000000001,0.0009758523,0.0003963565,-0.1873704,0.2284322,-9.814385,0,0,40.63379,1,1,7758,3879
6003,16508433,2,0.0009989095,0.001569685,0.0003936453,-0.183521,0.2323007,-9.816058999999999,0,0,40.63379,1,1,7758,3879
6006,16511096,2,0.001778744,0.001481857,-0.0002175737,-0.18026,0.2340551,-9.819615000000001,0,0,40.6338,1,1,7758,3879
6039,16513757,2,0.003076287,0.001767998,-0.001372494,-0.1762106,0.2343536,-9.822979999999999,0,0,40.63381,1,1,7758,3879
6042,16516245,2,0.003062661,0.002201584,-0.00137141,-0.1696144,0.2328013,-9.823238,0,0,40.63385,1,1,7758,3879
6045,16518787,2,0.0026462,0.001706116,-0.0008167936,-0.1651317,0.2305385,-9.821896000000001,0,0,40.63388,1,1,7758,3879
6048,16521212,2,0.002891868,0.001047591,-0.001581196,-0.1606564,0.2278634,-9.821749000000001,0,0,40.63394,1,1,7758,3879
6079,16524030,2,0.003845347,0.001598644,-0.002473156,-0.1600047,0.2260005,-9.822846,0,0,40.63398,1,1,7758,3879
6083,16526086,2,0.004199773,0.002177591,-0.003651557,-0.1593353,0.2233764,-9.826165,0,0,40.63405,1,1,7758,3879
6086,16529234,2,0.00406408,0.002908963,-0.003045014,-0.1587334,0.2205569,-9.827442,0,0,40.63408,1,1,7758,3879
6092,16531860,2,0.004511696,0.002612531,-0.003145774,-0.1587709,0.2162321,-9.825813,0,0,40.63417,1,1,7758,3879
6123,16534009,2,0.004057457,0.002229846,-0.003398546,-0.1596211,0.2132736,-9.819374,0,0,40.63424,1,1,7758,3879
6126,16539695,2,0.004866662,0.00171998,-0.002322455,-0.1607581,0.2090756,-9.807209,0,0,40.63434,1,1,7758,3879
6129,16541845,2,0.005967406,0.001490809,-0.002272989,-0.161265,0.2081875,-9.804766000000001,0,0,40.63438,1,1,7758,3879
6160,16543916,2,0.00634495,0.001194566,-0.003751357,-0.1607681,0.207795,-9.805113,0,0,40.63446,1,1,7758,3879
6163,16546662,2,0.005947843,0.0006397406,-0.004353738,-0.1595466,0.2071644,-9.806948999999999,0,0,40.63451,1,1,7758,3879
6166,16549549,2,0.005333214,-0.0006591018,-0.003880881,-0.156651,0.2075649,-9.810112999999999,0,0,40.63458,1,1,7758,3879
6169,16551963,2,0.005047196,-0.001755647,-0.003133936,-0.1549878,0.2087238,-9.811145,0,0,40.63462,1,1,7758,3879
6200,16555116,2,0.004445538,-0.002634801,-0.003167099,-0.1525116,0.2091425,-9.812290000000001,0,0,40.63469,1,1,7758,3879
6203,16556591,2,0.005306788,-0.002990512,-0.002875736,-0.1523846,0.2088835,-9.813867999999999,0,0,40.63473,1,1,7758,3879
6206,16559448,2,0.005801266,-0.002560757,-0.0008456961,-0.1524282,0.2092926,-9.816525,0,0,40.6348,1,1,7758,3879
6209,16562256,2,0.005256505,-0.001946524,-0.0001875815,-0.152751,0.2085173,-9.816432000000001,0,0,40.63483,1,1,7758,3879
6240,16564260,2,0.003691202,-0.001737991,0.00144877,-0.1539498,0.2069534,-9.816725999999999,0,0,40.63489,1,1,7758,3879
6244,16568118,2,0.003031984,-0.001739302,0.002264757,-0.1556214,0.2050594,-9.819966000000001,0,0,40.63491,1,1,7758,3879
6247,16569308,2,0.003599998,-0.00178818,0.00230304,-0.1574723,0.2004005,-9.828218,0,0,40.63492,1,1,7758,3879
6250,16572193,2,0.003568667,-0.001863332,0.00177156,-0.1578825,0.1965499,-9.835243,0,0,40.63493,1,1,7758,3879
6281,16574867,2,0.0007571875,-0.003083422,0.002234024,-0.1575781,0.1927173,-9.841004,0,0,40.63493,1,1,7758,3879
6285,16577060,2,-0.002126225,-0.004000691,0.001260611,-0.156705,0.1889648,-9.845014000000001,0,0,40.63494,1,1,7758,3879
6288,16579863,2,-0.003395398,-0.004766886,0.0007236726,-0.1554845,0.1820712,-9.848822,0,0,40.63497,1,1,7758,3879
6291,16582212,2,-0.003090062,-0.00523396,0.0008366851999999999,-0.1541284,0.1778481,-9.851327,0,0,40.63501,1,1,7758,3879
6322,16584582,2,-0.002549094,-0.004520036,5.908647e-05,-0.1510991,0.1721177,-9.85284,0,0,40.63507,1,1,7758,3879
6325,16587428,2,-0.003109412,-0.003555065,-0.0002398357,-0.1503577,0.1697576,-9.852949000000001,0,0,40.63512,1,1,7758,3879
6329,16589661,2,-0.005117455,-0.002755641,4.629589e-05,-0.1510148,0.1694375,-9.85413,0,0,40.63516,1,1,7758,3879
6332,16592597,2,-0.00594074,-0.00163861,0.0002993281,-0.1523248,0.1714284,-9.854927,0,0,40.63518,1,1,7758,3879
6366,16594755,2,-0.005443073,-0.0006279809,-0.0002395503,-0.1534497,0.1776578,-9.853393000000001,0,0,40.63521,1,1,7758,3879
6371,16597458,2,-0.003599552,-0.0008085100999999999,-0.001004622,-0.1541486,0.1836971,-9.849748999999999,0,0,40.63525,1,1,7758,3879
6374,16600137,2,-0.002410358,-0.0008158918,-0.002003497,-0.1553805,0.1862967,-9.846698999999999,0,0,40.63529,1,1,7758,3879
6378,16602264,2,-0.003478051,-0.0005777201,-0.001678645,-0.1583641,0.1864991,-9.845252,0,0,40.63534,1,1,7758,3879
6412,16605464,2,-0.004914557,2.756117e-06,-0.0003804603,-0.1593949,0.1851921,-9.846142,0,0,40.63538,1,1,7758,3879
6415,16607603,2,-0.007124935,0.001051309,0.002469601,-0.1610008,0.1771879,-9.852641,0,0,40.63543,1,1,7758,3879
6418,16609701,2,-0.007505257,0.001293602,0.00271866,-0.1619045,0.1708146,-9.856673000000001,0,0,40.63544,1,1,7758,3879
6422,16612841,2,-0.008955065999999999,0.002225501,0.002356834,-0.1656318,0.1627876,-9.861891,0,0,40.63546,1,1,7758,3879
6453,16615208,2,-0.01088452,0.00241455,0.001327795,-0.1713295,0.1607786,-9.867156,0,0,40.63547,1,1,7758,3879
6457,16617853,2,-0.01188572,0.002111773,6.214272e-05,-0.1758157,0.1625308,-9.866906,0,0,40.63548,1,1,7758,3879
6460,16619751,2,-0.01252119,0.002127732,-0.001216536,-0.180265,0.1662946,-9.862278,0,0,40.6355,1,1,7758,3879
6463,16622684,2,-0.01171299,0.002358688,-0.000884291,-0.1835233,0.1735881,-9.851155,0,0,40.63555,1,1,7758,3879
6494,16624653,2,-0.01030634,0.002669919,-0.0003903932,-0.1836087,0.1794412,-9.844804999999999,0,0,40.6356,1,1,7758,3879
6497,16628193,2,-0.007933384,0.003469166,-0.0003212818,-0.1830684,0.1885684,-9.838222,0,0,40.63564,1,1,7758,3879
6500,16630132,2,-0.006350003,0.003355784,-0.0008866667,-0.1825235,0.1944976,-9.837218999999999,0,0,40.63568,1,1,7758,3879
6504,16632679,2,-0.005336464,0.002921868,-0.001674347,-0.181474,0.201782,-9.841623,0,0,40.63572,1,1,7758,3879
6535,16634799,2,-0.005504937,0.0023069,-0.001795994,-0.1801895,0.2058227,-9.843324000000001,0,0,40.63573,1,1,7758,3879
6539,16639719,2,-0.004536896,0.00116435,-0.0006644973,-0.1745031,0.2151014,-9.835671,0,0,40.63583,1,1,7758,3879
6542,16644869,2,-0.002316402,0.0009668396,0.00111043,-0.1649237,0.2173695,-9.823100999999999,0,0,40.63596,1,1,7758,3879
6574,16647428,2,-0.002543522,0.0001613902,0.001347658,-0.1618901,0.2162922,-9.821688,0,0,40.636,1,1,7758,3879
6577,16650148,2,-0.003101109,-0.0005684771,0.00160114,-0.1596814,0.2142165,-9.82077,0,0,40.63603,1,1,7758,3879
6580,16652651,2,-0.002981672,-0.001437659,0.001253633,-0.1551833,0.2097464,-9.821795,0,0,40.63609,1,1,7758,3879
6583,16655163,2,-0.002329142,-0.001415693,0.001019074,-0.1531791,0.2069673,-9.823304,0,0,40.63614,1,1,7758,3879
6614,16657218,2,-0.0006946062,-0.001435218,0.0008131431,-0.1513177,0.2037154,-9.822812000000001,0,0,40.63623,1,1,7758,3879
6617,16659743,2,0.0004050474,-0.001320192,0.000353117,-0.1503202,0.2018527,-9.823289000000001,0,0,40.63628,1,1,7758,3879
6620,16662900,2,0.002155616,4.621337e-05,-0.0006559224,-0.1498682,0.2010763,-9.821628,0,0,40.63637,1,1,7758,3879
6623,16665412,2,0.003340025,0.0005749707,-0.0009696301,-0.1505925,0.2025826,-9.818661000000001,0,0,40.63647,1,1,7758,3879
6654,16667669,2,0.004295013,6.879904000000001e-05,-0.002101324,-0.1522593,0.2069844,-9.816266000000001,0,0,40.6366,1,1,7758,3879
6658,16669753,2,0.003882231,-0.0008730298,-0.002568281,-0.1532538,0.2088483,-9.816171000000001,0,0,40.63667,1,1,7758,3879
6662,16672870,2,0.004416884,-0.002201482,-0.002456436,-0.1561389,0.2147965,-9.817410000000001,0,0,40.63679,1,1,7758,3879
6665,16675233,2,0.005172647,-0.003367389,-0.002234424,-0.1585862,0.2172138,-9.818839000000001,0,0,40.63686,1,1,7758,3879
6696,16678083,2,0.006439042,-0.004154402,-0.0007234521,-0.1621708,0.2176516,-9.822117,0,0,40.63697,1,1,7758,3879
6699,16679734,2,0.007306799,-0.00406586,0.0002229772,-0.1636934,0.2153689,-9.824203000000001,0,0,40.63705,1,1,7758,3879
6702,16682252,2,0.007918357000000001,-0.003671872,0.0003042616,-0.1656515,0.2091141,-9.826254,0,0,40.63721,1,1,7758,3879
6705,16684664,2,0.008443421,-0.004069789,-0.0007111643,-0.167481,0.2037023,-9.827754000000001,0,0,40.63729,1,1,7758,3879
6736,16688099,2,0.008841015000000001,-0.005336826,-0.001262787,-0.1726563,0.1956781,-9.82804,0,0,40.6374,1,1,7758,3879
6741,16690085,2,0.008492464,-0.005870069,-0.0006033142,-0.1747103,0.191734,-9.828568000000001,0,0,40.63746,1,1,7758,3879
6744,16692630,2,0.007326925,-0.005279345,-0.0003607449,-0.1755046,0.1880202,-9.833273999999999,0,0,40.63757,1,1,7758,3879
6750,16694935,2,0.006949195,-0.004977361,-0.0006178975,-0.1753041,0.1864393,-9.837861999999999,0,0,40.63765,1,1,7758,3879
6782,16697867,2,0.006993731,-0.004481528,-0.0007361555,-0.1746372,0.1853289,-9.841988000000001,0,0,40.63774,1,1,7758,3879
6786,16700234,2,0.007264211,-0.003893668,0.0002062817,-0.1738339,0.1842044,-9.841194,0,0,40.63781,1,1,7758,3879
6789,16702741,2,0.007409309,-0.002836347,0.0001230337,-0.1721748,0.1831484,-9.837256999999999,0,0,40.63791,1,1,7758,3879
6792,16704661,2,0.007409526,-0.002680269,7.301159e-06,-0.1707705,0.1830623,-9.832489000000001,0,0,40.63797,1,1,7758,3879
6823,16707314,2,0.007489757,-0.002791609,0.0007670709,-0.1682276,0.1850455,-9.826772,0,0,40.63804,1,1,7758,3879
6827,16709681,2,0.006505408,-0.003617352,0.001353363,-0.1673463,0.1868998,-9.824558,0,0,40.63809,1,1,7758,3879
6830,16712604,2,0.006274163,-0.003664784,0.00163271,-0.1673203,0.191014,-9.824551,0,0,40.63816,1,1,7758,3879
6833,16715054,2,0.006765795,-0.002983352,0.001904709,-0.1680705,0.1950668,-9.826243,0,0,40.6382,1,1,7758,3879
6864,16718148,2,0.006805263,-0.002020987,5.239436e-05,-0.1702386,0.1998953,-9.832936,0,0,40.63826,1,1,7758,3879
6868,16719710,2,0.005801477,-0.0006303209,-0.001143035,-0.1716271,0.2022201,-9.835013999999999,0,0,40.6383,1,1,7758,3879
6871,16722255,2,0.00524241,0.001282061,-0.001958899,-0.1714041,0.2032428,-9.832385,0,0,40.63838,1,1,7758,3879
6874,16724747,2,0.004881972,0.001029122,-0.001987269,-0.1698938,0.2018379,-9.829139,0,0,40.63843,1,1,7758,3879
6905,16728018,2,0.005612059,0.002015472,-0.0008412972,-0.1696224,0.198597,-9.828529,0,0,40.63849,1,1,7758,3879
6908,16730105,2,0.005776738,0.003119856,0.0001893206,-0.1709076,0.194859,-9.830883999999999,0,0,40.63853,1,1,7758,3879
6913,16733034,2,0.004934194,0.004179198,0.0009549682,-0.1730868,0.1892101,-9.833736999999999,0,0,40.63858,1,1,7758,3879
6916,16734678,2,0.003862688,0.003723123,0.0004408603,-0.1758648,0.1817058,-9.836437,0,0,40.63863,1,1,7758,3879
6947,16737282,2,0.001962815,0.002771833,-0.0001652375,-0.1804501,0.1709231,-9.843411,0,0,40.63867,1,1,7758,3879
6951,16745263,2,-0.002636879,0.003082257,-0.002295532,-0.192818,0.1554769,-9.842428999999999,0,0,40.63882,1,1,7758,3879
6982,16747552,2,-0.003052218,0.00348078,-0.001720111,-0.1939067,0.1582379,-9.837643,0,0,40.63891,1,1,7758,3879
6985,16750119,2,-0.003137461,0.004575398,0.0002194898,-0.1934304,0.1663542,-9.832608,0,0,40.63907,1,1,7758,3879
6988,16752874,2,-0.003352033,0.005549402,0.001440807,-0.1922112,0.1741322,-9.831682000000001,0,0,40.63916,1,1,7758,3879
6991,16755584,2,-0.003055253,0.005044556,0.001046947,-0.1874606,0.1861826,-9.830071999999999,0,0,40.63929,1,1,7758,3879
7022,16758125,2,-0.002732126,0.004297449,0.0004175841,-0.1829415,0.1927878,-9.829923000000001,0,0,40.63935,1,1,7758,3879
7026,16760187,2,-0.004191762,0.003155512,-0.0004757576,-0.1784483,0.1991976,-9.830246000000001,0,0,40.63943,1,1,7758,3879
7029,16763012,2,-0.004387143,0.002327698,-0.001754893,-0.1741694,0.2046895,-9.828403,0,0,40.6395,1,1,7758,3879
7032,16765345,2,-0.003875586,0.001412568,-0.002701971,-0.1681663,0.2103462,-9.824623000000001,0,0,40.6396,1,1,7758,3879
7063,16768156,2,-0.003499407,0.001476145,-0.003145881,-0.1656496,0.2136406,-9.822131000000001,0,0,40.63964,1,1,7758,3879
7067,16770862,2,-0.002997271,0.002978906,-0.002382896,-0.1642621,0.2152529,-9.821125,0,0,40.6397,1,1,7758,3879
7070,16772899,2,-0.003128555,0.002874198,-0.00111478,-0.1639444,0.212769,-9.821629,0,0,40.63972,1,1,7758,3879
7073,16775094,2,-0.003443784,0.001284243,0.0002598404,-0.1637103,0.2072051,-9.821221,0,0,40.63972,1,1,7758,3879
7104,16777940,2,-0.003972262,4.146686e-05,0.0004478193,-0.1648054,0.2028006,-9.823057,0,0,40.63971,1,1,7758,3879
7108,16780741,2,-0.003876269,-0.0006536465,0.000407956,-0.1677496,0.1965854,-9.827652,0,0,40.63968,1,1,7758,3879
7111,16783156,2,-0.003687424,-0.0009693372,-0.0004637727,-0.1704993,0.1942513,-9.830606,0,0,40.63965,1,1,7758,3879
7114,16785295,2,-0.005038322,-0.001502637,-3.878911e-05,-0.1737713,0.1952711,-9.83447,0,0,40.6396,1,1,7758,3879
7145,16788037,2,-0.005230645,-0.001533118,0.0006834135,-0.1738659,0.1976011,-9.837318,0,0,40.63957,1,1,7758,3879
7149,16790075,2,-0.005076501,-0.001380228,0.001281837,-0.1706145,0.1987423,-9.840081,0,0,40.63951,1,1,7758,3879
7153,16792849,2,-0.004577654,-0.0009798631999999999,0.0009654972,-0.1691568,0.1987724,-9.839858,0,0,40.63947,1,1,7758,3879
7159,16795664,2,-0.003990806,-0.001028932,0.0004797411,-0.1633698,0.2001203,-9.836124999999999,0,0,40.63941,1,1,7758,3879
7193,16798660,2,-0.003949314,-0.0008413777000000001,0.0002656005,-0.1565884,0.202968,-9.835907000000001,0,0,40.63939,1,1,7758,3879
7196,16799925,2,-0.0039412,-0.0009878987999999999,-0.0005771097,-0.1533088,0.2060943,-9.838193,0,0,40.63939,1,1,7758,3879
7199,16802790,2,-0.004091523,-0.001429891,-0.001028691,-0.1505834,0.2098311,-9.838751999999999,0,0,40.63939,1,1,7758,3879
7202,16805056,2,-0.003510508,-0.002221768,-0.002039292,-0.1478354,0.2153377,-9.836028000000001,0,0,40.63942,1,1,7758,3879
7233,16808227,2,-0.002826249,-0.002584963,-0.001653651,-0.1471146,0.2181683,-9.834509000000001,0,0,40.63943,1,1,7758,3879
7238,16810785,2,-0.001793002,-0.002963703,-0.001200017,-0.1464932,0.2205331,-9.832304000000001,0,0,40.63947,1,1,7758,3879
7241,16812930,2,-0.002241978,-0.002958223,-0.0004498779,-0.1473271,0.2196388,-9.831201,0,0,40.63949,1,1,7758,3879
7244,16815083,2,-0.003481115,-0.002336233,0.000490213,-0.1474211,0.2167441,-9.831681,0,0,40.63953,1,1,7758,3879
7275,16817730,2,-0.003772472,-0.001966159,0.0006598247,-0.1483904,0.2154273,-9.832699,0,0,40.63954,1,1,7758,3879
7279,16820720,2,-0.002900615,-0.002525001,-0.0008822323,-0.1501186,0.2152373,-9.832689999999999,0,0,40.63955,1,1,7758,3879
7282,16822849,2,-0.002718229,-0.002611486,-0.001038477,-0.1509298,0.2150355,-9.830825000000001,0,0,40.63955,1,1,7758,3879
7285,16825587,2,-0.002491373,-0.002725256,-0.0005421125,-0.1519123,0.2159561,-9.826388,0,0,40.63952,1,1,7758,3879
7316,16827701,2,-0.001752414,-0.002541728,-0.0004328798,-0.1526378,0.2189708,-9.819447,0,0,40.6395,1,1,7758,3879
7319,16830589,2,-0.0002462463,-0.002381927,-0.0003320789,-0.1519296,0.2244622,-9.807407,0,0,40.63945,1,1,7758,3879
7322,16833213,2,0.001686206,-0.001220695,0.0004378232,-0.149747,0.2272483,-9.80194,0,0,40.63942,1,1,7758,3879
7325,16835626,2,0.003506326,0.0004465459,0.00110198,-0.1456018,0.2311663,-9.798833,0,0,40.63933,1,1,7758,3879
7356,16838209,2,0.004538141,0.001110651,0.0004959084,-0.1439072,0.232958,-9.796343999999999,0,0,40.63928,1,1,7758,3879
7360,16840186,2,0.006410231,0.001902556,0.0001403753,-0.1441375,0.231951,-9.799699,0,0,40.63921,1,1,7758,3879
7363,16843001,2,0.00689288,0.002060976,-0.0006956057,-0.1452279,0.2317612,-9.805699000000001,0,0,40.63915,1,1,7758,3879
7366,16845065,2,0.006508176,0.001575961,-0.002225311,-0.1452572,0.2302824,-9.817227000000001,0,0,40.63906,1,1,7758,3879
7397,16848965,2,0.006196628,0.0007353642,-0.001983613,-0.145605,0.2275607,-9.825889999999999,0,0,40.639,1,1,7758,3879
7400,16853363,2,0.006359526,0.00139764,0.001898737,-0.1490485,0.2150085,-9.840509000000001,0,0,40.63885,1,1,7758,3879
7403,16855670,2,0.007527388,0.001969255,0.001964033,-0.1481092,0.2101596,-9.842847000000001,0,0,40.63879,1,1,7758,3879
7434,16858218,2,0.007223833,0.001819319,0.0001644082,-0.1466783,0.2058195,-9.843311,0,0,40.63872,1,1,7758,3879
7437,16861543,2,0.006562841,0.001596956,-0.00045196,-0.1452837,0.2036551,-9.840919,0,0,40.63867,1,1,7758,3879
7440,16863613,2,0.004549121,0.0007974729,-0.00101546,-0.1431886,0.2026469,-9.836836,0,0,40.63855,1,1,7758,3879
7444,16865671,2,0.004215334,0.0001909865,-0.0006030892,-0.1424713,0.2016202,-9.834365,0,0,40.6385,1,1,7758,3879
7476,16868291,2,0.005275762,0.00154114,6.238701e-05,-0.1401431,0.1989014,-9.832848,0,0,40.63841,1,1,7758,3879
7479,16870810,2,0.005684922,0.002725778,-4.922646e-05,-0.1365941,0.19679,-9.831605,0,0,40.63838,1,1,7758,3879
7482,16873704,2,0.006663643,0.002548263,-0.0006301079,-0.131832,0.1939267,-9.829026000000001,0,0,40.63833,1,1,7758,3879
7486,16876281,2,0.006560432,0.001839151,-0.001272812,-0.1291733,0.1928742,-9.827605999999999,0,0,40.63832,1,1,7758,3879
7517,16878666,2,0.005431596,0.0017204,-0.001913212,-0.1260629,0.1914259,-9.824301,0,0,40.63831,1,1,7758,3879
7520,16881119,2,0.004955674,0.002056851,-0.00221379,-0.1262244,0.1894526,-9.822698000000001,0,0,40.63831,1,1,7758,3879
7523,16883672,2,0.004598724,0.00192285,-0.002530979,-0.1316935,0.1856917,-9.821287,0,0,40.63829,1,1,7758,3879
7526,16886474,2,0.00292179,2.817906e-05,-0.002050279,-0.1395312,0.1802294,-9.821448,0,0,40.63829,1,1,7758,3879
7557,16888672,2,0.001516643,-0.0005744948,-0.0007613229999999999,-0.1424886,0.1780223,-9.822466,0,0,40.63831,1,1,7758,3879
7560,16890939,2,0.0002855095,-0.0004969184,0.0004838233,-0.151317,0.1728076,-9.825167,0,0,40.63833,1,1,7758,3879
7563,16893697,2,5.61818e-05,-0.0004844329,0.0004840325,-0.1557349,0.1712083,-9.824978,0,0,40.63837,1,1,7758,3879
7570,16896297,2,3.798007e-05,-0.0003950283,5.196355e-05,-0.160499,0.1713795,-9.81986,0,0,40.6384,1,1,7758,3879
7602,16899430,2,-0.0002567538,-0.001144672,-0.0008933402,-0.163039,0.1722553,-9.816977,0,0,40.6384,1,1,7758,3879
7605,16901128,2,-0.0003938174,-0.002300956,-0.001409189,-0.1647936,0.1738568,-9.822863999999999,0,0,40.63841,1,1,7758,3879
7609,16903406,2,-0.0006882812,-0.002835033,-0.0009434414,-0.1650452,0.1747681,-9.828412,0,0,40.6384,1,1,7758,3879
7612,16905894,2,-0.0004629883,-0.003392793,-0.0007737025,-0.1646849,0.1753006,-9.83226,0,0,40.63837,1,1,7758,3879
7643,16909062,2,-0.0001768402,-0.004244599,-0.0002002123,-0.162368,0.1773569,-9.835521999999999,0,0,40.63834,1,1,7758,3879
7646,16911365,2,-0.0003630735,-0.005042048,0.0002553281,-0.1590729,0.1782047,-9.836622,0,0,40.63831,1,1,7758,3879
7650,16913653,2,-0.0009664642,-0.005039495,-0.0009879157,-0.1556596,0.1783545,-9.837199999999999,0,0,40.63823,1,1,7758,3879
7654,16915877,2,-0.0009472362999999999,-0.005036861,-0.001852732,-0.1539316,0.1770981,-9.837137999999999,0,0,40.63818,1,1,7758,3879
7685,16918691,2,-0.001171282,-0.004483297,-0.0004453178,-0.1536887,0.1754218,-9.836503,0,0,40.63815,1,1,7758,3879
7688,16921123,2,-0.00184739,-0.003899501,0.0005123211,-0.1552749,0.1713796,-9.838027,0,0,40.63811,1,1,7758,3879
7691,16924001,2,-0.002727138,-0.003633366,0.0004257744,-0.1563511,0.1685782,-9.841706,0,0,40.63808,1,1,7758,3879
7695,16926289,2,-0.004848061,-0.003143673,0.0001838527,-0.1592141,0.1642946,-9.845287000000001,0,0,40.63801,1,1,7758,3879
7726,16928685,2,-0.006222143,-0.003882515,-0.0001888883,-0.1617819,0.1607989,-9.843693,0,0,40.63794,1,1,7758,3879
7729,16931046,2,-0.007759877,-0.004929833,-0.0007331769,-0.1638486,0.1552632,-9.839047000000001,0,0,40.63789,1,1,7758,3879
7734,16933907,2,-0.007828531,-0.005367974,7.711373e-05,-0.1654701,0.1537998,-9.834835999999999,0,0,40.63782,1,1,7758,3879
7737,16939086,2,-0.004829027,-0.003856797,0.0006594621,-0.1751301,0.1613384,-9.823517000000001,0,0,40.63761,1,1,7758,3879
7768,16941328,2,-0.003650542,-0.003398183,0.0008434153999999999,-0.1806873,0.1731388,-9.822934,0,0,40.63749,1,1,7758,3879
7771,16943884,2,-0.003335119,-0.003099893,0.0004929962,-0.1840747,0.1834401,-9.82601,0,0,40.63741,1,1,7758,3879
7775,16946598,2,-0.003820006,-0.002968418,-0.0001150668,-0.1900009,0.1997607,-9.829973000000001,0,0,40.63728,1,1,7758,3879
7778,16949269,2,-0.003900721,-0.003740667,-0.0003423801,-0.1916808,0.2046032,-9.830793999999999,0,0,40.6372,1,1,7758,3879
7809,16954051,2,-0.00360601,-0.004123935,-0.001456798,-0.1946007,0.2226059,-9.829967,0,0,40.63697,1,1,7755,3877
7812,16956374,2,-0.00323601,-0.002918272,-0.0008813949,-0.1926087,0.2233187,-9.830781999999999,0,0,40.6369,1,1,7755,3877
7815,16958901,2,-0.002488507,-0.001507346,-0.0007666418,-0.1902759,0.2219031,-9.832077,0,0,40.63681,1,1,7755,3877
7846,16962027,2,-0.002076091,4.469297e-05,0.0008733895,-0.1873803,0.2173512,-9.835966000000001,0,0,40.63673,1,1,7755,3877
7849,16964682,2,-0.002239481,0.0004770618,0.001245315,-0.1871235,0.2140802,-9.84076,0,0,40.63663,1,1,7755,3877
7854,16966624,2,-0.002053692,-0.0003498734,5.546694e-05,-0.1869724,0.212016,-9.847607999999999,0,0,40.63653,1,1,7755,3877
7857,16969003,2,-0.00233381,-0.0007459231,-0.0007741737,-0.1872486,0.2118054,-9.847201,0,0,40.63647,1,1,7755,3877
7888,16971405,2,-0.002964177,-0.0003216137,-0.0002886062,-0.1877782,0.2134793,-9.839148,0,0,40.63637,1,1,7755,3877
7891,16974278,2,-0.003004936,0.0003253442,8.948003000000001e-05,-0.1887434,0.2147432,-9.831382,0,0,40.63631,1,1,7755,3877
7894,16976829,2,-0.001698567,0.0008228379,0.001425949,-0.1914948,0.2185621,-9.826338,0,0,40.63621,1,1,7755,3877
7897,16978905,2,-0.00150577,0.0006948511000000001,0.001155247,-0.1934229,0.2211324,-9.822677000000001,0,0,40.63612,1,1,7755,3877
7928,16981663,2,-0.0002812654,0.001370484,0.0006591876,-0.1947869,0.222728,-9.815849999999999,0,0,40.63603,1,1,7755,3877
7931,16983700,2,0.0002426583,0.001588082,0.0005319502,-0.1946354,0.2235028,-9.814484,0,0,40.63593,1,1,7755,3877
7935,16986732,2,0.0002666987,0.001588007,-2.535593e-05,-0.1928816,0.2267386,-9.811813000000001,0,0,40.63581,1,1,7755,3877
7938,16989153,2,0.0003607981,0.001773658,-0.0008028996,-0.1896527,0.2290652,-9.81345,0,0,40.63575,1,1,7755,3877
7969,16991803,2,0.00137632,0.001611667,-0.0006708116,-0.1842255,0.2321184,-9.819646000000001,0,0,40.63565,1,1,7755,3877
7973,16994238,2,0.001974093,0.001186503,-0.0008175441000000001,-0.1809673,0.2324669,-9.824228,0,0,40.63555,1,1,7755,3877
7980,16996663,2,0.001536631,0.001463868,6.520508e-05,-0.1763198,0.2303201,-9.832777999999999,0,0,40.63546,1,1,7755,3877
7984,16999581,2,0.001235044,0.003161972,0.0008696597,-0.1730281,0.2272881,-9.83849,0,0,40.63539,1,1,7755,3877
8015,17001581,2,0.001979457,0.00382065,0.0007024377,-0.16873,0.2211446,-9.845461,0,0,40.6353,1,1,7755,3877
8018,17004152,2,0.002565196,0.002762782,0.0001928725,-0.167206,0.2146,-9.851089,0,0,40.63522,1,1,7755,3877
8021,17007206,2,0.002496388,0.00216079,-9.833669e-05,-0.1679067,0.2100294,-9.849864,0,0,40.63516,1,1,7755,3877
8026,17009568,2,0.001712928,0.001919967,0.0007569835,-0.1705478,0.2045358,-9.843709,0,0,40.63506,1,1,7755,3877
8059,17012561,2,0.001388672,0.001416495,0.001719199,-0.1740478,0.2020302,-9.840541999999999,0,0,40.63499,1,1,7755,3877
8062,17014292,2,0.001900164,0.001352747,0.002494066,-0.178984,0.2016483,-9.838221000000001,0,0,40.63486,1,1,7755,3877
8066,17017150,2,0.002226652,0.001593518,0.002418623,-0.184426,0.2018225,-9.836164,0,0,40.63481,1,1,7755,3877
8069,17019221,2,0.003534772,0.001973644,0.0008071098,-0.1904111,0.2006898,-9.834258,0,0,40.63472,1,1,7755,3877
8100,17021716,2,0.004765767,0.001293352,-0.0002861118,-0.1919611,0.2007714,-9.832635,0,0,40.63466,1,1,7755,3877
8103,17024702,2,0.00507614,0.0008569975,-0.002046473,-0.1919299,0.205335,-9.829599,0,0,40.63457,1,1,7755,3877
8106,17026648,2,0.005212632,-0.0002666916,-0.001968835,-0.1900615,0.2093005,-9.827237,0,0,40.63451,1,1,7755,3877
8109,17029683,2,0.00599673,0.001329755,0.0007795719,-0.184488,0.2103319,-9.824373,0,0,40.63441,1,1,7755,3877
8140,17032596,2,0.008156793000000001,0.002028622,0.0004017107,-0.1732433,0.2026572,-9.808532,0,0,40.63428,1,1,7755,3877
8143,17034555,2,0.009812120000000001,-0.001372074,-0.0008575993,-0.1718007,0.1953412,-9.809291,0,0,40.63422,1,1,7755,3877
8147,17039237,2,0.003505357,0.006253536,-0.0009566237,-0.1788973,0.1849697,-9.840457000000001,0,0,40.63406,1,1,7755,3877
8178,17044169,2,0.0109327,-0.00533988,-0.007316954,-0.1770794,0.1758114,-9.821871,0,0,40.63387,1,1,7755,3877
8181,17046634,2,0.008298148999999999,-0.008346034,-0.006995176,-0.1785581,0.172723,-9.818270999999999,0,0,40.6338,1,1,7755,3877
8184,17050001,2,0.001570686,-0.002959675,-0.005109843,-0.1739627,0.1683423,-9.822455,0,0,40.6337,1,1,7755,3877
8215,17052272,2,-0.001723294,0.005678033,-0.00346652,-0.1614665,0.1544873,-9.821069,0,0,40.63356,1,1,7755,3877
8218,17055475,2,0.003089755,0.005077586,-0.004779942,-0.1578435,0.1485261,-9.825512,0,0,40.63349,1,1,7755,3877
8222,17057307,2,0.007870090999999999,0.001426721,-0.008612877,-0.1631824,0.1591536,-9.845605000000001,0,0,40.63337,1,1,7755,3877
8225,17060079,2,0.004619138,0.002305005,-0.007652671,-0.1637701,0.1732115,-9.849263000000001,0,0,40.6333,1,1,7755,3877
8256,17062289,2,-0.0002150503,0.0009545565,-0.00379014,-0.155973,0.1859266,-9.820841,0,0,40.63321,1,1,7755,3877
8259,17064650,2,0.0009430573,-0.003462172,-0.003756859,-0.1511823,0.1879022,-9.805914,0,0,40.63316,1,1,7755,3877
8262,17067674,2,0.002605041,-0.002403246,-0.001778407,-0.150271,0.1922448,-9.819523999999999,0,0,40.63307,1,1,7755,3877
8265,17069776,2,0.003102601,0.004697924,0.002020733,-0.1531808,0.1947494,-9.841994,0,0,40.63302,1,1,7755,3877
8296,17072818,2,0.001001374,0.01086246,0.007457042,-0.1594655,0.1889219,-9.861547,0,0,40.63292,1,1,7755,3877
8299,17074765,2,-0.00183137,0.005927973,0.007414536,-0.160727,0.1863722,-9.858641,0,0,40.63287,1,1,7755,3877
8303,17077106,2,0.0008303313,-0.003977408,0.00635039,-0.1624192,0.186337,-9.826473999999999,0,0,40.63274,1,1,7755,3877
8307,17079876,2,0.01027756,-0.01259699,0.007081488,-0.1656251,0.1895674,-9.817812,0,0,40.63266,1,1,7755,3877
8338,17082701,2,0.002826229,-0.005822363,0.01124166,-0.1703624,0.1917089,-9.854733,0,0,40.63256,1,1,7755,3877
8341,17085028,2,-0.01369756,0.004436969,0.01661298,-0.1650435,0.1903483,-9.866092999999999,0,0,40.63249,1,1,7755,3877
8346,17087683,2,-0.01170773,0.005736472,0.01570346,-0.1527628,0.1801415,-9.838861,0,0,40.63241,1,1,7755,3877
8349,17089779,2,0.007547701,-0.0001314566,0.01080018,-0.1530663,0.1771496,-9.840415999999999,0,0,40.63236,1,1,7755,3877
8380,17092291,2,0.01186383,0.002532474,0.009369759,-0.1603714,0.1920987,-9.880604999999999,0,0,40.63225,1,1,7755,3877
8383,17095308,2,-0.004654001,0.007628602,0.01214327,-0.1605171,0.2019201,-9.889614999999999,0,0,40.63219,1,1,7755,3877
8389,17097379,2,-0.01931421,-0.0006880937,0.009584603000000001,-0.1492895,0.2054732,-9.849750999999999,0,0,40.6321,1,1,7755,3877
8393,17100150,2,-0.00410503,-0.0114978,0.004643476,-0.1439694,0.2077577,-9.826954000000001,0,0,40.63208,1,1,7755,3877
8424,17102649,2,0.01752868,-0.00321228,0.003772975,-0.1478901,0.2227364,-9.868156000000001,0,0,40.63205,1,1,7755,3877
8427,17104796,2,0.006660582,0.01409689,0.008640149,-0.1482532,0.2288906,-9.886415,0,0,40.63202,1,1,7755,3877
8431,17107788,2,-0.01053456,0.01523113,0.009920386999999999,-0.1439662,0.2324495,-9.876894,0,0,40.63197,1,1,7755,3877
8434,17109814,2,-0.007936568999999999,0.006979773,0.00738207,-0.1379065,0.2226135,-9.827456,0,0,40.63195,1,1,7755,3877
8465,17112810,2,0.01280623,-0.02017227,-0.002311927,-0.1335077,0.211376,-9.780908999999999,0,0,40.63194,1,1,7755,3877
8469,17114815,2,0.01189684,-0.01641595,-0.00259338,-0.1391109,0.2104766,-9.809452,0,0,40.63194,1,1,7755,3877
8472,17117122,2,-0.01207511,0.01574873,0.004700989,-0.1378303,0.2105181,-9.847386999999999,0,0,40.63194,1,1,7755,3877
8476,17120088,2,-0.006532643,0.01508614,0.004566273,-0.1308828,0.2024984,-9.822277,0,0,40.63194,1,1,7755,3877
8507,17122225,2,0.02210898,-0.01559073,-0.00351981,-0.1358027,0.1957991,-9.801284000000001,0,0,40.63199,1,1,7755,3877
8510,17125124,2,0.0187148,-0.01881745,-0.002860364,-0.1497861,0.2052367,-9.825048000000001,0,0,40.63202,1,1,7755,3877
8514,17127328,2,-0.01554921,0.0118732,0.005118244,-0.1603479,0.2150203,-9.840553,0,0,40.63207,1,1,7755,3877
8517,17129814,2,-0.01558487,0.0200955,0.003680054,-0.1599455,0.2107684,-9.803198,0,0,40.63209,1,1,7755,3877
8548,17132863,2,0.02735379,-0.004455828,-0.009074524,-0.1744067,0.208875,-9.772824999999999,0,0,40.63213,1,1,7755,3877
8553,17135018,2,0.03265518,-0.01744968,-0.01238684,-0.186168,0.2189104,-9.794238,0,0,40.63215,1,1,7755,3877
8557,17139867,2,-0.02026114,0.003140435,0.0001829768,-0.1760138,0.2264548,-9.771576,0,0,40.63225,1,1,7755,3877
8588,17142211,2,0.006371192,0.002570566,-0.003636512,-0.164469,0.2129097,-9.740422000000001,0,0,40.63229,1,1,7755,3877
8591,17147310,2,0.01381691,0.008519117999999999,-0.005259469,-0.1599467,0.1988118,-9.806501000000001,0,0,40.6324,1,1,7755,3877
8594,17150579,2,-0.01298638,0.008515194,-0.004687252,-0.1464333,0.1842541,-9.788536000000001,0,0,40.63243,1,1,7755,3877
8597,17152509,2,-0.008979941999999999,-0.0100749,-0.01218286,-0.1346299,0.1562734,-9.747327,0,0,40.6325,1,1,7755,3877
8628,17155106,2,0.01077293,-0.01413339,-0.01501299,-0.1357478,0.1506369,-9.763548999999999,0,0,40.63254,1,1,7755,3877
8631,17157274,2,0.004783698,0.007196266,-0.006275687,-0.1437929,0.1574534,-9.827679,0,0,40.63259,1,1,7755,3877
8635,17159598,2,-0.01157758,0.01794438,-0.0006213565000000001,-0.1441638,0.1555411,-9.834659,0,0,40.63262,1,1,7755,3877
8638,17162683,2,-0.005946993,0.001405614,-0.006614164,-0.150697,0.142997,-9.818902,0,0,40.63267,1,1,7755,3877
8669,17165116,2,0.002270465,-0.007158618,-0.01243889,-0.1630272,0.1443563,-9.842998,0,0,40.63272,1,1,7755,3877
8672,17167357,2,-0.00619879,0.00376164,-0.01145274,-0.1749638,0.1624965,-9.88265,0,0,40.63276,1,1,7755,3877
8675,17169843,2,-0.01261573,0.009190175,-0.009020617999999999,-0.176457,0.1675764,-9.881959,0,0,40.6328,1,1,7755,3877
8678,17172425,2,-0.009812038,0.003840723,-0.009043779,-0.17904,0.1742673,-9.858238,0,0,40.63288,1,1,7755,3877
8709,17175106,2,-0.001789926,-0.003322336,-0.009901528,-0.1792945,0.1809193,-9.853942,0,0,40.63292,1,1,7755,3877
8712,17177676,2,0.001902577,0.002930317,-0.006834132,-0.1774923,0.1981568,-9.889127,0,0,40.63296,1,1,7755,3877
8716,17179802,2,-0.005832304,0.01334755,-0.002797346,-0.1752322,0.2052068,-9.912286,0,0,40.63298,1,1,7755,3877
8719,17182153,2,-0.01302022,0.009926762,-0.003660329,-0.1655745,0.2057662,-9.898115000000001,0,0,40.63302,1,1,7755,3877
8750,17184824,2,-0.009295787999999999,-0.003063428,-0.007923394,-0.1575689,0.2068079,-9.882013000000001,0,0,40.63305,1,1,7755,3877
8753,17187699,2,-0.004409775,-0.007885056,-0.01041912,-0.1486093,0.2144953,-9.894992,0,0,40.6331,1,1,7755,3877
8757,17190126,2,-0.005325526,0.001491977,-0.006884776,-0.1473753,0.2218262,-9.923655999999999,0,0,40.63313,1,1,7755,3877
8760,17192418,2,-0.007533792,0.01152097,0.0001493508,-0.1499198,0.2282414,-9.949146000000001,0,0,40.63319,1,1,7755,3877
8791,17194763,2,-0.005493064,0.005590554,0.00126833,-0.1499936,0.2292572,-9.940585,0,0,40.63321,1,1,7755,3877
8797,17197636,2,0.0006300419,-0.01275824,-0.0002762848,-0.14738,0.2292848,-9.909079,0,0,40.63326,1,1,7755,3877
8801,17200256,2,0.002202951,-0.01526224,-0.000815038,-0.1478106,0.2316113,-9.894679,0,0,40.6333,1,1,7755,3877
8804,17202746,2,0.001392426,-0.001166618,-0.0009428058,-0.1483805,0.2353544,-9.880208,0,0,40.63336,1,1,7755,3877
8835,17204727,2,0.002440536,0.002395086,-0.0007278676,-0.1470343,0.2390537,-9.856833,0,0,40.63339,1,1,7755,3877
8838,17207463,2,0.007151449,-0.002216945,0.0001724695,-0.1500276,0.2419375,-9.833288,0,0,40.63343,1,1,7755,3877
8842,17209658,2,0.007503198,-0.01159616,0.002421604,-0.1566565,0.2425392,-9.835592,0,0,40.63346,1,1,7755,3877
8845,17212818,2,0.003745347,-0.01379677,0.005977637,-0.1612601,0.2339425,-9.837440000000001,0,0,40.63349,1,1,7755,3877
8876,17215333,2,0.001869386,-0.004554441,0.006827223,-0.1589353,0.2113489,-9.800568999999999,0,0,40.6335,1,1,7755,3877
8879,17217909,2,0.0044011,-0.002192999,0.005972044,-0.1600579,0.1955656,-9.770942,0,0,40.63352,1,1,7755,3877
8882,17219872,2,0.006133277,-0.00594137,0.004548448,-0.1725477,0.1768464,-9.77136,0,0,40.63356,1,1,7755,3877
8885,17223024,2,0.0009929458999999999,-0.006197772,0.005514453,-0.185764,0.1669053,-9.789823,0,0,40.63359,1,1,7755,3877
8916,17225019,2,-0.01153284,-0.001335896,0.008805769,-0.2023447,0.1497959,-9.790267999999999,0,0,40.63365,1,1,7755,3877
8920,17227785,2,-0.0138881,-0.000603287,0.01015347,-0.2111283,0.1352529,-9.770246999999999,0,0,40.63367,1,1,7755,3877
8924,17230229,2,-0.008376241,-0.002671015,0.009445627999999999,-0.2318454,0.11957,-9.767015000000001,0,0,40.63372,1,1,7755,3877
8927,17232652,2,-0.008380980999999999,0.001843238,0.01015883,-0.239898,0.1184514,-9.77739,0,0,40.63374,1,1,7755,3877
8958,17237882,2,-0.01352195,0.008994429,0.01500653,-0.2459915,0.1383197,-9.773368,0,0,40.63379,1,1,7755,3877
8961,17240027,2,-0.00322619,-0.01060194,0.01370485,-0.2307788,0.1672359,-9.740562000000001,0,0,40.63383,1,1,7755,3877
8964,17242926,2,0.0005710111,-0.01506749,0.01403136,-0.2228616,0.1977001,-9.757319000000001,0,0,40.63387,1,1,7755,3877
8995,17248247,2,0.007134483,0.008761662999999999,0.01609292,-0.1560945,0.2888073,-9.798851000000001,0,0,40.63402,1,1,7755,3877
8999,17250696,2,0.02241193,-0.001662395,0.009940126000000001,-0.136902,0.3080506,-9.814049000000001,0,0,40.63405,1,1,7755,3877
9002,17253103,2,0.02450908,-0.008622578000000001,0.004896742,-0.1236156,0.32614,-9.839357,0,0,40.63411,1,1,7755,3877
9033,17255862,2,0.005600472,-0.0004771203,0.004861536,-0.1078623,0.335134,-9.842461,0,0,40.63421,1,1,7755,3877
9036,17258065,2,0.0005635011,0.0048529,0.006580162,-0.1029799,0.317944,-9.812885,0,0,40.63433,1,1,7755,3877
9040,17261043,2,0.01837328,8.477209e-05,0.005854251,-0.1205336,0.2714298,-9.805523000000001,0,0,40.63448,1,1,7755,3877
9043,17262870,2,0.02531133,1.050099e-05,0.007006514,-0.1454411,0.2355677,-9.840797,0,0,40.63456,1,1,7755,3877
9074,17265316,2,0.0146853,0.006036823,0.00982682,-0.1711785,0.1935852,-9.872707,0,0,40.63467,1,1,7755,3877
9077,17267859,2,-0.01226093,0.01004784,0.008185069999999999,-0.1958697,0.1433785,-9.877048,0,0,40.63479,1,1,7755,3877
9080,17271061,2,-0.0166832,0.006206478,0.002388184,-0.2325284,0.06641579,-9.850315999999999,0,0,40.63493,1,1,7755,3877
9083,17273033,2,-0.01131908,0.003613921,-0.0009821287000000001,-0.2518066,0.02733525,-9.836714000000001,0,0,40.63506,1,1,7755,3877
9114,17275763,2,-0.01195541,0.009034324,0.002510784,-0.2657089,-0.002123973,-9.839437,0,0,40.63519,1,1,7755,3877
9117,17278074,2,-0.01977955,0.01084497,0.006428845,-0.2644734,-0.002870361,-9.845623,0,0,40.63527,1,1,7755,3877
9121,17280667,2,-0.02057963,0.003784461,0.007455992,-0.2483964,0.02849237,-9.870194,0,0,40.63539,1,1,7755,3877
9124,17283282,2,-0.01276687,0.0002353969,0.006320205,-0.2289519,0.07268405999999999,-9.904461,0,0,40.63549,1,1,7755,3877
9155,17285766,2,0.0003604731,0.003271417,0.003595769,-0.1842042,0.1607348,-9.947725,0,0,40.63558,1,1,7755,3877
9158,17288582,2,0.004109497,0.002171748,-8.435342e-05,-0.145679,0.2201129,-9.952688,0,0,40.63569,1,1,7755,3877
9161,17290781,2,0.0006114442,-0.008298882,-0.008230940000000001,-0.08505863,0.298778,-9.935195,0,0,40.6358,1,1,7755,3877
9164,17293011,2,-0.00281839,-0.01180852,-0.01124821,-0.06659183,0.3216709,-9.928337000000001,0,0,40.63591,1,1,7755,3877
9195,17295659,2,0.004432156,-0.001253768,-0.009058594,-0.0239258,0.3722807,-9.91011,0,0,40.63602,1,1,7755,3877
9201,17298667,2,0.01441097,0.009880384000000001,-0.006129997,-0.01293866,0.3818255,-9.899288,0,0,40.63609,1,1,7755,3877
9206,17301111,2,0.01693624,0.01812188,-0.004045938,-0.02613689,0.3549764,-9.886535,0,0,40.63621,1,1,7755,3877
9209,17302885,2,0.00698662,0.01905574,-0.004052074,-0.04897897,0.3106948,-9.866687000000001,0,0,40.63632,1,1,7755,3877
9234,17325889,2,-0.0006740688000000001,0.0009592785,-0.01253659,-0.1683704,0.2413554,-9.857103,0,0,40.63734,1,1,7755,3877
9237,17328133,2,0.0007541568,0.003714778,-0.01367613,-0.1337162,0.2940107,-9.852294000000001,0,0,40.63743,1,1,7755,3877
9241,17330816,2,0.006344424,0.001048032,-0.01407729,-0.08965307,0.3374324,-9.851203,0,0,40.63757,1,1,7755,3877
9244,17332878,2,0.009371475000000001,-0.00240062,-0.01307942,-0.07297768,0.3369385,-9.845281,0,0,40.63771,1,1,7755,3877
9276,17335825,2,0.005361295,0.0006916572,-0.01037586,-0.06094638,0.2843792,-9.791731,0,0,40.63786,1,1,7755,3877
9281,17339115,2,0.0009943377000000001,0.005406248,-0.01086336,-0.06073134,0.2214602,-9.724615999999999,0,0,40.63795,1,1,7755,3877
9284,17340632,2,-0.00264169,0.004081777,-0.01472895,-0.08644708,0.1258184,-9.6595,0,0,40.63811,1,1,7755,3877
9287,17342924,2,-0.002506122,-0.0003926232,-0.0143101,-0.1230065,0.08712362,-9.679679999999999,0,0,40.63822,1,1,7755,3877
9318,17345537,2,0.008132195,-0.006700912,-0.007020063,-0.1809589,0.07622188000000001,-9.757607,0,0,40.6384,1,1,7755,3877
9321,17348261,2,0.01922239,-0.01385833,-0.001158817,-0.2088,0.09090172000000001,-9.795835,0,0,40.63858,1,1,7755,3877
9324,17353007,2,-0.002915409,-0.02541737,0.006427029,-0.2276817,0.1674198,-9.864238,0,0,40.63889,1,1,7755,3877
9356,17358186,2,-0.006821983,0.01970595,-0.003292807,-0.1950824,0.2248687,-9.877856,0,0,40.6392,1,1,7755,3877
9359,17360628,2,0.01657972,0.01860248,-0.01049194,-0.1744781,0.2449134,-9.850666,0,0,40.63934,1,1,7755,3877
9362,17362886,2,0.0194782,0.008034796,-0.01248074,-0.1711644,0.2506169,-9.839345,0,0,40.63942,1,1,7755,3877
9394,17365894,2,-0.01452946,-0.0108624,-0.006009819,-0.1576901,0.2529768,-9.799279,0,0,40.63952,1,1,7755,3877
9397,17368299,2,-0.01771016,-0.0221507,-0.0001106937,-0.1469596,0.2546508,-9.767787,0,0,40.6396,1,1,7755,3877
9400,17370665,2,0.03647265,-0.02208841,0.007685374,-0.1442886,0.2711245,-9.780602999999999,0,0,40.63967,1,1,7755,3877
9403,17373162,2,0.06863597,-0.01089253,0.01427442,-0.1401863,0.2911448,-9.820976,0,0,40.63971,1,1,7755,3877
9434,17375285,2,0.04717411,-0.001981064,0.01881408,-0.1207414,0.3074744,-9.871109000000001,0,0,40.63979,1,1,7755,3877
9437,17378578,2,0.006745712,-0.005933444,0.01231627,-0.1074396,0.2932826,-9.887105999999999,0,0,40.63984,1,1,7755,3877
9440,17380713,2,-0.01726957,-0.00740973,-0.006522072,-0.09749483,0.2430784,-9.929974,0,0,40.63988,1,1,7755,3877
9443,17382846,2,-0.0006871829,0.004053318,-0.01364662,-0.1000851,0.1995368,-9.969208999999999,0,0,40.63991,1,1,7755,3877
9474,17385844,2,0.02405126,0.02595968,-0.008373601,-0.1121162,0.1212214,-9.969847,0,0,40.63996,1,1,7755,3877
9478,17388011,2,0.01706646,0.01990386,-0.001386074,-0.1192932,0.06730102,-9.914318,0,0,40.64,1,1,7755,3877
9481,17390928,2,-0.01003597,-0.02075387,0.004465446,-0.1352399,0.03236219,-9.864096999999999,0,0,40.64005,1,1,7755,3877
9485,17393229,2,-0.01445142,-0.02871848,0.00686662,-0.1661174,0.03263319,-9.858752000000001,0,0,40.64008,1,1,7755,3877
9516,17395651,2,0.007211166,-0.01726028,0.0185044,-0.2069694,0.09191812000000001,-9.864644,0,0,40.64011,1,1,7755,3877
9522,17398285,2,0.03766158,-0.006862413,0.02331452,-0.2158665,0.1469801,-9.824021,0,0,40.64013,1,1,7755,3877
9526,17400846,2,0.03690667,-0.01674505,0.01782289,-0.2257742,0.2335447,-9.778157999999999,0,0,40.64014,1,1,7755,3877
9529,17403388,2,-0.0007392755,-0.01519764,0.01101781,-0.2305661,0.2883784,-9.795180999999999,0,0,40.64014,1,1,7755,3877
9560,17405924,2,-0.03036102,0.02118984,0.002853723,-0.2117394,0.334397,-9.804307,0,0,40.6401,1,1,7755,3877
9564,17408024,2,0.00151416,0.03845262,-0.002454666,-0.1879069,0.3270465,-9.779002999999999,0,0,40.64006,1,1,7755,3877
9567,17410717,2,0.05230659,0.01880341,-0.006022433,-0.1671504,0.2859585,-9.802695,0,0,40.63999,1,1,7755,3877
9570,17413103,2,0.03584161,-0.004933752,0.0005443434,-0.1615382,0.2632266,-9.884197,0,0,40.6399,1,1,7755,3877
9601,17415733,2,-0.002607125,-0.01658914,0.01784405,-0.1369996,0.2377353,-9.959031,0,0,40.6398,1,1,7755,3877
9604,17418180,2,0.01680669,-0.0151309,0.02395464,-0.1056604,0.208552,-9.920026999999999,0,0,40.63974,1,1,7755,3877
9607,17421061,2,0.04630312,-0.01781756,0.02254838,-0.07709002,0.1751776,-9.852595000000001,0,0,40.63965,1,1,7755,3877
9610,17422968,2,0.03985908,-0.02023346,0.01702814,-0.06385849,0.1531213,-9.811678000000001,0,0,40.63956,1,1,7755,3877
9641,17425652,2,-0.02593627,0.003111769,0.00770103,-0.07453973999999999,0.131257,-9.796605,0,0,40.63947,1,1,7755,3877
9645,17428546,2,-0.04430141,0.0286685,-0.0008672719,-0.09497679000000001,0.106932,-9.762691,0,0,40.63942,1,1,7755,3877
9650,17430748,2,-0.003325106,0.03388618,-0.01628984,-0.1449323,0.06707726999999999,-9.703110000000001,0,0,40.63934,1,1,7755,3877
9653,17432929,2,0.01555847,0.01106185,-0.02108687,-0.1981423,0.05941783,-9.733150999999999,0,0,40.63927,1,1,7755,3877
9684,17435882,2,-0.0141723,-0.01530038,-0.009004856,-0.2839601,0.09599774,-9.856733,0,0,40.63921,1,1,7755,3877
9688,17438102,2,-0.02039071,-0.0117866,0.006267304,-0.314451,0.1385042,-9.888226,0,0,40.63917,1,1,7755,3877
9691,17440804,2,0.03226144,-0.007418421,0.01985061,-0.2957347,0.1976033,-9.824809999999999,0,0,40.6391,1,1,7755,3877
9694,17443010,2,0.05024144,-0.01949005,0.01968657,-0.2547191,0.2395662,-9.788937000000001,0,0,40.63906,1,1,7755,3877
9725,17448445,2,-0.02888856,0.01858287,-0.002793091,-0.1006846,0.3207992,-9.814549,0,0,40.63892,1,1,7755,3877
9728,17450407,2,-0.004762869,0.03817356,-0.01587285,-0.07159065000000001,0.3089597,-9.783644000000001,0,0,40.63887,1,1,7755,3877
9731,17452936,2,0.01063624,0.03472346,-0.02260672,-0.0305966,0.2702107,-9.723378,0,0,40.63881,1,1,7755,3877
9762,17455277,2,0.009696754,-0.001266729,-0.02947951,-0.05328324,0.21927,-9.770224000000001,0,0,40.63874,1,1,7755,3877
9765,17458638,2,-0.02087703,-0.003800937,-0.01729186,-0.1057867,0.2049827,-9.846095,0,0,40.63869,1,1,7755,3877
9769,17460611,2,-0.001826753,0.01698956,0.006641845,-0.1672454,0.1773063,-9.820373999999999,0,0,40.63863,1,1,7755,3877
9773,17465540,2,0.02557339,-0.04593128,0.007256218,-0.2556923,0.1404199,-9.739245,0,0,40.63851,1,1,7755,3877
9804,17468172,2,-0.02660771,-0.03639256,0.004896256,-0.283805,0.1476248,-9.800628,0,0,40.6385,1,1,7755,3877
9808,17470885,2,-0.03803743,0.03210637,-0.003709002,-0.270823,0.1245479,-9.818707,0,0,40.63849,1,1,7755,3877
9811,17472850,2,0.005104094,0.04744089,-0.01897845,-0.2440833,0.08717949999999999,-9.790307,0,0,40.63848,1,1,7755,3877
9814,17476073,2,0.01621319,0.007055845,-0.03544034,-0.2396699,0.06021162,-9.869947,0,0,40.63844,1,1,7755,3877
9845,17478280,2,-0.04963873,0.003277372,-0.01836116,-0.2510005,0.09269133,-10.0268,0,0,40.63842,1,1,7755,3877
9848,17480902,2,-0.05360364,0.01366447,-0.009501633000000001,-0.2417198,0.1050489,-10.03401,0,0,40.63839,1,1,7755,3877
9851,17483728,2,0.03254635,-0.01138334,0.002951213,-0.1871808,0.1268819,-9.917408999999999,0,0,40.63835,1,1,7755,3877
9854,17485923,2,0.03890634,-0.03371703,0.001751793,-0.1644818,0.1522873,-9.849914999999999,0,0,40.63832,1,1,7755,3877
9885,17488749,2,-0.02444067,-0.05325906,0.002678224,-0.1521918,0.2303992,-9.860322,0,0,40.6383,1,1,7755,3877
9889,17491005,2,-0.05847875,-0.01126876,0.004085944,-0.1312346,0.2722729,-9.837876,0,0,40.63829,1,1,7755,3877
9892,17493108,2,-0.0002574587,0.03823937,-0.01105744,-0.1015597,0.2804905,-9.720923000000001,0,0,40.63829,1,1,7755,3877
9895,17496086,2,0.03983455,0.02722175,-0.02551597,-0.1219317,0.2777339,-9.717377000000001,0,0,40.63831,1,1,7755,3877
9929,17498558,2,-0.00495832,0.01451688,-0.02330172,-0.2074682,0.3027869,-9.887926999999999,0,0,40.63836,1,1,7755,3877
9933,17501055,2,-0.03460748,0.03236376,-0.008499671,-0.2501333,0.3100696,-9.956016,0,0,40.63839,1,1,7755,3877
9936,17503250,2,0.02104876,0.01607936,0.001688706,-0.2638156,0.2638514,-9.875204999999999,0,0,40.63845,1,1,7755,3877
9939,17506259,2,0.05307944,-0.03549917,-9.540433999999999e-05,-0.2659619,0.2301016,-9.830061000000001,0,0,40.63846,1,1,7755,3877
9972,17508731,2,-0.002676057,-0.06613407,0.006858204,-0.260941,0.216531,-9.846887000000001,0,0,40.63848,1,1,7755,3877
9976,17511128,2,-0.04447532,-0.02705884,0.01502151,-0.2057288,0.1888301,-9.862985,0,0,40.63849,1,1,7755,3877
9979,17513172,2,-0.007783691,0.03284445,0.004851439,-0.1430628,0.141203,-9.795227000000001,0,0,40.63845,1,1,7755,3877
9983,17515848,2,0.02764525,0.02993275,-0.01308791,-0.09673724,0.08811078,-9.734627,0,0,40.63842,1,1,7755,3877
10014,17518741,2,0.008583488,0.01610695,-0.02476401,-0.1086736,0.06282929,-9.833944000000001,0,0,40.63836,1,1,7755,3877
10017,17520816,2,-0.04100596,0.02296731,-0.02190455,-0.1474985,0.08744285,-9.952994,0,0,40.63832,1,1,7755,3877
10020,17523644,2,-0.03097195,0.03053891,-0.008475513,-0.1831414,0.1193581,-9.953092,0,0,40.63824,1,1,7755,3877
10023,17525686,2,0.01991423,-0.01322436,-0.004845245,-0.1954199,0.133277,-9.869209,0,0,40.6382,1,1,7755,3877
10054,17528343,2,0.01438881,-0.08968411,0.005528207,-0.2179664,0.1960688,-9.831912000000001,0,0,40.63815,1,1,7755,3877
10058,17531546,2,-0.03125692,-0.07428028,0.02151152,-0.2176207,0.2508384,-9.848481,0,0,40.63811,1,1,7755,3877
10061,17533164,2,-0.01905162,0.02222218,0.03299777,-0.1566281,0.274731,-9.744230999999999,0,0,40.63807,1,1,7755,3877
10064,17536217,2,0.03775561,0.05020146,0.01695228,-0.1166441,0.2577189,-9.659101,0,0,40.63804,1,1,7755,3877
10097,17538883,2,0.03938325,0.0300294,-0.01433763,-0.1426625,0.2585993,-9.782026,0,0,40.638,1,1,7755,3877
10100,17543037,2,-0.02002883,0.03345742,-0.01102872,-0.1948096,0.2664739,-9.963516,0,0,40.63794,1,1,7755,3877
10103,17545713,2,0.02754688,-0.0182467,-0.008754579,-0.189193,0.2456791,-9.914292,0,0,40.63793,1,1,7755,3877
10134,17550789,2,-0.02135701,-0.06777384,0.02763943,-0.1743576,0.171389,-9.842961000000001,0,0,40.63783,1,1,7755,3877
10138,17553674,2,-0.02790019,0.004683536,0.04075317,-0.1321182,0.1337759,-9.797647,0,0,40.63781,1,1,7755,3877
10142,17556474,2,0.01301998,0.05646597,0.03172777,-0.0862603,0.07598398000000001,-9.695864,0,0,40.6378,1,1,7755,3877
10173,17559131,2,0.04509608,0.04222832,-0.008293106999999999,-0.09628762,0.03516043,-9.701301000000001,0,0,40.63778,1,1,7755,3877
10176,17561270,2,-0.02905016,0.03095337,-0.02462391,-0.1805413,0.0937537,-9.939968,0,0,40.63776,1,1,7755,3877
10180,17563369,2,-0.04475447,0.03996581,-0.01681875,-0.2076195,0.1391445,-9.997569,0,0,40.63776,1,1,7755,3877
10183,17566541,2,0.01699938,-0.01918725,-0.003554966,-0.2068746,0.1710462,-9.863626,0,0,40.63778,1,1,7755,3877
10214,17569020,2,0.02663029,-0.08183255,0.007008068,-0.2121505,0.2014791,-9.798724,0,0,40.63779,1,1,7755,3877
10217,17571670,2,-0.02539574,-0.06383234,0.03632742,-0.1960602,0.2613222,-9.793365,0,0,40.63779,1,1,7755,3877
10220,17573760,2,-0.02134102,0.01651092,0.04749022,-0.1442005,0.2661041,-9.723779,0,0,40.63779,1,1,7755,3877
10223,17576315,2,0.0309594,0.07180833,0.03580842,-0.09319879,0.2426578,-9.615,0,0,40.6378,1,1,7755,3877
10254,17579196,2,0.07137424000000001,0.06926464,0.007689265,-0.08963399,0.2294425,-9.607295000000001,0,0,40.6378,1,1,7755,3877
10258,17581325,2,0.02113965,0.03490946,-0.02176428,-0.1639787,0.2688802,-9.857469999999999,0,0,40.63781,1,1,7755,3877
10262,17583938,2,-0.02237707,0.03219245,-0.02083093,-0.1979362,0.2944556,-9.989039,0,0,40.63781,1,1,7755,3877
10265,17586079,2,0.004194143,-0.006975754,-0.009898868,-0.1968151,0.2566205,-9.932232000000001,0,0,40.63781,1,1,7755,3877
10296,17588818,2,0.02475315,-0.0592026,-0.0002285235,-0.1965826,0.2116607,-9.866914,0,0,40.63781,1,1,7755,3877
10299,17591657,2,-0.01179181,-0.06375093,0.0251404,-0.1842746,0.1587829,-9.872493,0,0,40.63782,1,1,7755,3877
10302,17593826,2,-0.02424734,-1.121731e-05,0.03929508,-0.1412932,0.1066506,-9.84951,0,0,40.63783,1,1,7755,3877
10305,17596578,2,0.02461847,0.06981109000000001,0.02252389,-0.06548811,0.002583576,-9.715984000000001,0,0,40.63783,1,1,7755,3877
10339,17599088,2,0.04184057,0.05356016,-0.005530423,-0.0624489,-0.03203892,-9.701421,0,0,40.63781,1,1,7755,3877
10343,17601782,2,-0.01873632,0.01774074,-0.03113311,-0.1298613,0.01831577,-9.884463999999999,0,0,40.63778,1,1,7755,3877
10347,17603898,2,-0.04591621,0.0192038,-0.02717901,-0.1641697,0.08158343,-9.967228,0,0,40.63775,1,1,7755,3877
10351,17606235,2,-0.001048073,-0.01307164,-0.009091139,-0.1756271,0.1297453,-9.932896,0,0,40.63773,1,1,7755,3877
10382,17609295,2,0.01267769,-0.03753072,-0.00253946,-0.1847222,0.1659173,-9.857034000000001,0,0,40.63774,1,1,7755,3877
10385,17611328,2,-0.01219259,-0.08089029,0.02035854,-0.1963603,0.2297158,-9.836764000000001,0,0,40.63774,1,1,7755,3877
10389,17613793,2,-0.03497962,-0.04117912,0.03287246,-0.1784098,0.2605579,-9.845052000000001,0,0,40.63775,1,1,7755,3877
10392,17616574,2,0.01278667,0.05484321,0.02362404,-0.1159517,0.2483825,-9.758823,0,0,40.63783,1,1,7755,3877
10423,17619118,2,0.05136953,0.06403204999999999,-0.001941975,-0.09329572999999999,0.2358295,-9.711740000000001,0,0,40.63788,1,1,7755,3877
10426,17621645,2,0.01799473,0.01486154,-0.03348903,-0.1394385,0.2729158,-9.87166,0,0,40.63797,1,1,7755,3877
10429,17623930,2,-0.02481681,0.005837191,-0.0312234,-0.1731738,0.3092985,-10.01245,0,0,40.63805,1,1,7755,3877
10432,17626076,2,-0.009781029,-0.003009558,-0.01270517,-0.1592926,0.293407,-9.992369999999999,0,0,40.63813,1,1,7755,3877
10464,17629309,2,0.01550852,-0.04288811,-0.001760967,-0.1405917,0.2459964,-9.902156,0,0,40.63819,1,1,7755,3877
10467,17631657,2,-0.01071951,-0.07621196,0.01469151,-0.1215225,0.1801155,-9.859355000000001,0,0,40.63827,1,1,7755,3877
10471,17633655,2,-0.03011879,-0.03452325,0.02241264,-0.08807178,0.1328949,-9.843942999999999,0,0,40.63831,1,1,7755,3877
10474,17636051,2,0.004298768,0.0394665,0.008479657999999999,-0.03689666,0.07120347,-9.771224999999999,0,0,40.63842,1,1,7755,3877
10505,17638861,2,0.02220473,0.03434221,-0.01536604,-0.002786072,0.01777504,-9.688356000000001,0,0,40.63848,1,1,7755,3877
10508,17641276,2,-0.004824096,0.008591326,-0.03320572,-0.05326514,0.02504302,-9.770035,0,0,40.63859,1,1,7755,3877
10511,17648766,2,0.01238688,-0.04905686,-0.006894246,-0.1839408,0.1975786,-9.884406,0,0,40.63877,1,1,7755,3877
10542,17651856,2,-0.02339263,-0.08076654,0.004882769,-0.2061913,0.2392498,-9.877787,0,0,40.63879,1,1,7755,3877
10547,17654014,2,-0.04675838,-0.03174367,0.01982334,-0.1855446,0.2769514,-9.827378,0,0,40.63881,1,1,7755,3877
10550,17657100,2,0.005424917,0.0227278,0.01355954,-0.1450393,0.2640009,-9.731449,0,0,40.63882,1,1,7755,3877
10553,17659387,2,0.0540637,0.03933899,-0.01352082,-0.1388192,0.2547454,-9.712482,0,0,40.63885,1,1,7755,3877
10585,17661769,2,0.01193353,0.03218804,-0.02246816,-0.1889511,0.2825554,-9.859401,0,0,40.63886,1,1,7755,3877
10588,17663899,2,-0.03346513,0.04275833,-0.01760712,-0.2347134,0.305777,-10.0008,0,0,40.63887,1,1,7755,3877
10591,17666706,2,0.0007201577,0.0190875,-0.01628865,-0.2281614,0.2732164,-9.949145,0,0,40.63889,1,1,7755,3877
10595,17669571,2,0.02682228,-0.03773225,-0.01564119,-0.2263496,0.2308145,-9.883050000000001,0,0,40.6389,1,1,7755,3877
10626,17672175,2,-0.01937115,-0.07787505,0.002696414,-0.2279473,0.2048711,-9.863657,0,0,40.63892,1,1,7755,3877
10630,17674070,2,-0.03920465,-0.03440064,0.01934247,-0.1738796,0.1623797,-9.805367,0,0,40.63893,1,1,7755,3877
10633,17676383,2,-0.003173418,0.02099029,0.02205519,-0.1045049,0.1063415,-9.708271999999999,0,0,40.63893,1,1,7755,3877
10636,17679052,2,0.04188989,0.04300034,0.0008870008,-0.05900412,0.04463561,-9.688921000000001,0,0,40.63896,1,1,7755,3877
10667,17681809,2,-0.004541238,0.0413677,-0.0110011,-0.09496810999999999,0.05962284,-9.830881,0,0,40.63897,1,1,7755,3877
10671,17684223,2,-0.05932756,0.05980688,-0.01610278,-0.1424507,0.1100303,-9.96053,0,0,40.63898,1,1,7755,3877
10674,17686896,2,-0.01295695,0.03626407,-0.02178437,-0.1489017,0.12137,-9.901306,0,0,40.63899,1,1,7755,3877
10677,17689234,2,0.02323481,-0.06155991,-0.01951197,-0.1737943,0.1416587,-9.844094,0,0,40.63902,1,1,7755,3877
10708,17692058,2,-0.03093981,-0.08804901,0.002024567,-0.2263775,0.2295129,-9.857103,0,0,40.63906,1,1,7755,3877
10711,17694074,2,-0.05369679,-0.02213744,0.03755393,-0.2169526,0.2821548,-9.810389000000001,0,0,40.6391,1,1,7755,3877
10714,17696913,2,0.0231044,0.02529847,0.0366606,-0.1583905,0.2862169,-9.630067,0,0,40.63915,1,1,7755,3877
10720,17699556,2,0.07879219,0.04702913,0.01136378,-0.1577717,0.2859248,-9.625788,0,0,40.6392,1,1,7755,3877
10752,17702070,2,0.01941971,0.06187143,0.001039179,-0.2235103,0.3375322,-9.860937,0,0,40.63925,1,1,7755,3877
10756,17704623,2,-0.0272105,0.07591776,-0.005401607,-0.2463934,0.3546045,-9.949555999999999,0,0,40.63929,1,1,7755,3877
10759,17706838,2,-0.0007209096,0.05040849,-0.01695323,-0.2387181,0.3227621,-9.904716000000001,0,0,40.63932,1,1,7755,3877
10763,17710010,2,0.04723829,-0.06006505,-0.02647579,-0.2400066,0.2604074,-9.839319,0,0,40.63931,1,1,7755,3877
10794,17712675,2,-0.02564669,-0.08601309,0.009058347,-0.2257941,0.2303307,-9.85622,0,0,40.6393,1,1,7755,3877
10797,17715296,2,-0.0413876,-0.02874429,0.03639229,-0.1653194,0.1795942,-9.787741,0,0,40.63929,1,1,7755,3877
10800,17717572,2,0.04845908,0.04303636,0.03410375,-0.07200875,0.06132381,-9.672848,0,0,40.63927,1,1,7755,3877
10803,17719807,2,0.06595202999999999,0.05260583,0.01454756,-0.07057658999999999,0.02139298,-9.760158000000001,0,0,40.63926,1,1,7755,3877
10834,17722811,2,-0.03361994,0.065786,-0.005545721,-0.1274044,0.0460948,-9.994699000000001,0,0,40.63924,1,1,7755,3877
10838,17724884,2,-0.05514622,0.0602723,-0.01642997,-0.1460248,0.06232825,-9.99628,0,0,40.63922,1,1,7755,3877
10841,17727829,2,0.01964025,-0.03470476,-0.03330283,-0.1755208,0.07544587,-9.870846,0,0,40.6392,1,1,7755,3877
10844,17729702,2,0.01835556,-0.1015343,-0.02226039,-0.22009,0.1281409,-9.865237,0,0,40.63918,1,1,7755,3877
10875,17732620,2,-0.05849734,-0.07643751,0.03124662,-0.2445699,0.2028693,-9.873533,0,0,40.63916,1,1,7755,3877
10879,17735230,2,-0.035669,-0.0109915,0.05558376,-0.2211767,0.2485936,-9.788956000000001,0,0,40.63914,1,1,7755,3877
10882,17737677,2,0.04793194,0.03125383,0.05059665,-0.1639309,0.2373961,-9.617599,0,0,40.63913,1,1,7755,3877
10887,17740260,2,0.08797726,0.04353325,0.02901171,-0.1708931,0.2420902,-9.672109000000001,0,0,40.6391,1,1,7755,3877
10918,17742574,2,0.0009506984,0.06145187,0.003197338,-0.2218971,0.3074471,-9.925228000000001,0,0,40.63906,1,1,7755,3877
10921,17744926,2,-0.02658443,0.06067397,-0.01191502,-0.2225512,0.3275501,-9.973776000000001,0,0,40.63906,1,1,7755,3877
10924,17751178,2,0.01545665,-0.1129313,-0.01616557,-0.2097336,0.2779066,-9.954962,0,0,40.63903,1,1,7755,3877
10927,17752663,2,-0.04855659,-0.081301,0.02169985,-0.1742959,0.25466,-9.934647,0,0,40.639,1,1,7755,3877
10959,17755128,2,-0.004634868,0.008690478,0.04652067,-0.06749621,0.1276065,-9.737505000000001,0,0,40.63895,1,1,7755,3877
10963,17757768,2,0.07058592,0.0322076,0.02812307,-0.03397928,0.03216387,-9.688867999999999,0,0,40.63891,1,1,7755,3877
10967,17760108,2,0.06356613999999999,0.03872025,0.004514717,-0.06068337,-0.007482073,-9.805427999999999,0,0,40.63885,1,1,7755,3877
10970,17763055,2,-0.05915589,0.06049869,-0.01319136,-0.1351328,0.01867727,-9.987238,0,0,40.63875,1,1,7755,3877
11001,17765021,2,-0.02728537,0.009338444,-0.03220126,-0.1599542,0.0320557,-9.927667,0,0,40.63869,1,1,7755,3877
11004,17767832,2,0.008310579,-0.03121004,-0.03794739,-0.1907032,0.04519919,-9.829317,0,0,40.63865,1,1,7755,3877
11007,17770201,2,0.01403177,-0.1178129,-0.01848868,-0.2657385,0.141871,-9.831576,0,0,40.63859,1,1,7755,3877
11010,17773022,2,-0.05031668,-0.08807055,0.023228,-0.2763658,0.2222694,-9.823008,0,0,40.63853,1,1,7755,3877
11041,17775656,2,-0.02143228,0.007448092,0.05537025,-0.2108484,0.2462559,-9.630129999999999,0,0,40.63847,1,1,7755,3877
11045,17778056,2,0.06570764,0.03565717,0.03672458,-0.184023,0.2248943,-9.568562999999999,0,0,40.63845,1,1,7755,3877
11048,17780444,2,0.05612506,0.05765842,-0.001347034,-0.2131535,0.2542832,-9.773707,0,0,40.63843,1,1,7755,3877
11051,17783413,2,-0.0186292,0.07564948000000001,-0.01547433,-0.2278992,0.2926316,-9.908455,0,0,40.63841,1,1,7755,3877
11082,17785826,2,-0.006712014,0.02958875,-0.0391073,-0.2089473,0.2793395,-9.881989000000001,0,0,40.63836,1,1,7755,3877
11085,17787761,2,0.04183284,-0.04816135,-0.04648259,-0.2119745,0.2566849,-9.876671,0,0,40.63832,1,1,7755,3877
11088,17790113,2,-0.001663998,-0.09342875,-0.008360068,-0.2160604,0.2570755,-9.961729999999999,0,0,40.63829,1,1,7755,3877
11091,17792879,2,-0.04977177,-0.0451501,0.03181521,-0.1665977,0.2227266,-9.906627,0,0,40.63826,1,1,7755,3877
11122,17795615,2,0.01392399,0.02833646,0.04187464,-0.09495186,0.1312391,-9.751201999999999,0,0,40.63823,1,1,7755,3877
11126,17798136,2,0.04863939,0.03836474,0.030025,-0.05499878,0.02476804,-9.667265,0,0,40.63821,1,1,7755,3877
11133,17800462,2,0.0323635,0.06092506,-0.01016099,-0.0926643,-0.04059006,-9.848817,0,0,40.63819,1,1,7755,3877
11139,17803068,2,-0.04950614,0.08078224000000001,-0.0260283,-0.1353082,-0.0248237,-9.974976,0,0,40.63817,1,1,7755,3877
11170,17805072,2,-0.04247053,0.03850546,-0.04564486,-0.1735752,-0.00248698,-9.922545,0,0,40.63815,1,1,7755,3877
11174,17808236,2,0.01640996,-0.04062689,-0.0503182,-0.2114674,0.03064576,-9.877387000000001,0,0,40.63813,1,1,7755,3877
11177,17810798,2,-0.01855639,-0.09421731999999999,-0.00742841,-0.2611456,0.1568427,-9.906228,0,0,40.63812,1,1,7755,3877
11180,17812804,2,-0.07076705,-0.04810328,0.03610561,-0.2350913,0.229253,-9.836169999999999,0,0,40.63811,1,1,7755,3877
11211,17815121,2,-0.002024256,0.03296195,0.05033125,-0.1533766,0.2324897,-9.609427999999999,0,0,40.6381,1,1,7755,3877
11214,17817725,2,0.06973237,0.05121325,0.0229705,-0.1397302,0.2200059,-9.611585,0,0,40.63808,1,1,7755,3877
11217,17820849,2,0.01862972,0.07374809,-0.01582582,-0.17171,0.2740782,-9.849041,0,0,40.63808,1,1,7755,3877
11220,17823147,2,-0.03932722,0.07578931999999999,-0.03167046,-0.1738255,0.3135433,-9.924248,0,0,40.63808,1,1,7755,3877
11251,17825141,2,0.006096667,-0.005524816,-0.05203781,-0.1625295,0.3148834,-9.896874,0,0,40.63808,1,1,7755,3877
11255,17827893,2,0.03292599,-0.07293375000000001,-0.04510139,-0.1684939,0.3077002,-9.890672,0,0,40.63809,1,1,7755,3877
11258,17830238,2,-0.005758302,-0.08572288,-0.009337678,-0.175662,0.3280219,-9.961862,0,0,40.63809,1,1,7755,3877
11262,17832920,2,-0.05279626,-0.04166103,0.03436664,-0.1299271,0.3068376,-9.912879,0,0,40.63809,1,1,7755,3877
11293,17835648,2,0.005222775,0.02734067,0.04827042,-0.04290444,0.1675287,-9.732739,0,0,40.6381,1,1,7755,3877
11296,17838142,2,0.0619157,0.04448485,0.02143663,-0.0330587,0.07345275,-9.746551,0,0,40.63811,1,1,7755,3877
11299,17840110,2,-0.001027819,0.0619804,-0.01752438,-0.07591824,0.03523321,-9.939313,0,0,40.63813,1,1,7755,3877
11302,17842889,2,-0.06248896,0.05681426,-0.03141942,-0.09980308,0.04624109,-9.972898000000001,0,0,40.63813,1,1,7755,3877
11333,17845049,2,-0.01840787,-0.01872263,-0.04486516,-0.1405479,0.06490253,-9.899463000000001,0,0,40.63811,1,1,7755,3877
11337,17851675,2,-0.04163803,-0.0708667,0.02424568,-0.1985754,0.2251478,-9.891048,0,0,40.63809,1,1,7755,3877
11340,17853066,2,-0.03866866,-0.01000066,0.05952565,-0.1413072,0.2545857,-9.694848,0,0,40.63808,1,1,7755,3877
11371,17855661,2,0.03452254,0.01666898,0.04349327,-0.1120756,0.2363783,-9.606114,0,0,40.63807,1,1,7755,3877
11375,17858072,2,0.05291701,0.04329054,0.0008063572,-0.1136712,0.2457014,-9.665661,0,0,40.63806,1,1,7755,3877
11378,17861076,2,-0.01034679,0.05777788,-0.01669707,-0.1351111,0.2917797,-9.797473999999999,0,0,40.63804,1,1,7755,3877
11381,17863018,2,-0.03319148,0.04353034,-0.02920065,-0.1554388,0.3477547,-9.849777,0,0,40.63804,1,1,7755,3877
11413,17865650,2,0.01008305,-0.009121851,-0.03960224,-0.1671005,0.349577,-9.826836,0,0,40.63804,1,1,7755,3877
11416,17868069,2,0.03509739,-0.08169857,-0.02056698,-0.1897804,0.3597927,-9.887534,0,0,40.63804,1,1,7755,3877
11419,17870883,2,-0.0142283,-0.07472078,0.01734468,-0.1746064,0.3578898,-9.914673000000001,0,0,40.63804,1,1,7755,3877
11422,17874003,2,-0.02376089,-0.01419679,0.05189633,-0.1277039,0.3047732,-9.852748,0,0,40.63802,1,1,7755,3877
11425,17875933,2,0.03644469,0.0135334,0.03781184,-0.05900205,0.1525095,-9.741133,0,0,40.63802,1,1,7755,3877
11456,17878099,2,0.04537763,0.03224473,-0.002235619,-0.05946957,0.06571455,-9.851179,0,0,40.63802,1,1,7755,3877
11460,17880666,2,-0.02155448,0.04137187,-0.01846623,-0.08481805000000001,0.06486342,-9.942646999999999,0,0,40.63802,1,1,7755,3877
11463,17883305,2,-0.04411007,0.01761896,-0.03232922,-0.1219384,0.08025769000000001,-9.924972,0,0,40.63802,1,1,7755,3877
11466,17885808,2,0.003830833,-0.02984723,-0.032205,-0.15449,0.1036065,-9.894636999999999,0,0,40.63803,1,1,7755,3877
11497,17888622,2,0.004033533,-0.07622503999999999,0.005128517,-0.2026287,0.1915547,-9.911508,0,0,40.63804,1,1,7755,3877
11501,17890621,2,-0.03424955,-0.06170036,0.0401585,-0.2067507,0.2224071,-9.901358,0,0,40.63804,1,1,7755,3877
11504,17893226,2,-0.02506988,-0.02670867,0.05658932,-0.193006,0.2573155,-9.820395,0,0,40.63804,1,1,7755,3877
11508,17895577,2,0.03361025,0.004118765,0.04565438,-0.1557759,0.2413218,-9.670135999999999,0,0,40.63804,1,1,7755,3877
11539,17898638,2,0.06898625,0.02313138,0.01926677,-0.1551522,0.2391463,-9.692876999999999,0,0,40.63804,1,1,7755,3877
11546,17901054,2,0.009820402000000001,0.04660854,-0.0115967,-0.1911756,0.288321,-9.856491,0,0,40.63804,1,1,7755,3877
11550,17903108,2,-0.01651876,0.04609513,-0.0235519,-0.2080885,0.3154384,-9.901503,0,0,40.63805,1,1,7755,3877
11553,17905593,2,0.03929353,-0.009873547,-0.03224474,-0.2187933,0.3142207,-9.889409000000001,0,0,40.63806,1,1,7755,3877
11584,17908069,2,0.04627277,-0.05295861,-0.0183984,-0.2261804,0.3124404,-9.906019000000001,0,0,40.63807,1,1,7755,3877
11588,17910904,2,-0.02155618,-0.05415813,0.02513711,-0.196372,0.2884108,-9.87044,0,0,40.63807,1,1,7755,3877
11591,17913573,2,-0.01947309,-0.02257167,0.04063611,-0.1474253,0.2206894,-9.771872999999999,0,0,40.63807,1,1,7755,3877
11594,17915763,2,0.05722168,0.02259655,0.02274766,-0.09478997,0.08423069,-9.721047,0,0,40.63807,1,1,7755,3877
11625,17917929,2,0.05175851,0.04502105,0.001851116,-0.09306612,0.0526121,-9.762095,0,0,40.63806,1,1,7755,3877
11628,17920925,2,-0.03512663,0.05920919,-0.01925249,-0.1224121,0.0163729,-9.936299999999999,0,0,40.63805,1,1,7755,3877
11631,17923336,2,-0.04112848,0.03771592,-0.03099176,-0.1590533,0.009070069,-9.947984,0,0,40.63803,1,1,7755,3877
11634,17926084,2,-0.0006004349,-0.006528008,-0.03785618,-0.1898093,0.01890355,-9.920601,0,0,40.63803,1,1,7755,3877
11665,17928144,2,0.0009859527,-0.04838625,-0.01409425,-0.2348495,0.09434724999999999,-9.924313,0,0,40.63805,1,1,7755,3877
11669,17930700,2,-0.0405352,-0.03923392,0.01788643,-0.2342306,0.1543753,-9.870689,0,0,40.63805,1,1,7755,3877
11672,17933091,2,-0.03966177,-0.01826063,0.03747289,-0.2121703,0.184698,-9.758451000000001,0,0,40.63807,1,1,7755,3877
11675,17935814,2,0.0418945,0.01515536,0.02614962,-0.184624,0.1890565,-9.678376999999999,0,0,40.63807,1,1,7755,3877
11706,17938679,2,0.03425402,0.04968813,0.0008182962,-0.180999,0.2305802,-9.782086,0,0,40.63808,1,1,7755,3877
11711,17941314,2,-0.007357774,0.05649378,-0.01253182,-0.1847256,0.2710228,-9.836746,0,0,40.63808,1,1,7755,3877
11714,17943213,2,-0.005310869,0.04004673,-0.0256083,-0.1904313,0.2927608,-9.846147999999999,0,0,40.63808,1,1,7755,3877
11717,17945355,2,0.04422028,-0.01341017,-0.03261807,-0.1959754,0.2969947,-9.85652,0,0,40.63808,1,1,7755,3877
11748,17947926,2,0.02342013,-0.04278601,-0.01733934,-0.1901455,0.2973613,-9.864856,0,0,40.63808,1,1,7755,3877
11752,17954367,2,-0.01355097,-0.01815899,0.02356567,-0.1163214,0.1738402,-9.709562999999999,0,0,40.63812,1,1,7753,3876
11755,17955751,2,0.0433463,0.01731649,0.01454668,-0.0886641,0.08647053,-9.701285,0,0,40.63813,1,1,7753,3876
11786,17958661,2,0.0363939,0.05498277,-0.006183994,-0.09446006,0.01338794,-9.859586999999999,0,0,40.63813,1,1,7753,3876
11790,17961116,2,-0.02239708,0.05730147,-0.01601033,-0.1249655,0.001984075,-9.956232,0,0,40.63812,1,1,7753,3876
11793,17963927,2,-0.03304091,0.01518253,-0.03191784,-0.1650665,0.00221241,-9.942208000000001,0,0,40.6381,1,1,7753,3876
11796,17966575,2,-0.0003467043,-0.03317065,-0.03533116,-0.1865414,0.01982288,-9.898463,0,0,40.63809,1,1,7753,3876
11827,17968602,2,-0.02995791,-0.07344386999999999,-0.007395146,-0.2186399,0.08974285,-9.864084999999999,0,0,40.63808,1,1,7753,3876
11832,17971398,2,-0.06062513,-0.04163514,0.03003133,-0.2144922,0.1475686,-9.762181999999999,0,0,40.63806,1,1,7753,3876
11835,17974115,2,-0.004605949,-0.004650019,0.03308162,-0.1988406,0.153731,-9.699147,0,0,40.63805,1,1,7753,3876
11839,17976301,2,0.05491753,0.03661907,0.01216885,-0.1973344,0.1721141,-9.761692999999999,0,0,40.63805,1,1,7753,3876
11870,17979460,2,0.01379145,0.04840269,-0.002481613,-0.2150159,0.2139235,-9.857471,0,0,40.63806,1,1,7753,3876
11874,17981344,2,-0.03248293,0.03246598,-0.02182509,-0.2331182,0.2551873,-9.898928,0,0,40.63808,1,1,7753,3876
11877,17984038,2,0.00194306,-0.002899072,-0.03327173,-0.2385353,0.2716339,-9.873939,0,0,40.63808,1,1,7753,3876
11880,17986799,2,0.02863979,-0.04688632,-0.03345038,-0.2329272,0.2700827,-9.836918000000001,0,0,40.63809,1,1,7753,3876
11911,17989568,2,-0.02406883,-0.07587793,-0.003340946,-0.2060408,0.2540808,-9.813765999999999,0,0,40.63812,1,1,7753,3876
11914,17991395,2,-0.0522211,-0.05386098,0.01850539,-0.1640331,0.2050268,-9.747980999999999,0,0,40.63814,1,1,7753,3876
11917,17993695,2,-0.01803311,-0.01364238,0.02438255,-0.1153404,0.1231765,-9.68449,0,0,40.63815,1,1,7753,3876
11920,17996245,2,0.04112937,0.03623216,0.007155867,-0.08424967999999999,0.0198066,-9.764782,0,0,40.63817,1,1,7753,3876
11953,17999224,2,0.005741623,0.05281886,-0.003646496,-0.1065711,0.003584765,-9.904819,0,0,40.63818,1,1,7753,3876
11960,18001932,2,-0.06014439,0.04144454,-0.01602042,-0.1577808,0.02324045,-9.977029999999999,0,0,40.63819,1,1,7753,3876
11964,18003892,2,-0.03841725,-0.003660346,-0.02662496,-0.1827541,0.04185976,-9.920469000000001,0,0,40.63819,1,1,7753,3876
11967,18006317,2,-0.01401821,-0.08584434000000001,-0.02216477,-0.2264843,0.1100921,-9.868808,0,0,40.63818,1,1,7753,3876
11998,18008874,2,-0.05107028,-0.09424948,0.004443286,-0.2440879,0.1788085,-9.848926000000001,0,0,40.63817,1,1,7753,3876
12001,18012050,2,-0.05637242,-0.03252064,0.04058321,-0.2190017,0.2369324,-9.725885999999999,0,0,40.63816,1,1,7753,3876
12004,18014141,2,0.008597660999999999,0.01369759,0.03896041,-0.1954757,0.2379008,-9.670889000000001,0,0,40.63814,1,1,7753,3876
12007,18016238,2,0.04353265,0.05742591,0.01333689,-0.1926695,0.2475355,-9.720399,0,0,40.63811,1,1,7753,3876
12038,18018881,2,0.02243719,0.06539936,0.004942618,-0.2083554,0.2843004,-9.827382999999999,0,0,40.63809,1,1,7753,3876
12042,18021291,2,-0.03149797,0.05731791,-0.01838511,-0.227001,0.3403375,-9.880000000000001,0,0,40.63803,1,1,7753,3876
12045,18024092,2,-0.00387199,0.01354103,-0.03362951,-0.225937,0.3505191,-9.833341000000001,0,0,40.63802,1,1,7753,3876
12049,18026690,2,0.0264669,-0.07144494999999999,-0.0290594,-0.226824,0.3613695,-9.825557,0,0,40.638,1,1,7753,3876
12080,18028928,2,-0.03309755,-0.07253914,0.01834653,-0.1877078,0.3485349,-9.809229999999999,0,0,40.63799,1,1,7753,3876
12083,18032001,2,-0.03414881,-0.02920683,0.04241104,-0.1282563,0.2838378,-9.719023999999999,0,0,40.63798,1,1,7753,3876
12086,18033789,2,0.01824225,0.01562532,0.03996057,-0.07693198,0.1868149,-9.662767000000001,0,0,40.63797,1,1,7753,3876
12089,18039909,2,-0.03752513,0.08783615,-0.0133834,-0.1306446,0.07154505,-9.967173000000001,0,0,40.63802,1,1,7753,3876
12093,18041680,2,-0.04248633,0.05818074,-0.02859679,-0.1648154,0.07513949,-9.957485,0,0,40.63803,1,1,7753,3876
12124,18043891,2,0.005463882,-0.04792801,-0.0367896,-0.2255645,0.1118844,-9.931286,0,0,40.63807,1,1,7753,3876
12127,18046329,2,-0.01209143,-0.09282491,-0.01331075,-0.2467695,0.1414423,-9.941995,0,0,40.63808,1,1,7753,3876
12130,18049633,2,-0.0518407,-0.08022258,0.02629203,-0.2659585,0.2109306,-9.937123,0,0,40.63811,1,1,7753,3876
12134,18052034,2,-0.04233326,-0.03299007,0.05404142,-0.2150411,0.2616911,-9.769506,0,0,40.63815,1,1,7753,3876
12165,18054811,2,0.05515261,0.03491149,0.04471039,-0.1616151,0.2425252,-9.676584,0,0,40.6382,1,1,7753,3876
12168,18056867,2,0.06080805,0.07440361,0.02312089,-0.1639399,0.2540477,-9.772057999999999,0,0,40.6382,1,1,7753,3876
12171,18059109,2,-0.01108381,0.1088428,-0.008954106999999999,-0.1815582,0.3054322,-9.890673,0,0,40.63821,1,1,7753,3876
12174,18062252,2,-0.005654912,0.07610678,-0.03362781,-0.1817426,0.3158599,-9.857056999999999,0,0,40.63821,1,1,7753,3876
12205,18064295,2,0.04142104,-0.04473029,-0.05231693,-0.1900285,0.318735,-9.832527000000001,0,0,40.63821,1,1,7753,3876
12208,18067045,2,0.01380619,-0.09627834,-0.02916072,-0.1933834,0.338717,-9.871713,0,0,40.6382,1,1,7753,3876
12212,18069303,2,-0.03791664,-0.06028003,0.03420663,-0.1264702,0.3151824,-9.79462,0,0,40.63818,1,1,7753,3876
12217,18071937,2,0.006708131,-0.008857377,0.0525505,-0.0550523,0.235227,-9.666793999999999,0,0,40.63814,1,1,7753,3876
12248,18074889,2,0.08212443,0.0490077,0.03187254,-0.01645487,0.1446661,-9.642151,0,0,40.63808,1,1,7753,3876
12251,18076773,2,0.03965256,0.08428099999999999,0.01054763,-0.04164601,0.08167861999999999,-9.837977,0,0,40.63805,1,1,7753,3876
12254,18079145,2,-0.04201075,0.09565052,-0.02389941,-0.07819532999999999,0.07742884,-9.938973000000001,0,0,40.63802,1,1,7753,3876
12257,18082275,2,-0.03585051,0.07391792,-0.03706075,-0.112725,0.07351412,-9.937545999999999,0,0,40.63803,1,1,7753,3876
12289,18084616,2,0.02202741,-0.05067718,-0.05779431,-0.1830944,0.09941943,-9.935297,0,0,40.63804,1,1,7753,3876
12292,18087075,2,0.001753579,-0.1117892,-0.03417587,-0.2267782,0.1628084,-9.978263,0,0,40.63804,1,1,7753,3876
12295,18089280,2,-0.05656065,-0.08532003000000001,0.03381951,-0.2084886,0.2437731,-9.874003,0,0,40.63805,1,1,7753,3876
12299,18092035,2,-0.01250558,-0.02911173,0.05751292,-0.1548161,0.2404991,-9.704139,0,0,40.63805,1,1,7753,3876
12330,18094813,2,0.08809192,0.04089873,0.04061192,-0.1121405,0.2173634,-9.63538,0,0,40.63802,1,1,7753,3876
12333,18097074,2,0.06340782,0.08061288,0.01777536,-0.1250376,0.2429533,-9.745965,0,0,40.638,1,1,7753,3876
12336,18099828,2,-0.01151356,0.09994364999999999,-0.01917489,-0.1549212,0.2919268,-9.846817,0,0,40.63797,1,1,7753,3876
12342,18102089,2,0.0132889,0.04730484,-0.04902858,-0.1648582,0.2929338,-9.809094999999999,0,0,40.63795,1,1,7753,3876
