LineNo,TimeUS,I,GyrX,GyrY,GyrZ,AccX,AccY,AccZ,EG,EA,T,GH,AH,GHz,AHz
186,15037020,1,-0.002295911,-0.005961876,0.002234342,-0.3013192,0.07158558,-9.758362999999999,0,0,45.57775,1,1,754,996
217,15039579,1,-0.001105558,-0.004803337,0.0005237909,-0.2947325,0.05975291,-9.767664,0,0,45.57775,1,1,754,996
289,15071017,1,0.004248066,-0.0008009496,-0.0001909212,-0.3176127,0.1429489,-9.849002,0,0,45.57774,1,1,754,996
320,15073159,1,0.002940332,0.0006446797999999999,0.0001777313,-0.2976466,0.1311024,-9.837350000000001,0,0,45.57774,1,1,754,996
400,15090845,1,0.005217727,-0.00621415,0.005105482,-0.2742043,-0.0009262332,-9.77844,0,0,45.57777,1,1,754,996
515,15112284,1,-0.003718072,0.001066709,0.01014688,-0.3229081,0.06238428,-9.737363999999999,0,0,45.57777,1,1,754,996
631,15132723,1,0.005674698,0.003500202,0.003613312,-0.2645123,0.1107451,-9.777087,0,0,45.57784,1,1,754,996
744,15149017,1,-0.003134208,-0.006229931,0.002572434,-0.2548485,0.1810245,-9.754001000000001,0,0,45.57788,1,1,754,996
857,15164609,1,0.001451446,-0.005502793,-0.002987941,-0.2474907,0.1254242,-9.769446,0,0,45.578,1,1,754,996
970,15182013,1,-0.0002035586,0.005737652,-0.001684243,-0.2451696,0.1279859,-9.787944,0,0,45.57807,1,1,754,996
1083,15203857,1,-2.833829e-05,0.0007696074,0.004996828,-0.322111,0.08794821999999999,-9.727563,0,0,45.57825,1,1,754,996
1198,15256035,1,-0.002518935,0.001225185,0.01015357,-0.3453245,0.08427861,-9.850621,0,0,45.57886,1,1,754,996
1201,15259852,1,-0.002632267,-0.001790998,0.01460176,-0.3227144,0.1086673,-9.777855000000001,0,0,45.57886,1,1,754,996
1310,15329590,1,-0.007543098,0.000132029,0.004354634,-0.3046761,0.1369863,-9.807357,0,0,45.57967,1,1,754,996
1404,15386314,1,-0.005667263,0.001429514,0.00404519,-0.2458142,0.1061552,-9.729893000000001,0,0,45.58017,1,1,754,996
1493,15400621,1,0.001330428,-0.003247538,0.003868617,-0.252283,0.0246594,-9.775415000000001,0,0,45.58021,1,1,754,996
1585,15415571,1,-0.002993826,-0.0001166908,-0.001132463,-0.2639125,0.1286636,-9.721067,0,0,45.58026,1,1,754,996
1617,15418088,1,-0.0002115825,-0.0027415,0.002056961,-0.249192,0.1387516,-9.708971999999999,0,0,45.58031,1,1,754,996
1657,15421315,1,0.002934122,-0.005100844,0.003917731,-0.2477506,0.137717,-9.720893999999999,0,0,45.58031,1,1,754,996
1660,15423801,1,0.003803347,-0.004520161,0.00286464,-0.2458348,0.1391698,-9.72973,0,0,45.58031,1,1,754,996
1663,15425931,1,0.002955052,-0.002664169,0.001135494,-0.2453374,0.1391775,-9.731488000000001,0,0,45.58031,1,1,754,996
1695,15428680,1,0.001195172,-0.0003834864,0.002027752,-0.2467519,0.134326,-9.740418,0,0,45.58038,1,1,754,996
1698,15431597,1,-0.0005454102,-0.0008101299,0.004732248,-0.2572013,0.1215486,-9.733143999999999,0,0,45.58038,1,1,754,996
1701,15433929,1,-0.001254749,-0.001225329,0.005478894,-0.272122,0.1201976,-9.722742,0,0,45.58038,1,1,754,996
1705,15436260,1,-0.0002230946,0.0004945569,0.003577536,-0.2959609,0.1176137,-9.718743999999999,0,0,45.58038,1,1,754,996
1736,15438721,1,0.0006684856,0.001479784,0.001596865,-0.3018947,0.1197732,-9.726240000000001,0,0,45.58038,1,1,754,996
1739,15441028,1,9.488693e-05,0.0009183841,0.0009587895,-0.3121805,0.1202692,-9.73352,0,0,45.58044,1,1,754,996
1742,15444052,1,0.0004543118,0.001125226,0.0001986353,-0.3177228,0.1204842,-9.725331000000001,0,0,45.58044,1,1,754,996
1745,15446294,1,0.003460928,0.002346899,-0.002200331,-0.3248626,0.1207736,-9.712078,0,0,45.58044,1,1,754,996
1777,15448620,1,0.003674204,0.002993566,-0.001171541,-0.3311804,0.1234551,-9.710777999999999,0,0,45.58044,1,1,754,996
1780,15451006,1,0.002758311,0.003935554,0.002080059,-0.3419755,0.1182515,-9.698482,0,0,45.5805,1,1,754,996
1783,15453572,1,0.001825957,0.003611921,0.002601296,-0.3409042,0.1101707,-9.675390999999999,0,0,45.5805,1,1,754,996
1786,15459931,1,0.001921614,-0.0004900179,-0.001646751,-0.3087997,0.09733538999999999,-9.634518999999999,0,0,45.5805,1,1,754,996
1817,15462160,1,0.002736139,0.0007084443,-0.003059666,-0.2809404,0.1119927,-9.642153,0,0,45.58054,1,1,754,996
1820,15464629,1,0.003576707,0.002037395,-0.003340243,-0.2504811,0.1239577,-9.669598000000001,0,0,45.58054,1,1,754,996
1823,15467749,1,0.003015468,0.002870848,-0.002508298,-0.2380812,0.126206,-9.696099999999999,0,0,45.58054,1,1,754,996
1826,15470926,1,-0.002380997,0.003724559,-0.00236125,-0.2331029,0.1103729,-9.728598,0,0,45.58054,1,1,754,996
1829,15472270,1,-0.00378387,0.00397621,-0.004665503,-0.236596,0.09112097,-9.745343999999999,0,0,45.58059,1,1,754,996
1861,15474609,1,-0.004922777,0.005380559,-0.008113964,-0.2525361,0.06113106,-9.736378999999999,0,0,45.58059,1,1,754,996
1864,15477154,1,-0.005385105,0.005264025,-0.007788258,-0.2683931,0.04989838,-9.713028,0,0,45.58059,1,1,754,996
1868,15480293,1,-0.006163767,0.004061277,-0.003939048,-0.2842722,0.04002256,-9.680206,0,0,45.58059,1,1,754,996
1871,15482694,1,-0.003932883,0.0006234648,0.002838445,-0.2871879,0.04231209,-9.651107,0,0,45.58059,1,1,754,996
1903,15484839,1,-0.0003373371,-0.005057568,0.008005276,-0.2796874,0.05406381,-9.623483999999999,0,0,45.58064,1,1,754,996
1909,15487232,1,0.0009621859,-0.009468117,0.009307549,-0.2707406,0.05788919,-9.613097,0,0,45.58064,1,1,754,996
1913,15489875,1,0.002071035,-0.01217632,0.008786011,-0.2500446,0.06893225,-9.612557000000001,0,0,45.58064,1,1,754,996
1916,15492418,1,0.002717641,-0.01217608,0.008051071999999999,-0.2321845,0.07107140000000001,-9.608459,0,0,45.58064,1,1,754,996
1947,15495129,1,0.005163361,-0.004187053,0.004394651,-0.2139232,0.07817296999999999,-9.599007,0,0,45.58072,1,1,754,996
1950,15497699,1,0.006166559,-9.693505e-06,0.003531266,-0.2103888,0.08928946,-9.616448999999999,0,0,45.58072,1,1,754,996
1953,15499665,1,0.00841392,0.005985283,0.002083809,-0.215874,0.09868668999999999,-9.649319999999999,0,0,45.58072,1,1,754,996
1956,15502198,1,0.009334531,0.007742525,0.002150715,-0.2332887,0.1075684,-9.663793,0,0,45.58072,1,1,754,996
1988,15504665,1,0.008092781,0.008053516,0.00390466,-0.2534204,0.1157904,-9.685069,0,0,45.58072,1,1,754,996
1991,15507825,1,0.005661577,0.007759239,0.006135396,-0.2516864,0.1134316,-9.702229000000001,0,0,45.58082,1,1,754,996
1994,15510018,1,0.004267527,0.005152321,0.005384639,-0.2371671,0.0994464,-9.716831000000001,0,0,45.58082,1,1,754,996
1997,15512587,1,0.003718199,0.003760925,0.003756847,-0.223266,0.09208813,-9.700302000000001,0,0,45.58082,1,1,754,996
2028,15514674,1,0.002045611,0.001862961,0.0004340211,-0.1992363,0.09883905,-9.67906,0,0,45.58082,1,1,754,996
2031,15517329,1,0.0008441755,0.001210628,-0.0010705,-0.1902744,0.1034154,-9.689264,0,0,45.58094,1,1,754,996
2034,15520125,1,0.0005666768,0.001453151,-0.001593278,-0.1755359,0.105855,-9.726523,0,0,45.58094,1,1,754,996
2038,15522782,1,0.002049647,0.001235231,0.0002510079,-0.1620875,0.1015705,-9.748906,0,0,45.58094,1,1,754,996
2071,15524880,1,0.005009592,-0.0001638952,0.00242873,-0.1541318,0.1054877,-9.781306000000001,0,0,45.58094,1,1,754,996
2075,15527368,1,0.006936959,0.001436307,0.001183122,-0.1537319,0.1262003,-9.8003,0,0,45.58105,1,1,754,996
2078,15529632,1,0.00459621,0.003755555,-0.0002572637,-0.1673774,0.1575735,-9.824828,0,0,45.58105,1,1,754,996
2081,15536313,1,0.005605607,0.006427249,-0.001444365,-0.2129614,0.1608866,-9.829086999999999,0,0,45.58105,1,1,754,996
2084,15537825,1,0.006730231,0.004982803,0.002817241,-0.2132241,0.1540671,-9.817181,0,0,45.58119,1,1,754,996
2118,15540310,1,0.005779898,0.003097643,0.003862008,-0.2144259,0.14993,-9.799045,0,0,45.58119,1,1,754,996
2121,15543080,1,0.005182413,0.001585044,0.002164872,-0.221047,0.1414626,-9.776396,0,0,45.58119,1,1,754,996
2124,15545098,1,0.004232026,-0.001417639,-0.001418514,-0.2325187,0.1313479,-9.761107000000001,0,0,45.58119,1,1,754,996
2128,15547925,1,0.003380819,-0.0006157857,-0.003008217,-0.2356634,0.1260623,-9.748635,0,0,45.58119,1,1,754,996
2159,15550619,1,0.002445009,0.002782394,-0.004104663,-0.2299534,0.1156938,-9.753738999999999,0,0,45.58134,1,1,754,996
2162,15552933,1,0.0009915665000000001,0.0043926,-0.004034655,-0.2303162,0.106626,-9.767258,0,0,45.58134,1,1,754,996
2165,15555582,1,-0.0002944976,0.001850342,-0.004407412,-0.2320247,0.08898093999999999,-9.76976,0,0,45.58134,1,1,754,996
2168,15557884,1,-0.0004298359,-0.0001511917,-0.005021091,-0.2304099,0.08422609,-9.756046,0,0,45.58134,1,1,754,996
2200,15560783,1,-0.003120817,-0.003345383,-0.0061955,-0.226183,0.07093257,-9.731285,0,0,45.58152,1,1,754,996
2203,15562683,1,-0.004652325,-0.003395354,-0.005861938,-0.2265326,0.06670874,-9.713381999999999,0,0,45.58152,1,1,754,996
2206,15565225,1,-0.007930309999999999,-0.00200806,-0.000486392,-0.2189114,0.0698759,-9.690969000000001,0,0,45.58152,1,1,754,996
2209,15567818,1,-0.007216119,-0.002156322,0.001752753,-0.2108977,0.07640497,-9.671066,0,0,45.58152,1,1,754,996
2241,15570906,1,-0.004693873,-0.004790963,0.005319216,-0.2080375,0.09531341,-9.649982,0,0,45.58152,1,1,754,996
2244,15573096,1,-0.002373338,-0.00481172,0.007469807,-0.2142709,0.1143482,-9.659890000000001,0,0,45.58171,1,1,754,996
2247,15575016,1,-0.002807622,-0.004661928,0.009671997,-0.2303915,0.1544184,-9.677519,0,0,45.58171,1,1,754,996
2250,15577936,1,-0.002445039,-0.006556257,0.008900464,-0.239382,0.188208,-9.685805,0,0,45.58171,1,1,754,996
2281,15580106,1,-0.0001886606,-0.007094057,0.005581799,-0.256718,0.2216268,-9.690129000000001,0,0,45.58171,1,1,754,996
2284,15583082,1,0.0009307268,-0.006675771,0.004338586,-0.2656872,0.2284352,-9.698689999999999,0,0,45.58191,1,1,754,996
2288,15585471,1,0.002547086,-0.00360044,0.002955938,-0.2664723,0.2311089,-9.721154,0,0,45.58191,1,1,754,996
2294,15587967,1,0.002102571,-0.003004069,0.003099485,-0.272258,0.2278668,-9.727562000000001,0,0,45.58191,1,1,754,996
2326,15590287,1,-0.003303685,-0.004626974,0.001427813,-0.2867872,0.2121017,-9.737427,0,0,45.58191,1,1,754,996
2330,15593117,1,-0.00430982,-0.00472186,-0.0005133547,-0.3028223,0.2127487,-9.749336,0,0,45.58191,1,1,754,996
2333,15595624,1,-0.003543351,-0.002590739,-0.002733533,-0.3282807,0.2171538,-9.786536,0,0,45.58213,1,1,754,996
2336,15598166,1,-0.002444797,-0.0007571994,-0.0005454945000000001,-0.346107,0.2211485,-9.817332,0,0,45.58213,1,1,754,996
2367,15600582,1,-0.002289488,-0.0002784073,0.0005051651000000001,-0.3663229,0.222373,-9.842991,0,0,45.58213,1,1,754,996
2371,15602933,1,-0.003235366,0.003177768,-0.002445274,-0.3823075,0.206909,-9.858067999999999,0,0,45.58213,1,1,754,996
2374,15605336,1,-0.003786253,0.006368155,-0.001952346,-0.3904365,0.1924276,-9.873899,0,0,45.5824,1,1,754,996
2377,15608328,1,-0.002355931,0.007059741,0.00260693,-0.390925,0.1661369,-9.869317000000001,0,0,45.5824,1,1,754,996
2408,15611061,1,-0.0006710247,0.003582798,0.004896699,-0.3740252,0.1476976,-9.841551000000001,0,0,45.5824,1,1,754,996
2415,15613297,1,0.0002134081,-0.001616198,0.00581172,-0.3428683,0.117084,-9.804216,0,0,45.5824,1,1,754,996
2418,15615677,1,-5.986819e-06,-0.003220041,0.006262559,-0.322323,0.1080348,-9.790552,0,0,45.58271,1,1,754,996
2421,15618338,1,0.002293589,-0.005220909,0.007975339,-0.3015458,0.1107697,-9.791461,0,0,45.58271,1,1,754,996
2452,15621169,1,0.003496636,-0.005366195,0.007990613000000001,-0.2962318,0.1153175,-9.791052000000001,0,0,45.58271,1,1,754,996
2455,15622891,1,0.005808042,-0.004460484,0.005142597,-0.2785912,0.1241835,-9.777323000000001,0,0,45.58271,1,1,754,996
2458,15625853,1,0.007051898,-0.003121697,-0.00061605,-0.2755029,0.1324015,-9.763088,0,0,45.58271,1,1,754,996
2461,15628020,1,0.007623994,-0.00315833,-0.005321233,-0.278963,0.14425,-9.741617,0,0,45.58304,1,1,754,996
2492,15630615,1,0.007379841,0.0002052861,-0.006760772,-0.2885483,0.1465898,-9.740069,0,0,45.58304,1,1,754,996
2496,15637169,1,-0.002075195,0.007732651,-0.001680378,-0.3003937,0.1413719,-9.763339999999999,0,0,45.58304,1,1,754,996
2499,15638774,1,-0.004681787,0.006548638,0.001509031,-0.3074063,0.1404452,-9.785557000000001,0,0,45.58341,1,1,754,996
2530,15641301,1,-0.002760769,0.005132786,0.006417168,-0.3165742,0.1348265,-9.829580999999999,0,0,45.58341,1,1,754,996
2535,15644147,1,-0.0007614459,0.004115994,0.008866976,-0.3176229,0.1237457,-9.841142,0,0,45.58341,1,1,754,996
2538,15646054,1,0.0004925055999999999,0.00136306,0.008927216,-0.3052399,0.1069125,-9.823636,0,0,45.58341,1,1,754,996
2542,15648848,1,-0.0001370722,0.000686379,0.007107753,-0.3014012,0.1102526,-9.804992,0,0,45.58341,1,1,754,996
2573,15651309,1,0.0003259695,0.0006860463,0.002697747,-0.3160365,0.1213883,-9.775473,0,0,45.58381,1,1,754,996
2576,15654221,1,-0.0001854463,0.002655488,-0.0001808946,-0.3209485,0.1181849,-9.756213000000001,0,0,45.58381,1,1,754,996
2579,15656614,1,-0.0003474933,0.003201046,-0.0009930920000000001,-0.3113726,0.09916162000000001,-9.757816999999999,0,0,45.58381,1,1,754,996
2582,15658822,1,0.001562295,0.00290897,-7.377061e-05,-0.3020206,0.09612466,-9.767842,0,0,45.58381,1,1,754,996
2613,15661381,1,0.004451807,0.002529822,0.003259834,-0.299241,0.09722741999999999,-9.812087,0,0,45.58424,1,1,754,996
2617,15663658,1,0.006444834,0.002433951,0.005064202,-0.2915746,0.09216367,-9.858858,0,0,45.58424,1,1,754,996
2620,15666641,1,0.007559801,0.003652146,0.006749318,-0.2694779,0.08900573000000001,-9.915882999999999,0,0,45.58424,1,1,754,996
2623,15668831,1,0.007207923,0.004081612,0.007360505,-0.2589619,0.09011336,-9.935933,0,0,45.58424,1,1,754,996
2654,15672019,1,0.003570236,0.00190368,0.002027521,-0.2747775,0.08424047,-9.956474999999999,0,0,45.58471,1,1,754,996
2657,15673569,1,0.003121476,0.001472276,-0.002679333,-0.2900337,0.07409166,-9.955493000000001,0,0,45.58471,1,1,754,996
2660,15676067,1,0.00315519,0.001948484,-0.004255591,-0.2895884,0.0642572,-9.930861,0,0,45.58471,1,1,754,996
2663,15678808,1,0.002595227,0.003648449,-0.005537257,-0.2815261,0.06692882999999999,-9.898704,0,0,45.58471,1,1,754,996
2694,15681824,1,0.003481297,0.005234136,-0.002636392,-0.2685019,0.05099348,-9.85258,0,0,45.58471,1,1,754,996
2698,15684113,1,0.00552419,0.004559455,0.002121991,-0.2635902,0.02882586,-9.831597,0,0,45.58519,1,1,754,996
2701,15686242,1,0.006916073,0.003814348,0.006022543,-0.276343,-0.008349186999999999,-9.808752,0,0,45.58519,1,1,754,996
2708,15688877,1,0.007186893,0.00363979,0.006680564,-0.293117,-0.02080408,-9.800943,0,0,45.58519,1,1,754,996
2740,15691569,1,0.007363538,0.00373302,0.006481328,-0.3045174,-0.01094693,-9.791546,0,0,45.58519,1,1,754,996
2743,15694088,1,0.007605015,0.003440052,0.003290245,-0.3019424,0.001942121,-9.773046000000001,0,0,45.58519,1,1,754,996
2746,15696558,1,0.007690867,0.002015847,-1.105722e-05,-0.3041793,0.01517804,-9.729759,0,0,45.58567,1,1,754,996
2749,15698848,1,0.007675813,0.001532911,-0.0008367858,-0.310224,0.023881,-9.698669000000001,0,0,45.58567,1,1,754,996
2780,15701269,1,0.00679238,0.001403248,-0.0004966989,-0.2930487,0.05156209,-9.668035,0,0,45.58567,1,1,754,996
2784,15703601,1,0.004760663,0.001099115,0.001810241,-0.2742143,0.067889,-9.650128,0,0,45.58567,1,1,754,996
2787,15706720,1,0.001189681,0.003477771,0.005005747,-0.2297136,0.08272834,-9.648205000000001,0,0,45.58612,1,1,754,996
2790,15709226,1,-0.0005814999,0.007015209,0.004367143,-0.2041524,0.09303652,-9.65978,0,0,45.58612,1,1,754,996
2821,15711456,1,-0.0001772722,0.008799822000000001,0.003279923,-0.208123,0.1260392,-9.68994,0,0,45.58612,1,1,754,996
2825,15713618,1,-0.0004830156,0.009290415999999999,0.00165725,-0.2157642,0.1489543,-9.692278999999999,0,0,45.58612,1,1,754,996
2828,15716083,1,-0.002046214,0.008013777,-0.0006795914,-0.2328629,0.1678167,-9.689622999999999,0,0,45.58656,1,1,754,996
2831,15718894,1,-0.001473451,0.007400732,-0.001812622,-0.2480282,0.1761048,-9.69276,0,0,45.58656,1,1,754,996
2862,15721919,1,0.001564572,0.006274749,-0.003239319,-0.2710707,0.1661853,-9.692905,0,0,45.58656,1,1,754,996
2865,15724014,1,0.003620327,0.003927594,-0.001859651,-0.2849102,0.1501312,-9.689608,0,0,45.58656,1,1,754,996
2868,15726616,1,0.004954203,0.003188904,0.0008978543,-0.2913988,0.1223305,-9.693312000000001,0,0,45.58656,1,1,754,996
2871,15728920,1,0.004710105,0.003534077,0.002190297,-0.2968681,0.1051642,-9.703110000000001,0,0,45.58698,1,1,754,996
2902,15731621,1,0.002773025,0.003121695,0.0006342029,-0.3073931,0.08667647000000001,-9.699786,0,0,45.58698,1,1,754,996
2907,15735046,1,0.0004542852,0.001546915,-0.002876842,-0.3104414,0.07422711999999999,-9.687999,0,0,45.58698,1,1,754,996
2910,15736757,1,-0.003337314,-0.0005586959,-0.005128406,-0.3180406,0.07487737,-9.679955,0,0,45.58698,1,1,754,996
2913,15738788,1,-0.004450166,-0.0005692826,-0.004274842,-0.3224433,0.08360608999999999,-9.685942000000001,0,0,45.58739,1,1,754,996
2946,15741585,1,-0.002470628,-0.001724861,0.001012538,-0.3243825,0.09365372,-9.709496,0,0,45.58739,1,1,754,996
2949,15743783,1,-0.0006020251,-0.001701673,0.002257772,-0.3233524,0.09632099,-9.726649,0,0,45.58739,1,1,754,996
2952,15746605,1,0.002951648,-0.0003808433,0.004627355,-0.3223751,0.08882853,-9.744828,0,0,45.58739,1,1,754,996
2955,15748825,1,0.005403041,-0.0009252756,0.006023708,-0.3090216,0.07827571,-9.749763,0,0,45.58739,1,1,754,996
2986,15751609,1,0.006601253,-0.001972943,0.0045272,-0.2772273,0.05691325,-9.762935000000001,0,0,45.58779,1,1,754,996
2991,15756787,1,0.00416418,-0.002508363,0.0009073124,-0.2235639,0.02367673,-9.792804,0,0,45.58779,1,1,754,996
2994,15758927,1,0.002544526,-0.00153265,0.0004643993,-0.2129368,0.02642139,-9.822129,0,0,45.58779,1,1,754,996
3025,15761842,1,-0.001280552,0.0003830802,-0.0005396204,-0.2119632,0.03914114,-9.850598,0,0,45.58819,1,1,754,996
3029,15764447,1,-0.005662388,0.0006012467,0.0005507751,-0.2121887,0.06928624,-9.876772000000001,0,0,45.58819,1,1,754,996
3033,15766457,1,-0.00713343,0.0009342129,0.002004856,-0.2168289,0.08989662,-9.882469,0,0,45.58819,1,1,754,996
3036,15769297,1,-0.007908846000000001,0.003582063,0.004742426,-0.2228291,0.09121353,-9.884259,0,0,45.58819,1,1,754,996
3067,15772097,1,-0.01026102,0.00404111,0.002707411,-0.2201198,0.08226894,-9.891500000000001,0,0,45.58856,1,1,754,996
3070,15774076,1,-0.00917479,0.002807059,0.00213702,-0.2221073,0.0865287,-9.902210999999999,0,0,45.58856,1,1,754,996
3073,15776781,1,-0.007479258,0.002493188,0.002148798,-0.2268538,0.09362951999999999,-9.90321,0,0,45.58856,1,1,754,996
3076,15779240,1,-0.003453787,0.003589025,0.002512675,-0.2160311,0.1064771,-9.889165,0,0,45.58856,1,1,754,996
3107,15782128,1,0.0005330571,0.004793413,0.003251371,-0.2071489,0.104231,-9.882182999999999,0,0,45.58856,1,1,754,996
3111,15783933,1,0.001546636,0.004626427,0.004624954,-0.2003648,0.08788718,-9.893250999999999,0,0,45.58891,1,1,754,996
3114,15786476,1,0.0004316036,0.0005508726,0.006655115,-0.2010885,0.0827806,-9.905345000000001,0,0,45.58891,1,1,754,996
3120,15789552,1,0.0004258106,-0.002458115,0.005762935,-0.2091249,0.08650304,-9.922098,0,0,45.58891,1,1,754,996
3154,15792115,1,0.001482138,-0.001667637,0.00437987,-0.2227613,0.09132111,-9.907268,0,0,45.58891,1,1,754,996
3158,15794893,1,0.002064168,-0.001083296,0.003257341,-0.2318577,0.09256473,-9.890485999999999,0,0,45.58924,1,1,754,996
3161,15797046,1,0.001837641,-0.0006116217,0.002927142,-0.2472478,0.09623651,-9.878346000000001,0,0,45.58924,1,1,754,996
3164,15799346,1,0.0001131421,-0.002069323,0.003150859,-0.271851,0.09349829,-9.875076999999999,0,0,45.58924,1,1,754,996
3195,15802238,1,-0.001631221,-0.002255649,0.00231185,-0.3055979,0.08473372,-9.866269000000001,0,0,45.58924,1,1,754,996
3199,15804242,1,-0.001398211,-0.0007949017,0.001736894,-0.3194315,0.09143823,-9.856232,0,0,45.58958,1,1,754,996
3202,15807267,1,0.0003610376,0.005492298,-0.0007932485,-0.3329548,0.1043167,-9.857529,0,0,45.58958,1,1,754,996
3205,15809455,1,0.001486117,0.009595648999999999,-0.002443923,-0.3319209,0.1026789,-9.845952,0,0,45.58958,1,1,754,996
3236,15812027,1,-0.0007249013,0.009334392,-0.001512627,-0.3115972,0.1017377,-9.815505999999999,0,0,45.58958,1,1,754,996
3240,15814729,1,-0.002448626,0.009537446999999999,0.0006555538,-0.2931684,0.1053149,-9.8154,0,0,45.58958,1,1,754,996
3243,15817013,1,-0.000181743,0.01018752,0.003437082,-0.2730888,0.1096223,-9.816060999999999,0,0,45.58991,1,1,754,996
3246,15820056,1,0.001374471,0.007973516999999999,0.005236516,-0.2693408,0.107558,-9.82267,0,0,45.58991,1,1,754,996
3277,15822554,1,0.000305087,0.004114915,0.006422429,-0.2603428,0.09547976,-9.839842000000001,0,0,45.58991,1,1,754,996
3282,15825083,1,-0.001160383,-0.0005214011,0.007291997,-0.2469364,0.1087901,-9.852798,0,0,45.58991,1,1,754,996
3285,15827264,1,-0.002934918,-0.002590179,0.00558113,-0.2397568,0.1167377,-9.864812000000001,0,0,45.59024,1,1,754,996
3288,15832675,1,-0.001810605,-0.0009189723,0.005822412,-0.2075648,0.1323966,-9.896115999999999,0,0,45.59024,1,1,754,996
3319,15835274,1,0.0004159757,-4.832203e-05,0.00557988,-0.1997076,0.1360416,-9.923389999999999,0,0,45.59024,1,1,754,996
3322,15841055,1,0.001968647,0.0008221249,-0.0001894962,-0.2298378,0.1509154,-9.971273999999999,0,0,45.59058,1,1,754,996
3325,15842938,1,0.001062225,0.001774856,-0.002545444,-0.2347204,0.1450593,-9.944146999999999,0,0,45.59058,1,1,754,996
3357,15845233,1,0.0004126948,0.0005337061,-0.002522109,-0.233979,0.1373376,-9.919612000000001,0,0,45.59058,1,1,754,996
3360,15847929,1,-0.0005615597,-0.003257697,-0.001057329,-0.2204333,0.1188042,-9.886581,0,0,45.59093,1,1,754,996
3363,15850730,1,-0.0004038148,-0.003847005,-0.0003516221,-0.2155754,0.1090825,-9.868831,0,0,45.59093,1,1,754,996
3367,15853284,1,0.0002331295,-0.0009244407,0.001906238,-0.232725,0.1133855,-9.840699000000001,0,0,45.59093,1,1,754,996
3399,15855280,1,-0.0002358664,0.001137808,0.002895354,-0.2405035,0.115249,-9.827681999999999,0,0,45.59093,1,1,754,996
3402,15857900,1,-3.743824e-05,-0.0001940826,0.003043394,-0.2584356,0.1133228,-9.786587000000001,0,0,45.59093,1,1,754,996
3405,15860553,1,0.0005200948,-0.002071585,0.003909604,-0.2649493,0.1098402,-9.774380000000001,0,0,45.59128,1,1,754,996
3408,15863448,1,0.00168986,-0.004811134,0.005061687,-0.2646984,0.1067594,-9.772643,0,0,45.59128,1,1,754,996
3439,15865913,1,0.00144918,-0.003729126,0.003248526,-0.2616563,0.1010365,-9.761486,0,0,45.59128,1,1,754,996
3442,15867866,1,-0.004194367,-0.0008054668,0.0002007713,-0.2675321,0.09337328,-9.753894000000001,0,0,45.59128,1,1,754,996
3445,15870230,1,-0.005459371,-8.251269000000001e-05,0.0003499629,-0.2690693,0.09836565999999999,-9.753890999999999,0,0,45.59128,1,1,754,996
3448,15872892,1,-0.003525152,-0.0001839203,0.001303,-0.2617207,0.1058876,-9.755742,0,0,45.59162,1,1,754,996
3479,15875829,1,0.00157913,-0.002541544,0.0016807,-0.264464,0.1113589,-9.766068000000001,0,0,45.59162,1,1,754,996
3483,15878237,1,0.004769092,-0.003247545,0.0004572837,-0.2668508,0.1242774,-9.792925,0,0,45.59162,1,1,754,996
3486,15880291,1,0.005363636,-0.003133743,-0.002193923,-0.2684601,0.1297404,-9.800115,0,0,45.59162,1,1,754,996
3489,15883288,1,0.00511824,-0.003173034,-0.004700818,-0.2768233,0.1175976,-9.787933000000001,0,0,45.59196,1,1,754,996
3520,15885332,1,0.004942919,-0.00232299,-0.00424723,-0.2783016,0.1108886,-9.792401,0,0,45.59196,1,1,754,996
3523,15888544,1,0.005233683,0.0004552664,0.0002472954,-0.2728876,0.1053769,-9.810257999999999,0,0,45.59196,1,1,754,996
3529,15891017,1,0.005214297,0.0007121418,0.001108139,-0.2641825,0.0915446,-9.809855000000001,0,0,45.59196,1,1,754,996
3533,15893091,1,0.003888196,0.001574678,0.003021797,-0.2446849,0.08190532,-9.792821,0,0,45.5923,1,1,754,996
3564,15895147,1,0.003446379,0.003981471,0.00265389,-0.2359352,0.08179636999999999,-9.786139,0,0,45.5923,1,1,754,996
3568,15897880,1,0.001034103,0.005325029,0.002220539,-0.2248392,0.0689251,-9.77389,0,0,45.5923,1,1,754,996
3571,15900845,1,-0.002029615,0.005794554,0.0005073628,-0.2218169,0.05616136,-9.757334999999999,0,0,45.5923,1,1,754,996
3574,15903274,1,-0.001529348,0.004435395,4.802527e-05,-0.2238381,0.02946592,-9.738151999999999,0,0,45.5923,1,1,754,996
3605,15905538,1,-0.0009930352,0.003390553,0.0003301658,-0.2257857,0.0133972,-9.736205999999999,0,0,45.59263,1,1,754,996
3609,15908037,1,-0.001553765,-0.002020098,0.003726433,-0.2286651,0.002699373,-9.745761,0,0,45.59263,1,1,754,996
3613,15910603,1,-0.002157069,-0.002397507,0.005600543,-0.2289518,-0.003990807,-9.744232999999999,0,0,45.59263,1,1,754,996
3616,15913166,1,-0.0009618594,0.002358318,0.007519864,-0.2393491,-0.008346401999999999,-9.705012999999999,0,0,45.59263,1,1,754,996
3647,15915840,1,-0.0001850841,0.003518322,0.006223903,-0.2487982,-0.01098436,-9.682589999999999,0,0,45.59295,1,1,754,996
3650,15917978,1,0.0008370518,0.006084236,0.003051449,-0.2526188,-0.004838855,-9.652520000000001,0,0,45.59295,1,1,754,996
3653,15920601,1,0.001126131,0.006810564,0.0004452148,-0.2475901,-0.001681595,-9.63288,0,0,45.59295,1,1,754,996
3658,15923221,1,-0.0008120681,0.005586541,0.001720591,-0.2249098,-0.01118693,-9.6058,0,0,45.59295,1,1,754,996
3689,15925860,1,-0.001780741,0.003557037,0.005586796,-0.2106809,-0.01627035,-9.601084,0,0,45.59295,1,1,754,996
3693,15930670,1,0.003165099,0.004079382,0.007795665,-0.1920135,0.004613212,-9.653822999999999,0,0,45.59325,1,1,754,996
3696,15933229,1,0.001133014,0.004993921,0.009506931,-0.1920125,0.009321980000000001,-9.706139,0,0,45.59325,1,1,754,996
3727,15938283,1,-0.005327688,0.005331448,0.006960547,-0.2134233,0.001327749,-9.807836999999999,0,0,45.59356,1,1,754,996
3730,15941014,1,-0.007668299,0.001921488,0.001290809,-0.2274077,0.03119849,-9.839831999999999,0,0,45.59356,1,1,754,996
3733,15944089,1,-0.007920547999999999,0.0007485921,0.0005288687,-0.2362995,0.05414336,-9.852903,0,0,45.59356,1,1,754,996
3764,15946016,1,-0.007018892,-0.001402782,0.001037143,-0.2333894,0.07300387,-9.853338000000001,0,0,45.59356,1,1,754,996
3767,15949135,1,-0.006808516,-0.001219442,0.0009874238999999999,-0.2277279,0.08249708,-9.846237,0,0,45.59383,1,1,754,996
3771,15951654,1,-0.007565962,0.002062441,-0.001041324,-0.221994,0.09566371,-9.836214,0,0,45.59383,1,1,754,996
3775,15954019,1,-0.008563022,0.007503359,-0.004349661,-0.2119028,0.1100015,-9.810119,0,0,45.59383,1,1,754,996
3806,15956620,1,-0.008776834000000001,0.007600453,-0.004570301,-0.2087427,0.1151636,-9.79096,0,0,45.59383,1,1,754,996
3809,15958882,1,-0.008916053,0.005799225,-0.0037458,-0.2150407,0.110658,-9.771239,0,0,45.59383,1,1,754,996
3813,15961297,1,-0.007056112,0.002896042,-0.002205569,-0.2335746,0.1092567,-9.751245000000001,0,0,45.59408,1,1,754,996
3816,15963917,1,-0.002346983,0.002714528,-0.001236326,-0.2480244,0.1197837,-9.750603999999999,0,0,45.59408,1,1,754,996
3847,15966595,1,0.003286767,0.003923106,-0.0008971611,-0.2745019,0.1329475,-9.761246999999999,0,0,45.59408,1,1,754,996
3850,15968900,1,0.005389794,0.004818822,-0.001357469,-0.2878336,0.1418021,-9.769428,0,0,45.59408,1,1,754,996
3853,15971752,1,0.00598885,0.007078604,-0.003624307,-0.29543,0.1430902,-9.784063,0,0,45.5943,1,1,754,996
3856,15974109,1,0.002361905,0.003988212,-0.006571616,-0.2920053,0.1354115,-9.803855,0,0,45.5943,1,1,754,996
3887,15976634,1,0.002215462,0.001507047,-0.006100556,-0.2862152,0.1336649,-9.803324,0,0,45.5943,1,1,754,996
3890,15979141,1,0.002959731,-0.002856411,-0.003079233,-0.2831314,0.1370342,-9.804364,0,0,45.5943,1,1,754,996
3894,15981641,1,0.003320112,-0.003720507,0.0002875744,-0.2850201,0.157281,-9.816832,0,0,45.59449,1,1,754,996
3897,15983700,1,0.0003445863,-0.001704516,0.003640147,-0.2758366,0.1574392,-9.858904000000001,0,0,45.59449,1,1,754,996
3928,15986610,1,-0.003589135,0.0007562662,0.00566315,-0.2680793,0.1475796,-9.866713000000001,0,0,45.59449,1,1,754,996
3931,15989034,1,-0.00532475,0.001608358,0.006163152,-0.262913,0.1338394,-9.865529,0,0,45.59449,1,1,754,996
3937,15992089,1,-0.004224433,0.001076535,0.005697921,-0.2676075,0.09983392000000001,-9.837229000000001,0,0,45.59449,1,1,754,996
3941,15994117,1,-0.002134191,-0.003012663,0.002433139,-0.268354,0.07367772,-9.825443,0,0,45.59467,1,1,754,996
3972,15996156,1,-0.001034394,-0.004282308,0.00214939,-0.263157,0.05915163,-9.837051000000001,0,0,45.59467,1,1,754,996
3975,15998916,1,0.002352576,-0.003591153,0.005198755,-0.2598204,0.04520185,-9.846508999999999,0,0,45.59467,1,1,754,996
3979,16001300,1,0.004236284,-0.002391216,0.008195709000000001,-0.2580944,0.03215648,-9.849171,0,0,45.59467,1,1,754,996
3982,16004133,1,0.004771029,-0.0004428464,0.007500299,-0.2626344,0.0290743,-9.810855999999999,0,0,45.59487,1,1,754,996
4013,16006777,1,0.004109688,0.0009980016999999999,0.007007212,-0.2632312,0.02332435,-9.766978999999999,0,0,45.59487,1,1,754,996
4016,16008857,1,0.003979501,0.00178698,0.007389449,-0.2615159,0.01157205,-9.724024999999999,0,0,45.59487,1,1,754,996
4019,16011316,1,0.00353018,0.001497146,0.006378236,-0.2617873,-0.008147557,-9.68647,0,0,45.59487,1,1,754,996
4023,16013834,1,0.00366342,-0.0006433488,0.005284923,-0.2620266,-0.01180504,-9.680939,0,0,45.59487,1,1,754,996
4056,16016849,1,0.003948824,-0.0005014963,0.005966701,-0.2580337,-0.007036741,-9.683565,0,0,45.5951,1,1,754,996
4059,16019047,1,0.005000934,0.0007889027,0.006884936,-0.2521337,0.002882782,-9.679569000000001,0,0,45.5951,1,1,754,996
4063,16021686,1,0.005161305,0.001012455,0.005191758,-0.238652,0.02105095,-9.676754000000001,0,0,45.5951,1,1,754,996
4066,16023718,1,0.004609624,0.0003848281,0.003092513,-0.2325438,0.0588591,-9.694421,0,0,45.5951,1,1,754,996
4097,16026093,1,0.003890175,-0.0008889658,0.003117996,-0.2375123,0.07847216999999999,-9.708644,0,0,45.59538,1,1,754,996
4100,16029460,1,0.003312176,-0.001165354,0.002773398,-0.2461156,0.08480658000000001,-9.712247,0,0,45.59538,1,1,754,996
4104,16031333,1,0.001872528,0.0003790259,0.0008239936,-0.262322,0.07473444,-9.702956,0,0,45.59538,1,1,754,996
4107,16034011,1,0.0007895852000000001,0.002049355,-7.250109e-05,-0.2623152,0.06689051,-9.666162,0,0,45.59538,1,1,754,996
4138,16036659,1,0.0007866492,0.001980004,0.0004085692,-0.2630309,0.06267473,-9.652751,0,0,45.59538,1,1,754,996
4141,16039089,1,0.001676962,0.001024998,0.002925417,-0.2603726,0.05279657,-9.641444,0,0,45.59566,1,1,754,996
4144,16044079,1,0.001654608,-0.00170842,0.005816675,-0.2199003,0.07667464,-9.673765,0,0,45.59566,1,1,754,996
4175,16046894,1,0.001217424,-0.001195649,0.004821717,-0.2158029,0.08828158,-9.700488999999999,0,0,45.59566,1,1,754,996
4178,16048843,1,0.001890983,0.0008718732,0.002284331,-0.210665,0.09420399,-9.726367,0,0,45.59593,1,1,754,996
4183,16051129,1,0.001993244,0.002183712,-0.0003632121,-0.2061589,0.08997794000000001,-9.746577,0,0,45.59593,1,1,754,996
4186,16054074,1,0.001043369,0.002379656,0.0005230842,-0.2106377,0.06884208999999999,-9.759801,0,0,45.59593,1,1,754,996
4217,16056076,1,0.0005726526,0.004413228,0.002984161,-0.2193102,0.0542859,-9.772943,0,0,45.59593,1,1,754,996
4220,16058928,1,0.0009898858000000001,0.005076224,0.003552264,-0.2306698,0.04825717,-9.786555999999999,0,0,45.59593,1,1,754,996
4224,16061880,1,0.002026962,0.004855865,0.003350888,-0.244148,0.04517001,-9.791899000000001,0,0,45.59618,1,1,754,996
4227,16065052,1,0.001558985,0.002563439,-0.001270473,-0.2547889,0.05196168,-9.773522,0,0,45.59618,1,1,754,996
4230,16066742,1,0.001202634,0.0007419497,-0.003256059,-0.2616323,0.05879223,-9.753567,0,0,45.59618,1,1,754,996
4261,16068897,1,0.001429065,0.002588465,-0.006662272,-0.2742074,0.08294923999999999,-9.727349999999999,0,0,45.59618,1,1,754,996
4265,16071919,1,0.0008802707,0.005295268,-0.006955191,-0.2806812,0.09475815,-9.714956000000001,0,0,45.59639,1,1,754,996
4269,16074088,1,-0.001575425,0.008234244999999999,-0.006797912,-0.2929245,0.1007402,-9.709825,0,0,45.59639,1,1,754,996
4272,16077059,1,-0.002717881,0.00682581,-0.003905217,-0.3000313,0.09094801,-9.70917,0,0,45.59639,1,1,754,996
4303,16080103,1,-0.001471338,0.004129234,0.000664014,-0.3014049,0.05241454,-9.695494999999999,0,0,45.59639,1,1,754,996
4306,16081322,1,-0.002394674,0.001440448,0.003072435,-0.2664281,0.02018237,-9.700585999999999,0,0,45.59658,1,1,754,996
4309,16084297,1,-0.003315953,0.0002766806,0.003196684,-0.2416918,0.006259645,-9.701328,0,0,45.59658,1,1,754,996
4312,16086912,1,-0.003351834,-0.001401906,0.003542769,-0.2298877,6.112354e-05,-9.702133999999999,0,0,45.59658,1,1,754,996
4343,16089603,1,-0.002538975,-0.004146255,0.003907986,-0.2202843,-0.004006295,-9.716455,0,0,45.59658,1,1,754,996
4350,16092574,1,-0.002047899,-0.004292325,0.00382413,-0.2294853,0.004617481,-9.746880000000001,0,0,45.59658,1,1,754,996
4354,16094638,1,-0.002880566,-0.003686602,0.003162354,-0.2602961,0.016381,-9.818232999999999,0,0,45.59674,1,1,754,996
4357,16096667,1,-0.004688781,-0.001104313,0.002175558,-0.2853026,0.03134007,-9.85139,0,0,45.59674,1,1,754,996
4388,16099014,1,-0.004488138,0.001432634,0.002097757,-0.3150924,0.05045106,-9.883137,0,0,45.59674,1,1,754,996
4392,16102256,1,-0.003055839,0.002464355,0.004308605,-0.3380224,0.05477769,-9.909753,0,0,45.59674,1,1,754,996
4395,16104575,1,-0.0002807391,-0.001238209,0.006213152,-0.3506661,0.06797228,-9.94882,0,0,45.59689,1,1,754,996
4398,16106850,1,0.0007766858,-0.004111229,0.006352304,-0.3377776,0.06994984,-9.971169,0,0,45.59689,1,1,754,996
4429,16108963,1,0.002295664,-0.006983232,0.005083187,-0.3076153,0.07202457,-9.974078,0,0,45.59689,1,1,754,996
4432,16112123,1,0.002653042,-0.005823976,0.005013572,-0.2830897,0.07638589,-9.968089000000001,0,0,45.59689,1,1,754,996
4435,16114597,1,0.002018358,-0.004315659,0.005569686,-0.2557437,0.08685853,-9.954418,0,0,45.59703,1,1,754,996
4438,16117216,1,-0.0005913106,-0.002395419,0.005648495,-0.2497466,0.09175008,-9.941314999999999,0,0,45.59703,1,1,754,996
4469,16119307,1,-0.003564121,-0.001940242,0.002690995,-0.2504021,0.09961142000000001,-9.915794999999999,0,0,45.59703,1,1,754,996
4473,16121936,1,-0.006434687,1.054066e-06,-0.003870561,-0.2587296,0.09559028999999999,-9.899194,0,0,45.59703,1,1,754,996
4476,16124697,1,-0.007333674,0.00107583,-0.00458141,-0.2591076,0.09139083000000001,-9.892830999999999,0,0,45.59703,1,1,754,996
4481,16130274,1,-0.0007688639,0.003151007,0.002104303,-0.2506355,0.06740806000000001,-9.892175,0,0,45.59715,1,1,754,996
4484,16132450,1,0.001371855,0.002454808,0.002936021,-0.2496864,0.0648334,-9.874237000000001,0,0,45.59715,1,1,754,996
4515,16134292,1,0.004042764,0.001405326,0.003155084,-0.2522011,0.05927596,-9.839535,0,0,45.59715,1,1,754,996
4518,16136853,1,0.003412836,0.001644376,0.002474048,-0.2609201,0.05380861,-9.782211,0,0,45.59726,1,1,754,996
4521,16140567,1,0.003052261,0.001687477,0.001868414,-0.2692756,0.05719817,-9.753511,0,0,45.59726,1,1,754,996
4524,16143164,1,0.003011423,0.003212501,0.002294584,-0.294363,0.0872843,-9.707158,0,0,45.59726,1,1,754,996
4527,16144575,1,0.003478145,0.004356665,0.003512397,-0.3090542,0.1073688,-9.679205,0,0,45.59726,1,1,754,996
4558,16147092,1,0.004956147,0.005112924,0.005533842,-0.3183496,0.1210123,-9.640763,0,0,45.59735,1,1,754,996
4561,16149775,1,0.004705439,0.005435179,0.006727415,-0.3212009,0.1240823,-9.61919,0,0,45.59735,1,1,754,996
4564,16152726,1,0.001194376,0.004127985,0.007979808,-0.3264277,0.115012,-9.620404000000001,0,0,45.59735,1,1,754,996
4567,16155118,1,-0.003707437,0.002785431,0.005719172,-0.3225938,0.1036272,-9.648235,0,0,45.59735,1,1,754,996
4598,16157201,1,-0.006977149,0.001048463,0.002546496,-0.3011638,0.09534906999999999,-9.696014999999999,0,0,45.59735,1,1,754,996
4601,16159984,1,-0.004272908,-0.0007280047,0.002346015,-0.2800501,0.08341533,-9.743062999999999,0,0,45.59742,1,1,754,996
4605,16162332,1,-0.0002118047,-0.0002341438,0.001667904,-0.2749298,0.07536182,-9.757125,0,0,45.59742,1,1,754,996
4608,16165240,1,0.003122245,0.0002875039,0.001462192,-0.2673295,0.06770331,-9.768656,0,0,45.59742,1,1,754,996
4639,16167881,1,0.00283081,0.001217341,0.0009453906,-0.2656184,0.06722045,-9.770844,0,0,45.59742,1,1,754,996
4642,16169820,1,0.001668168,0.004086949,0.001441794,-0.2723446,0.06462179,-9.789239,0,0,45.59747,1,1,754,996
4647,16172600,1,0.001470977,0.005155868,0.001601403,-0.2831907,0.06658991,-9.802152,0,0,45.59747,1,1,754,996
4650,16175027,1,0.001031878,0.007218407,0.0005327389,-0.2923925,0.07681194,-9.809029000000001,0,0,45.59747,1,1,754,996
4681,16177935,1,0.001015289,0.007288259,0.001396743,-0.2929597,0.08356659,-9.811477999999999,0,0,45.59747,1,1,754,996
4684,16180140,1,0.002644859,0.006110703,0.003818084,-0.283159,0.09417948,-9.827616000000001,0,0,45.59748,1,1,754,996
4687,16182709,1,0.003578145,0.006077832,0.005501936,-0.2696891,0.09197927,-9.840824,0,0,45.59748,1,1,754,996
4690,16184716,1,0.001486808,0.005543373,0.005895108,-0.2478408,0.08119961000000001,-9.866277999999999,0,0,45.59748,1,1,754,996
4721,16187360,1,0.0005602985,0.004960541,0.007115991,-0.2401059,0.07932069999999999,-9.868073000000001,0,0,45.59748,1,1,754,996
4724,16190149,1,0.001519191,0.003883922,0.008545508,-0.2472143,0.08573478,-9.853982999999999,0,0,45.59748,1,1,754,996
4731,16192866,1,0.001806291,0.00253026,0.007640405,-0.2564241,0.09221891,-9.848502999999999,0,0,45.59749,1,1,754,996
4735,16195247,1,0.002093114,0.001966926,0.0024947,-0.2724149,0.09721476,-9.851716,0,0,45.59749,1,1,754,996
4766,16197457,1,0.002189134,0.002816542,0.003230337,-0.2840982,0.1069007,-9.843589,0,0,45.59749,1,1,754,996
4769,16200101,1,0.00304956,0.004449276,0.007287712,-0.2946897,0.1192837,-9.823226,0,0,45.59749,1,1,754,996
4772,16202837,1,0.005066297,0.005949594,0.0073394,-0.289168,0.1242327,-9.810086,0,0,45.5975,1,1,754,996
4775,16204850,1,0.00583277,0.004863014,0.004281443,-0.2806582,0.1236156,-9.798795,0,0,45.5975,1,1,754,996
4806,16207880,1,0.004728613,0.00246262,0.002312529,-0.2751208,0.1099769,-9.785114999999999,0,0,45.5975,1,1,754,996
4809,16209733,1,0.002789228,0.0003407864,0.00105687,-0.2740915,0.0774726,-9.772615,0,0,45.5975,1,1,754,996
4813,16212313,1,0.0008960392,-0.0009868692999999999,-0.0001896931,-0.2791187,0.06086411,-9.765834999999999,0,0,45.5975,1,1,754,996
4817,16215179,1,0.0004130374,-0.001131389,-0.0003302479,-0.2829168,0.0525663,-9.764602,0,0,45.5975,1,1,754,996
4848,16217219,1,0.0006705017,-0.001382183,-0.0008246764,-0.2813295,0.05343573,-9.769821,0,0,45.5975,1,1,754,996
4851,16219901,1,0.0008151159,0.0009149851,-0.003700801,-0.2847101,0.05980816,-9.763254,0,0,45.5975,1,1,754,996
4854,16222663,1,0.0005388976,0.001139718,-0.003865381,-0.2814955,0.06168317,-9.764552,0,0,45.5975,1,1,754,996
4857,16225254,1,0.0006280754,0.0005216332,-0.0009793239999999999,-0.2770824,0.06061532,-9.768774000000001,0,0,45.59751,1,1,754,996
4888,16228018,1,0.000913545,0.001644612,0.001137057,-0.282215,0.05922369,-9.777950000000001,0,0,45.59751,1,1,754,996
4891,16229776,1,-0.000383368,0.0041749,-0.0005669363,-0.2908719,0.05522623,-9.784566999999999,0,0,45.59751,1,1,754,996
4895,16232306,1,-0.0008935782,0.006068351,-0.001718223,-0.2948657,0.05851498,-9.767116,0,0,45.59751,1,1,754,996
4898,16235553,1,-0.0009644377,0.007297526,-0.002860831,-0.2924002,0.06828391,-9.735828,0,0,45.59756,1,1,754,996
4929,16237672,1,-0.0005023233,0.007333823,-0.00274509,-0.2910833,0.07162341,-9.725040999999999,0,0,45.59756,1,1,754,996
4932,16242724,1,0.0008812528,0.001698432,-0.002525416,-0.2885269,0.08343576,-9.707352,0,0,45.59756,1,1,754,996
4936,16245069,1,0.002061523,-0.0007273181000000001,-0.005317321,-0.2903109,0.1027148,-9.714953,0,0,45.59756,1,1,754,996
4967,16249784,1,0.003038632,-0.0005800202,-0.008380901,-0.3003102,0.1401132,-9.731125,0,0,45.59765,1,1,754,996
4970,16252731,1,0.002570969,-0.002432136,-0.005005347,-0.3063776,0.1485841,-9.746403000000001,0,0,45.59765,1,1,754,996
4973,16255103,1,0.001882158,-0.0008955054,-0.002874382,-0.3189348,0.158181,-9.749397999999999,0,0,45.59765,1,1,754,996
5004,16257158,1,0.0007061459,0.0004516045,-0.001634134,-0.3265165,0.1675183,-9.741471000000001,0,0,45.59773,1,1,754,996
5007,16260453,1,0.001143774,-0.001774809,-0.002274931,-0.3467525,0.1689527,-9.735996,0,0,45.59773,1,1,754,996
5010,16262289,1,0.001245085,-0.002176727,-0.002311993,-0.3588515,0.1658579,-9.727510000000001,0,0,45.59773,1,1,754,996
5015,16264866,1,0.00308389,-0.0007152727,-0.001178125,-0.3635153,0.171327,-9.735753000000001,0,0,45.59773,1,1,754,996
5046,16268054,1,0.004241346,0.0003628741,-0.001123577,-0.350044,0.1744778,-9.758343,0,0,45.59773,1,1,754,996
5049,16269896,1,0.005604311,0.002918061,-0.000621755,-0.3155124,0.1672679,-9.79528,0,0,45.59779,1,1,754,996
5053,16272576,1,0.003150452,0.005213782,0.002012507,-0.2999329,0.1601401,-9.815083,0,0,45.59779,1,1,754,996
5057,16275239,1,-0.0007730937,0.007825510000000001,0.00436593,-0.2820087,0.1392686,-9.842843,0,0,45.59779,1,1,754,996
5088,16277857,1,-0.001824037,0.006875526,0.005160783,-0.2732005,0.1229399,-9.852691999999999,0,0,45.59779,1,1,754,996
5091,16279747,1,-0.002023401,0.004265676,0.003646232,-0.262535,0.09890276000000001,-9.826283999999999,0,0,45.59784,1,1,754,996
5094,16282270,1,-0.002575541,0.003533002,0.003052672,-0.2586572,0.07680177000000001,-9.794465000000001,0,0,45.59784,1,1,754,996
5097,16284787,1,-0.003042409,0.002013052,0.004409066,-0.2561103,0.06936222,-9.754196,0,0,45.59784,1,1,754,996
5128,16288033,1,-0.003363654,0.001502093,0.005645819,-0.2623032,0.08164638,-9.742839999999999,0,0,45.59784,1,1,754,996
5131,16290175,1,-0.004458585,-0.00159981,0.006181512,-0.2741576,0.1019406,-9.740732,0,0,45.59784,1,1,754,996
5137,16292808,1,-0.003475026,-0.002755015,0.004980288,-0.2858815,0.1383147,-9.727479000000001,0,0,45.59789,1,1,754,996
5142,16294869,1,-0.001260804,-0.001561967,0.00361484,-0.3018193,0.1664554,-9.698880000000001,0,0,45.59789,1,1,754,996
5173,16298028,1,0.0009732764000000001,0.0007573803,0.006522254,-0.3050074,0.1817326,-9.684763,0,0,45.59789,1,1,754,996
5176,16299672,1,0.0005785737,0.000703493,0.009426845999999999,-0.3064302,0.1924426,-9.684056999999999,0,0,45.59789,1,1,754,996
5179,16302710,1,0.0008499545,-0.002570404,0.01031991,-0.3112045,0.1905252,-9.697647999999999,0,0,45.59795,1,1,754,996
5183,16304940,1,0.002829103,-0.004392796,0.0114869,-0.3189746,0.1665642,-9.739793000000001,0,0,45.59795,1,1,754,996
5214,16307257,1,0.003371884,-0.004241413,0.0119747,-0.3268993,0.1475301,-9.776915000000001,0,0,45.59795,1,1,754,996
5217,16310165,1,0.0007742657,-0.002993496,0.0118728,-0.3302447,0.1108372,-9.821840999999999,0,0,45.59795,1,1,754,996
5220,16312682,1,-0.0009201799,-0.00265583,0.01080352,-0.3393192,0.08756372,-9.836141,0,0,45.59795,1,1,754,996
5224,16315228,1,-0.00225222,-0.001212392,0.008712991,-0.350762,0.07290101,-9.845946,0,0,45.59801,1,1,754,996
5255,16317275,1,-0.001371152,-0.003224913,0.007490443,-0.3525248,0.07144947,-9.854048000000001,0,0,45.59801,1,1,754,996
5258,16319794,1,0.0007485955,-0.004248837,0.004990499,-0.3591665,0.07035197,-9.887346000000001,0,0,45.59801,1,1,754,996
5261,16322821,1,0.002916181,-0.002280759,0.002363631,-0.3562873,0.06037942,-9.926434,0,0,45.59801,1,1,754,996
5264,16324906,1,0.00523352,0.0002585616,0.0002765515,-0.3408138,0.03976326,-9.974999,0,0,45.59809,1,1,754,996
5295,16327860,1,0.00514622,0.001194642,7.70918e-05,-0.3218921,0.02199201,-9.984029,0,0,45.59809,1,1,754,996
5300,16330026,1,0.002277692,0.0009322408,0.003069337,-0.2935609,0.002015844,-9.987080000000001,0,0,45.59809,1,1,754,996
5303,16332752,1,0.001369036,-0.0001090147,0.004626314,-0.2704509,-0.005354977,-9.981070000000001,0,0,45.59809,1,1,754,996
5307,16337245,1,-0.0009823117000000001,-0.004084548,0.004282501,-0.2298217,0.02300883,-9.935563,0,0,45.59815,1,1,754,996
5338,16342279,1,-6.589325e-05,0.0008531619,-0.001460047,-0.2437575,0.1107242,-9.902869000000001,0,0,45.59815,1,1,754,996
5341,16345301,1,0.001214392,0.004560983,-0.001378204,-0.2625802,0.1514766,-9.893782,0,0,45.59815,1,1,754,996
5344,16347366,1,0.003566572,0.004805041,0.002549009,-0.2717412,0.1653754,-9.876590999999999,0,0,45.5982,1,1,754,996
5375,16349809,1,0.00488973,0.00351876,0.006824166,-0.2839738,0.1708503,-9.839846,0,0,45.5982,1,1,754,996
5378,16352319,1,0.005168482,0.003596719,0.007313154,-0.2925765,0.1638938,-9.802586,0,0,45.5982,1,1,754,996
5383,16355241,1,0.003416925,0.006374808,0.003518548,-0.2938742,0.1328442,-9.746489,0,0,45.5982,1,1,754,996
5386,16358294,1,0.003072276,0.004960776,0.002784992,-0.2890023,0.1119666,-9.711392,0,0,45.59822,1,1,754,996
5389,16359645,1,0.003458552,-0.0005098354,0.003234829,-0.2839105,0.08335979,-9.691015,0,0,45.59822,1,1,754,996
5420,16362276,1,0.004402383,-0.003859484,0.00472032,-0.2787237,0.06198481,-9.686128999999999,0,0,45.59822,1,1,754,996
5424,16364700,1,0.004617208,-0.003459926,0.003524322,-0.2841107,0.04394646,-9.686002999999999,0,0,45.59822,1,1,754,996
5427,16367818,1,0.004399877,-0.001908444,0.002695593,-0.2866465,0.03751727,-9.69505,0,0,45.59822,1,1,754,996
5430,16370260,1,0.00470873,-0.002239188,0.004085384,-0.289114,0.03142812,-9.722063,0,0,45.59822,1,1,754,996
5461,16372585,1,0.004964412,-0.003439619,0.004264299,-0.2902741,0.03098241,-9.73419,0,0,45.59822,1,1,754,996
5464,16374884,1,0.00523934,-0.004440634,0.002022345,-0.2916988,0.03880883,-9.745653000000001,0,0,45.59822,1,1,754,996
5467,16377474,1,0.005271122,-0.002296582,0.0007578945,-0.2880188,0.0404316,-9.740802,0,0,45.59822,1,1,754,996
5470,16380269,1,0.006234899,0.003998906,-0.001964405,-0.2719752,0.04369727,-9.744089000000001,0,0,45.5982,1,1,754,996
5501,16382906,1,0.006370849,0.009041683,-0.003412263,-0.2601641,0.05470122,-9.739451000000001,0,0,45.5982,1,1,754,996
5505,16384771,1,0.005032263,0.01175277,-0.001936584,-0.242174,0.07437568,-9.753114,0,0,45.5982,1,1,754,996
5509,16387304,1,0.003057265,0.009349939,-0.0002376928,-0.2341229,0.07857433,-9.762126,0,0,45.5982,1,1,754,996
5512,16389672,1,0.001413287,0.004134424,-0.0007404201,-0.2408882,0.0625595,-9.789192999999999,0,0,45.59819,1,1,754,996
5546,16393009,1,-0.000383341,0.001887879,-0.0003235644,-0.2537021,0.04953464,-9.801553,0,0,45.59819,1,1,754,996
5550,16395247,1,-0.001940376,0.001671307,0.0006181404,-0.2745209,0.04175188,-9.804029,0,0,45.59819,1,1,754,996
5553,16397346,1,-0.003084947,0.0009951812,0.0001585229,-0.2879696,0.03747446,-9.803561999999999,0,0,45.59819,1,1,754,996
5556,16399814,1,-0.003390844,-0.001022854,-0.003361524,-0.304517,0.03621744,-9.795534,0,0,45.59819,1,1,754,996
5587,16403119,1,-0.002753892,-0.0003458962,-0.004236173,-0.3032074,0.03695051,-9.799102,0,0,45.59818,1,1,754,996
5591,16404895,1,0.0002247534,0.0003731443,-0.004115819,-0.2880552,0.03160936,-9.808878999999999,0,0,45.59818,1,1,754,996
5595,16407846,1,0.003049209,-0.0001722532,-0.002301154,-0.2743669,0.02868589,-9.796514999999999,0,0,45.59818,1,1,754,996
5598,16409924,1,0.00438859,-0.001827743,-0.0001426576,-0.2677341,0.04024485,-9.769211,0,0,45.59818,1,1,754,996
5629,16412309,1,0.00503085,-0.001993409,0.001877958,-0.2662448,0.04153734,-9.760202,0,0,45.59817,1,1,754,996
5633,16415081,1,0.005036931,-0.0007205632,0.003241764,-0.2606493,0.05669862,-9.788295,0,0,45.59817,1,1,754,996
5636,16417401,1,0.005303727,-0.0001717386,0.00392883,-0.2571428,0.06593570999999999,-9.816345999999999,0,0,45.59817,1,1,754,996
5639,16420019,1,0.005967534,-0.000394679,0.003166753,-0.2552332,0.0803024,-9.851405,0,0,45.59817,1,1,754,996
5670,16422634,1,0.0054756,-0.0002334584,0.002764185,-0.2583736,0.09510125,-9.860116,0,0,45.59817,1,1,754,996
5673,16425040,1,0.004577104,0.0006265033,0.0008312342,-0.2715535,0.1048994,-9.859508999999999,0,0,45.59816,1,1,754,996
5676,16427895,1,0.004666255,0.0002854515,0.001617932,-0.2879664,0.09852519999999999,-9.869486,0,0,45.59816,1,1,754,996
5679,16429695,1,0.004291381,-0.0003188141,0.003683988,-0.323489,0.08501481,-9.87018,0,0,45.59816,1,1,754,996
5710,16432330,1,0.003419709,-0.0006222941,0.002212737,-0.341879,0.06889188,-9.863256,0,0,45.59816,1,1,754,996
5714,16440065,1,0.004226351,-0.0009504093,-0.0002156704,-0.3628514,0.05296987,-9.838642999999999,0,0,45.59818,1,1,754,996
5745,16442768,1,0.005130519,0.000621535,0.001118583,-0.3339607,0.07035781000000001,-9.815227,0,0,45.59818,1,1,754,996
5748,16445222,1,0.007421667,0.00224865,0.001908166,-0.3191282,0.09278695000000001,-9.804176999999999,0,0,45.5982,1,1,754,996
5751,16448102,1,0.008468623999999999,0.002541343,0.003922456,-0.297901,0.1283918,-9.780248,0,0,45.5982,1,1,754,996
5755,16450883,1,0.008516179,0.001928468,0.00537089,-0.2796312,0.1552399,-9.768478,0,0,45.5982,1,1,754,996
5786,16453016,1,0.006458796,-0.001120231,0.008304466,-0.2498957,0.1663076,-9.771204000000001,0,0,45.5982,1,1,754,996
5790,16455696,1,0.001303667,-0.001404732,0.007523454,-0.2209152,0.1475551,-9.766774,0,0,45.59822,1,1,754,996
5793,16458290,1,-0.001876851,-0.001454239,0.006203311,-0.2125042,0.1265837,-9.765434000000001,0,0,45.59822,1,1,754,996
5796,16461312,1,-0.009549791,0.0006701096,0.0008509863,-0.2221628,0.09826929,-9.776017,0,0,45.59822,1,1,754,996
5827,16463869,1,-0.009593983,0.0009337384,-0.0005536781,-0.2414277,0.08511589,-9.778784,0,0,45.59822,1,1,754,996
5830,16465736,1,-0.00454058,-0.0001221838,0.0005897260000000001,-0.274789,0.07884650999999999,-9.774768999999999,0,0,45.59822,1,1,754,996
5833,16468738,1,-0.002242495,-0.0005532322,0.002065134,-0.2903823,0.07497479999999999,-9.761096,0,0,45.59827,1,1,754,996
5836,16470901,1,0.00153459,0.0007209086,0.004318842,-0.3009615,0.06470495,-9.741409000000001,0,0,45.59827,1,1,754,996
5867,16473624,1,0.002446434,0.003013881,0.005953244,-0.3021052,0.05692634,-9.729020999999999,0,0,45.59827,1,1,754,996
5871,16476120,1,0.001308351,0.001942632,0.008098854000000001,-0.2947938,0.0515388,-9.744138,0,0,45.59827,1,1,754,996
5875,16478375,1,0.0001781397,0.001762191,0.008423359,-0.2898993,0.0583904,-9.749316,0,0,45.59827,1,1,754,996
5878,16480694,1,-0.002761642,0.002964665,0.007093268,-0.2764753,0.08696774,-9.736770999999999,0,0,45.59834,1,1,754,996
5909,16483100,1,-0.005036986,0.002269,0.005169061,-0.2639777,0.1013013,-9.736022999999999,0,0,45.59834,1,1,754,996
5913,16486056,1,-0.004532626,-0.0003927096,-0.003127787,-0.2513488,0.1047574,-9.746705,0,0,45.59834,1,1,754,996
5916,16488409,1,-0.002251231,-0.0007473975,-0.005803965,-0.2445444,0.1058016,-9.752606,0,0,45.59834,1,1,754,996
5920,16491058,1,0.001581874,-8.691756999999999e-05,-0.008191169,-0.2496146,0.1130359,-9.756596999999999,0,0,45.5984,1,1,754,996
5954,16493906,1,0.002791219,-0.001458543,-0.006612468,-0.2570044,0.1155868,-9.769947999999999,0,0,45.5984,1,1,754,996
5958,16495921,1,0.003824311,-0.003007509,-0.003669974,-0.2685643,0.1134199,-9.806639000000001,0,0,45.5984,1,1,754,996
5961,16498878,1,0.004423275,-0.001408597,0.0002603933,-0.2734254,0.1112442,-9.814311999999999,0,0,45.5984,1,1,754,996
5964,16500889,1,0.00450774,0.002759597,0.003757474,-0.2802813,0.1032091,-9.830279000000001,0,0,45.59844,1,1,754,996
5995,16503292,1,0.003420317,0.004481044,0.005294597,-0.2813713,0.09133533000000001,-9.845694999999999,0,0,45.59844,1,1,754,996
5999,16506142,1,-0.001657392,0.00609031,0.006842877,-0.2702859,0.07889983,-9.847631,0,0,45.59844,1,1,754,996
6002,16508433,1,-0.001956847,0.006431876,0.007672533,-0.2566202,0.07370365,-9.843458999999999,0,0,45.59844,1,1,754,996
6005,16511096,1,0.001214968,0.008478113000000001,0.005836277,-0.2465172,0.07421175000000001,-9.853308,0,0,45.59844,1,1,754,996
6038,16513757,1,0.002096632,0.007377309,0.00485006,-0.2453248,0.08618686,-9.868966,0,0,45.59847,1,1,754,996
6041,16516245,1,0.003235391,0.004551501,0.004700667,-0.2425691,0.10498,-9.871858,0,0,45.59847,1,1,754,996
6044,16518787,1,0.002706903,0.003324833,0.005027872,-0.2354038,0.110886,-9.859413,0,0,45.59847,1,1,754,996
6047,16521212,1,-0.0004536386,0.004755086,0.004870357,-0.2398814,0.1057322,-9.855034,0,0,45.59847,1,1,754,996
6078,16524030,1,-0.002644229,0.005534239,0.002644988,-0.2497776,0.0933161,-9.854329999999999,0,0,45.5985,1,1,754,996
6082,16526086,1,-7.275232000000001e-05,0.005602248,-0.0006704736,-0.2501183,0.08526415,-9.851988,0,0,45.5985,1,1,754,996
6085,16529234,1,0.001995845,0.005726995,-0.002225968,-0.2526686,0.07333481,-9.854118,0,0,45.5985,1,1,754,996
6091,16531860,1,0.007491537,0.003804688,-0.0002745974,-0.2562783,0.06883936,-9.869885999999999,0,0,45.5985,1,1,754,996
6122,16534009,1,0.009499508,0.004442526,0.003992451,-0.2538493,0.07896639,-9.884968000000001,0,0,45.59853,1,1,754,996
6125,16539695,1,0.01110732,0.006636319,0.00424109,-0.2632602,0.07485343,-9.901536999999999,0,0,45.59853,1,1,754,996
6128,16541845,1,0.009833232000000001,0.005307337,0.0040955,-0.2661022,0.07410052,-9.894686,0,0,45.59853,1,1,754,996
6159,16543916,1,0.006670713,-0.0008174524,0.005260393,-0.2613546,0.08623015000000001,-9.882974000000001,0,0,45.59853,1,1,754,996
6162,16546662,1,0.005732687,-0.004647576,0.006394676,-0.2614453,0.09562590999999999,-9.876407,0,0,45.59858,1,1,754,996
6165,16549549,1,0.005954434,-0.003190059,0.005531295,-0.2715745,0.1149461,-9.859691,0,0,45.59858,1,1,754,996
6168,16551963,1,0.006737769,-0.0002844156,0.003425751,-0.278276,0.1307707,-9.848471999999999,0,0,45.59858,1,1,754,996
6199,16555116,1,0.006658591,0.002354905,0.004622407,-0.277923,0.1520639,-9.840210000000001,0,0,45.59858,1,1,754,996
6202,16556591,1,0.007382247,0.005354205,0.003726225,-0.2708867,0.1541506,-9.841491,0,0,45.59863,1,1,754,996
6205,16559448,1,0.009012891,0.006870343,0.00105084,-0.2713354,0.1457031,-9.846470999999999,0,0,45.59863,1,1,754,996
6208,16562256,1,0.009484387,0.005943176,-0.0008371518,-0.2800048,0.1338523,-9.850899999999999,0,0,45.59863,1,1,754,996
6239,16564260,1,0.008023702000000001,0.002267852,-0.005307861,-0.2937927,0.1152754,-9.848801,0,0,45.59863,1,1,754,996
6243,16568118,1,0.005400866,0.002493361,-0.005977845,-0.3043972,0.08321679,-9.820484,0,0,45.5987,1,1,754,996
6246,16569308,1,0.004901741,0.002007461,-0.004011994,-0.3034326,0.05983131,-9.794523999999999,0,0,45.5987,1,1,754,996
6249,16572193,1,0.006558393,-0.001142204,-0.0003126509,-0.2982506,0.02830154,-9.758943,0,0,45.5987,1,1,754,996
6280,16574867,1,0.006813438,-0.003791254,0.0009438015,-0.3002141,0.01214486,-9.738436999999999,0,0,45.5987,1,1,754,996
6284,16577060,1,0.006061011,-0.007101816,0.001790264,-0.3015259,0.002599766,-9.71946,0,0,45.5987,1,1,754,996
6287,16579863,1,0.004292649,-0.005452567,0.0001601467,-0.3085522,0.001010499,-9.720438,0,0,45.59876,1,1,754,996
6290,16582212,1,0.001964659,-0.002635025,-0.001519527,-0.3257733,0.01312766,-9.741312000000001,0,0,45.59876,1,1,754,996
6321,16584582,1,0.001232111,-0.001097743,-0.001021865,-0.3284844,0.02125247,-9.759256000000001,0,0,45.59876,1,1,754,996
6324,16587428,1,0.002151651,-0.002508602,0.002204963,-0.3251837,0.02305533,-9.780334,0,0,45.59876,1,1,754,996
6328,16589661,1,-0.0008447029,-0.0027525,0.005348151,-0.3224274,0.03007369,-9.793385000000001,0,0,45.59884,1,1,754,996
6331,16592597,1,-0.006785681,0.0001702835,0.003961463,-0.3292518,0.05026222,-9.811537,0,0,45.59884,1,1,754,996
6365,16594755,1,-0.010394,0.0008690558,0.001864877,-0.3443817,0.06688789000000001,-9.852043,0,0,45.59884,1,1,754,996
6370,16597458,1,-0.008767024,0.0009937672000000001,0.0007778694,-0.3478218,0.07817712,-9.890283999999999,0,0,45.59884,1,1,754,996
6373,16600137,1,-0.008662278000000001,0.001934181,0.001594998,-0.3444785,0.09043878,-9.920806000000001,0,0,45.59895,1,1,754,996
6377,16602264,1,-0.009366298,0.001693148,0.002125563,-0.3398468,0.09574448000000001,-9.925383,0,0,45.59895,1,1,754,996
6411,16605464,1,-0.01077483,0.0009488202,0.0001672164,-0.3436482,0.09272692,-9.928606,0,0,45.59895,1,1,754,996
6414,16607603,1,-0.0110097,0.001176472,-0.001598726,-0.3444602,0.08225601,-9.924376000000001,0,0,45.59895,1,1,754,996
6417,16609701,1,-0.01183878,0.001396538,-0.004997955,-0.3273799,0.05713086,-9.900827,0,0,45.59895,1,1,754,996
6421,16612841,1,-0.01206532,0.002793446,-0.007128596,-0.3188741,0.04050912,-9.886944,0,0,45.59908,1,1,754,996
6452,16615208,1,-0.01109038,0.002486593,-0.004805687,-0.3058721,0.02533262,-9.880369,0,0,45.59908,1,1,754,996
6456,16617853,1,-0.01212386,0.001438166,-4.547352e-06,-0.2967815,0.01929996,-9.864466999999999,0,0,45.59908,1,1,754,996
6459,16619751,1,-0.01359881,0.003669995,0.00271667,-0.2850127,0.01778611,-9.829083000000001,0,0,45.59908,1,1,754,996
6462,16622684,1,-0.01419153,0.005442471,0.003367107,-0.2743256,0.02212645,-9.804940999999999,0,0,45.59922,1,1,754,996
6493,16624653,1,-0.01458198,0.00830851,0.00359895,-0.2669213,0.02666332,-9.776287999999999,0,0,45.59922,1,1,754,996
6496,16628193,1,-0.01394693,0.009482411,0.004092776,-0.2699332,0.02920851,-9.765919999999999,0,0,45.59922,1,1,754,996
6499,16630132,1,-0.01269956,0.01062417,0.0008634721,-0.2702566,0.05870557,-9.75137,0,0,45.59922,1,1,754,996
6503,16632679,1,-0.0116439,0.009608725,-0.003336266,-0.2635562,0.08705967000000001,-9.742127999999999,0,0,45.59922,1,1,754,996
6534,16634799,1,-0.01029711,0.005187336,-0.004964514,-0.2643691,0.1191262,-9.723017,0,0,45.59936,1,1,754,996
6538,16639719,1,-0.005172862,0.002827275,-0.005433007,-0.2898206,0.1427699,-9.722670000000001,0,0,45.59936,1,1,754,996
6541,16644869,1,-0.002723076,0.01029601,-0.0007486566,-0.3078704,0.1185388,-9.702432,0,0,45.59952,1,1,754,996
6573,16647428,1,-0.001654825,0.01006713,-0.0008105048,-0.312839,0.09412516999999999,-9.685489,0,0,45.59952,1,1,754,996
6576,16650148,1,0.002821111,0.004616437,-0.001407614,-0.3111921,0.07717797999999999,-9.657045,0,0,45.59952,1,1,754,996
6579,16652651,1,0.004286041,0.002862914,-0.001102795,-0.3022752,0.08693239,-9.650135000000001,0,0,45.59952,1,1,754,996
6582,16655163,1,0.006293755,-0.002745103,8.357298000000001e-05,-0.2758816,0.09783827,-9.655271000000001,0,0,45.59967,1,1,754,996
6613,16657218,1,0.003654885,-0.00663373,0.001723662,-0.2536258,0.09696132,-9.659380000000001,0,0,45.59967,1,1,754,996
6616,16659743,1,0.002873622,-0.005352814,0.00218518,-0.2172217,0.09167498,-9.668725,0,0,45.59967,1,1,754,996
6619,16662900,1,0.004008768,-0.003116563,-8.540728e-05,-0.1953622,0.09609692,-9.676068000000001,0,0,45.59967,1,1,754,996
6622,16665412,1,0.004019806,-0.001564633,-0.002197828,-0.1703344,0.08930041,-9.686631,0,0,45.59967,1,1,754,996
6653,16667669,1,0.003982383,-0.001067558,-0.002209616,-0.165688,0.08204432,-9.697029000000001,0,0,45.59983,1,1,754,996
6657,16669753,1,0.003140503,-0.002355841,0.000437188,-0.1804998,0.08047875,-9.721876,0,0,45.59983,1,1,754,996
6661,16672870,1,0.001423483,-0.003608703,0.0007704096,-0.205915,0.07636535999999999,-9.739468,0,0,45.59983,1,1,754,996
6664,16675233,1,-0.001563065,-0.009958379999999999,-0.0008121723,-0.2475463,0.07862282,-9.770695999999999,0,0,45.59983,1,1,754,996
6695,16678083,1,-0.0005268077,-0.01062108,-0.0009076883999999999,-0.2713299,0.07335519,-9.793882999999999,0,0,45.59999,1,1,754,996
6698,16679734,1,0.002169171,-0.009552493,0.0006600702,-0.2908513,0.06752244,-9.810249000000001,0,0,45.59999,1,1,754,996
6701,16682252,1,0.002068789,-0.007619626,0.0007984462,-0.2962669,0.06687715,-9.823036999999999,0,0,45.59999,1,1,754,996
6704,16684664,1,0.002411918,-0.004651292,0.001338557,-0.2893677,0.06476835,-9.823154000000001,0,0,45.59999,1,1,754,996
6735,16688099,1,0.003222946,-0.001964495,0.002065652,-0.286094,0.07212826,-9.815617,0,0,45.59999,1,1,754,996
6740,16690085,1,0.003157466,-2.622127e-05,0.002321595,-0.2772102,0.07861955,-9.797318000000001,0,0,45.60016,1,1,754,996
6743,16692630,1,0.003421913,0.0006204281000000001,0.002943476,-0.2692499,0.08666024,-9.784976,0,0,45.60016,1,1,754,996
6749,16694935,1,0.004901737,-0.003979126,0.006640413,-0.2664106,0.09687986,-9.795529999999999,0,0,45.60016,1,1,754,996
6781,16697867,1,0.00639552,-0.005639433,0.006967395,-0.2676659,0.09846491,-9.813261000000001,0,0,45.60016,1,1,754,996
6785,16700234,1,0.009445530000000001,-0.004266479,0.004794076,-0.2696842,0.09510631999999999,-9.834512999999999,0,0,45.60035,1,1,754,996
6788,16702741,1,0.01244071,-0.0005917642,-0.0001816297,-0.2734977,0.08096033,-9.840171,0,0,45.60035,1,1,754,996
6791,16704661,1,0.01470295,0.002545214,-0.004228752,-0.2704486,0.0595804,-9.818034000000001,0,0,45.60035,1,1,754,996
6822,16707314,1,0.01375787,0.003545926,-0.004599504,-0.2638807,0.05071922,-9.790754,0,0,45.60035,1,1,754,996
6826,16709681,1,0.01104631,0.003686738,-0.001181335,-0.2612769,0.05731519,-9.757918,0,0,45.60055,1,1,754,996
6829,16712604,1,0.009547145999999999,0.002531914,0.001038501,-0.2617862,0.07323041,-9.736833000000001,0,0,45.60055,1,1,754,996
6832,16715054,1,0.004827979,-0.004482763,0.003166581,-0.2789741,0.0923572,-9.733166000000001,0,0,45.60055,1,1,754,996
6863,16718148,1,0.004181823,-0.004827277,0.001813377,-0.2897804,0.09084646,-9.717133,0,0,45.60055,1,1,754,996
6867,16719710,1,0.005240041,-0.002208367,-1.447816e-05,-0.2861082,0.08531563,-9.705257,0,0,45.60055,1,1,754,996
6870,16722255,1,0.006619293,-0.0001958507,-0.0001504965,-0.2798416,0.08147977000000001,-9.696989,0,0,45.60075,1,1,754,996
6873,16724747,1,0.005667388,0.0003567767,0.0005439445,-0.2802533,0.07612041999999999,-9.678501000000001,0,0,45.60075,1,1,754,996
6904,16728018,1,0.003881945,0.001364671,0.001169802,-0.2856326,0.07769694000000001,-9.670999,0,0,45.60075,1,1,754,996
6907,16730105,1,0.001831478,0.00234011,0.0007873295,-0.2902775,0.07452586,-9.661213,0,0,45.60075,1,1,754,996
6912,16733034,1,0.0003169379,0.002225389,0.001104465,-0.2921164,0.07080673,-9.653866000000001,0,0,45.60075,1,1,754,996
6915,16734678,1,-2.650771e-05,0.001122172,0.003031185,-0.297005,0.05616226,-9.651278,0,0,45.60095,1,1,754,996
6946,16737282,1,-0.0007578818,0.001304353,0.004385299,-0.3037076,0.05227355,-9.64892,0,0,45.60095,1,1,754,996
6950,16745263,1,-0.003667407,0.005365689,0.003393756,-0.2922148,0.05139809,-9.706721999999999,0,0,45.60115,1,1,754,996
6981,16747552,1,-0.001990322,0.005595689,0.004249294,-0.3008645,0.05454032,-9.727985,0,0,45.60115,1,1,754,996
6984,16750119,1,-0.001901615,0.006329378,0.005568913,-0.307243,0.06251445999999999,-9.737826,0,0,45.60115,1,1,754,996
6987,16752874,1,-0.00173085,0.006894412,0.007653526,-0.3238859,0.06645049,-9.738913,0,0,45.60115,1,1,754,996
6990,16755584,1,-0.002662233,0.004118586,0.008368604999999999,-0.3456126,0.06744385999999999,-9.721807999999999,0,0,45.60136,1,1,754,996
7021,16758125,1,-0.003011417,0.002490702,0.006779575,-0.3652466,0.0685031,-9.713939,0,0,45.60136,1,1,754,996
7025,16760187,1,-0.002288882,0.004684058,0.002476708,-0.3665137,0.07802111,-9.708545000000001,0,0,45.60136,1,1,754,996
7028,16763012,1,-0.001640572,0.005704334,0.0002518642,-0.3511107,0.09935796,-9.704412,0,0,45.60136,1,1,754,996
7031,16765345,1,2.528321e-05,0.005377409,-0.0008681542,-0.3133696,0.1178557,-9.697395,0,0,45.60136,1,1,754,996
7062,16768156,1,0.0004278392,0.004041332,0.0003736209,-0.2948566,0.1125368,-9.706391999999999,0,0,45.60157,1,1,754,996
7066,16770862,1,-0.0004311401,0.003489989,0.002509531,-0.2816628,0.09802099,-9.726851,0,0,45.60157,1,1,754,996
7069,16772899,1,-0.002751512,0.006447529,0.004101651,-0.2799131,0.08625198000000001,-9.742929,0,0,45.60157,1,1,754,996
7072,16775094,1,-0.006093035,0.009184441999999999,0.006286995,-0.2868964,0.0635532,-9.763055,0,0,45.60157,1,1,754,996
7103,16777940,1,-0.00925862,0.009360823000000001,0.006027029,-0.292607,0.05442782,-9.774131000000001,0,0,45.60178,1,1,754,996
7107,16780741,1,-0.00971878,0.007388831,0.005672414,-0.297615,0.04352676,-9.783791000000001,0,0,45.60178,1,1,754,996
7110,16783156,1,-0.009627225999999999,0.004809947,0.005208608,-0.2861832,0.03011491,-9.786474999999999,0,0,45.60178,1,1,754,996
7113,16785295,1,-0.009037409,0.002668174,0.00448814,-0.2688287,0.01754858,-9.802965,0,0,45.60178,1,1,754,996
7144,16788037,1,-0.008780425999999999,0.000486714,0.003874247,-0.2702172,0.02002072,-9.808074,0,0,45.60178,1,1,754,996
7148,16790075,1,-0.009102219999999999,0.000207127,0.003051226,-0.2741509,0.02673662,-9.806469,0,0,45.60199,1,1,754,996
7152,16792849,1,-0.008530983000000001,-0.0003130868,-0.001030458,-0.2779883,0.03571783,-9.793564,0,0,45.60199,1,1,754,996
7158,16795664,1,-0.006891849,-0.002626384,-0.00197164,-0.2792174,0.05273655,-9.750833999999999,0,0,45.60199,1,1,754,996
7192,16798660,1,-0.006704618,-0.004085813,0.001391452,-0.2802758,0.06191615,-9.705029,0,0,45.60199,1,1,754,996
7195,16799925,1,-0.005355998,-0.004714892,0.005085032,-0.2831352,0.06246052,-9.680094,0,0,45.60221,1,1,754,996
7198,16802790,1,-0.003464852,-0.003665833,0.005202623,-0.2894947,0.06604335,-9.677568000000001,0,0,45.60221,1,1,754,996
7201,16805056,1,-0.00172326,-0.002292854,0.001831484,-0.2992136,0.08900759,-9.704162999999999,0,0,45.60221,1,1,754,996
7232,16808227,1,-0.002232567,-0.003835321,-0.001080807,-0.3066152,0.1010823,-9.727997999999999,0,0,45.60221,1,1,754,996
7237,16810785,1,-0.004364766,-0.006537086,-0.002067366,-0.3206069,0.1109088,-9.772045,0,0,45.60221,1,1,754,996
7240,16812930,1,-0.005721834,-0.007692947,-0.002050655,-0.3332474,0.11758,-9.798106000000001,0,0,45.60243,1,1,754,996
7243,16815083,1,-0.006661626,-0.009087207999999999,-0.001461174,-0.3350071,0.1117856,-9.808994999999999,0,0,45.60243,1,1,754,996
7274,16817730,1,-0.003690861,-0.00886402,0.0006925174000000001,-0.3379619,0.1070292,-9.810121000000001,0,0,45.60243,1,1,754,996
7278,16820720,1,-0.002369735,-0.008015194,0.001231424,-0.3353442,0.1003111,-9.783689000000001,0,0,45.60243,1,1,754,996
7281,16822849,1,-0.0009095365999999999,-0.005646616,0.0006526231,-0.3290333,0.1028036,-9.770042,0,0,45.60265,1,1,754,996
7284,16825587,1,0.0004539168,-0.002609065,-0.001533666,-0.3155539,0.0929914,-9.766562,0,0,45.60265,1,1,754,996
7315,16827701,1,0.003598565,-0.000202506,-0.003121866,-0.2942057,0.09101757000000001,-9.764122,0,0,45.60265,1,1,754,996
7318,16830589,1,0.006479191,0.001783354,-0.003835567,-0.2821467,0.08873436,-9.762532,0,0,45.60265,1,1,754,996
7321,16833213,1,0.007268014,0.002291162,-0.002932211,-0.2802224,0.08181679,-9.760076,0,0,45.60265,1,1,754,996
7324,16835626,1,0.007896477000000001,0.002745564,0.001166656,-0.2803634,0.06914911,-9.772544,0,0,45.60288,1,1,754,996
7355,16838209,1,0.005309608,0.003233849,0.006867442,-0.2824521,0.06103399,-9.799459000000001,0,0,45.60288,1,1,754,996
7359,16840186,1,0.004577587,0.002934972,0.007738987,-0.2962375,0.06441551,-9.80057,0,0,45.60288,1,1,754,996
7362,16843001,1,0.004585731,0.002691626,0.005571198,-0.3121526,0.06344698,-9.798164999999999,0,0,45.60288,1,1,754,996
7365,16845065,1,0.005309735,0.002956525,0.002749679,-0.3429574,0.05796516,-9.805604000000001,0,0,45.60312,1,1,754,996
7396,16848965,1,0.005722474,0.003348746,0.0008999727,-0.3653179,0.05692276,-9.815708000000001,0,0,45.60312,1,1,754,996
7399,16853363,1,0.002348031,0.004194979,0.0002241174,-0.4168652,0.07442354,-9.778732,0,0,45.60312,1,1,754,996
7402,16855670,1,0.002924536,0.004891993,0.0007226294000000001,-0.4357785,0.0787437,-9.767274,0,0,45.60312,1,1,754,996
7433,16858218,1,0.006018772,0.00614533,0.001273184,-0.4454213,0.09312602,-9.767704,0,0,45.60334,1,1,754,996
7436,16861543,1,0.007014071,0.00573487,0.002039807,-0.4412766,0.1105674,-9.761691000000001,0,0,45.60334,1,1,754,996
7439,16863613,1,0.008406517000000001,0.005644695,0.002978146,-0.4080309,0.1251243,-9.759039,0,0,45.60334,1,1,754,996
7443,16865671,1,0.009009339999999999,0.007151479,0.002746963,-0.3747919,0.1217041,-9.755979999999999,0,0,45.60334,1,1,754,996
7475,16868291,1,0.009461862999999999,0.007667457,0.002319822,-0.3280562,0.1270654,-9.765805,0,0,45.60353,1,1,754,996
7478,16870810,1,0.0103788,0.008439023,0.002627633,-0.2995179,0.133537,-9.756527999999999,0,0,45.60353,1,1,754,996
7481,16873704,1,0.01089936,0.007779829,0.003016324,-0.2619051,0.1261655,-9.718170000000001,0,0,45.60353,1,1,754,996
7485,16876281,1,0.00945236,0.006186376,0.0006170115000000001,-0.2443027,0.1198293,-9.690853000000001,0,0,45.60353,1,1,754,996
7516,16878666,1,0.006711922,0.004814101,-0.0003727035,-0.2321588,0.1180338,-9.675274999999999,0,0,45.6037,1,1,754,996
7519,16881119,1,0.003527386,0.003424016,0.000208119,-0.2412587,0.1170996,-9.683604000000001,0,0,45.6037,1,1,754,996
7522,16883672,1,0.002244836,0.002006063,0.0007459864000000001,-0.2552425,0.1165824,-9.707201,0,0,45.6037,1,1,754,996
7525,16886474,1,0.002393313,0.001768092,0.003414273,-0.2694356,0.1330139,-9.733275000000001,0,0,45.6037,1,1,754,996
7556,16888672,1,0.002815694,0.002451882,0.003434842,-0.2747865,0.1391497,-9.733146,0,0,45.6037,1,1,754,996
7559,16890939,1,0.004939829,0.008442387000000001,-0.0007548187,-0.290888,0.1351551,-9.728381000000001,0,0,45.60383,1,1,754,996
7562,16893697,1,0.005994429,0.008755215,-0.001602786,-0.3030003,0.1277469,-9.739535,0,0,45.60383,1,1,754,996
7569,16896297,1,0.01026424,0.00633603,-0.003870343,-0.3140971,0.1156023,-9.772563999999999,0,0,45.60383,1,1,754,996
7601,16899430,1,0.0113687,0.005379461,-0.004611243,-0.3234766,0.1110332,-9.791309,0,0,45.60383,1,1,754,996
7604,16901128,1,0.01201707,0.004228655,-0.005392417,-0.3339532,0.1151666,-9.787501000000001,0,0,45.60394,1,1,754,996
7608,16903406,1,0.007689743,0.004873091,-0.002200448,-0.3423067,0.1187515,-9.769086,0,0,45.60394,1,1,754,996
7611,16905894,1,0.0005128642,0.005040789,0.0009006948,-0.3545171,0.1278771,-9.748279,0,0,45.60394,1,1,754,996
7642,16909062,1,-0.003581116,0.003326617,0.002057095,-0.3569627,0.1319855,-9.735521,0,0,45.60394,1,1,754,996
7645,16911365,1,-0.002976654,0.0008982737,0.0003651985,-0.3438134,0.1315826,-9.731458,0,0,45.60402,1,1,754,996
7649,16913653,1,-0.0009514057999999999,-0.0002602893,-0.001303871,-0.3345798,0.1256195,-9.747755,0,0,45.60402,1,1,754,996
7653,16915877,1,0.002533944,-0.0001252115,-0.002559145,-0.3260983,0.1203111,-9.768286,0,0,45.60402,1,1,754,996
7684,16918691,1,0.002481295,0.0003750786,-0.0009440919,-0.3275065,0.1139051,-9.785501,0,0,45.60402,1,1,754,996
7687,16921123,1,0.0003487288,-0.0001114673,0.001582022,-0.3401095,0.1014291,-9.816520000000001,0,0,45.60402,1,1,754,996
7690,16924001,1,-0.003978797,-0.000477408,-0.0002919489,-0.3503804,0.09467304999999999,-9.830332,0,0,45.60407,1,1,754,996
7694,16926289,1,-0.004480552,0.0028343,-0.003502164,-0.3537709,0.113086,-9.833589999999999,0,0,45.60407,1,1,754,996
7725,16928685,1,-0.00257197,0.007175026,-0.00498137,-0.3446347,0.1303248,-9.811965000000001,0,0,45.60407,1,1,754,996
7728,16931046,1,-0.002386608,0.006265005,-0.004594983,-0.3181576,0.1364052,-9.753783,0,0,45.60407,1,1,754,996
7733,16933907,1,-0.00517382,0.004814339,-0.003944815,-0.2999575,0.1387033,-9.728076,0,0,45.6041,1,1,754,996
7736,16939086,1,-0.007196446,0.006569623,-0.005656441,-0.2781767,0.1423654,-9.738536,0,0,45.6041,1,1,754,996
7767,16941328,1,-0.009252859,0.004214707,-0.007137883,-0.284031,0.1554278,-9.791444,0,0,45.6041,1,1,754,996
7770,16943884,1,-0.01311055,0.002294977,-0.01032053,-0.2956685,0.1652391,-9.82554,0,0,45.60409,1,1,753,995
7774,16946598,1,-0.01401131,0.001036309,-0.01172224,-0.2975846,0.1710826,-9.832701,0,0,45.60409,1,1,753,995
7777,16949269,1,-0.008625600000000001,-0.001283871,-0.01022976,-0.300662,0.1686492,-9.828970999999999,0,0,45.60409,1,1,753,995
7808,16954051,1,-0.00629285,0.001481335,-0.003441225,-0.266876,0.1609931,-9.779992999999999,0,0,45.60409,1,1,753,995
7811,16956374,1,-0.005177228,0.006205564,-0.0008202525,-0.2733319,0.1536326,-9.760831,0,0,45.60408,1,1,753,995
7814,16958901,1,-0.003507456,0.007671618,-0.0003871812,-0.2857616,0.1422336,-9.743633000000001,0,0,45.60408,1,1,753,995
7845,16962027,1,-0.002707456,0.005974054,0.0003257776,-0.2990218,0.1237425,-9.735391999999999,0,0,45.60408,1,1,753,995
7848,16964682,1,-0.002416056,0.003478436,0.001505283,-0.2972342,0.1053804,-9.730086,0,0,45.60408,1,1,753,995
7853,16966624,1,-0.002735981,0.003045887,0.001216776,-0.2931884,0.08734858,-9.738386,0,0,45.60406,1,1,753,995
7856,16969003,1,-0.001771091,0.00542,0.0007775058,-0.2975711,0.07393548,-9.756405000000001,0,0,45.60406,1,1,753,995
7887,16971405,1,-0.001995772,0.006125021,0.001747399,-0.3014205,0.05604537,-9.776906,0,0,45.60406,1,1,753,995
7890,16974278,1,-0.004775253,0.006478236,0.002908112,-0.3071424,0.05192767,-9.770265999999999,0,0,45.60406,1,1,753,995
7893,16976829,1,-0.004851374,0.006093688,0.003197756,-0.3144017,0.04934758,-9.767282,0,0,45.60406,1,1,753,995
7896,16978905,1,-0.001942563,0.004602204,0.003359203,-0.3185652,0.05815418,-9.761036000000001,0,0,45.60406,1,1,753,995
7927,16981663,1,0.0007512778,0.003253009,0.003454935,-0.3184741,0.08617116,-9.770249,0,0,45.60406,1,1,753,995
7930,16983700,1,0.001598002,0.00151328,0.00374398,-0.3170595,0.1430474,-9.773614,0,0,45.60406,1,1,753,995
7934,16986732,1,0.001384043,-0.00228002,0.004055945,-0.3174888,0.177673,-9.7652,0,0,45.60406,1,1,753,995
7937,16989153,1,0.001646061,-0.003917072,0.003966997,-0.3165793,0.2032543,-9.755845000000001,0,0,45.60408,1,1,753,995
7968,16991803,1,0.002711516,-0.003519047,0.003824922,-0.3127371,0.2137958,-9.733162999999999,0,0,45.60408,1,1,753,995
7972,16994238,1,0.005204518,0.001886164,0.002743134,-0.3125672,0.1922564,-9.726986999999999,0,0,45.60408,1,1,753,995
7979,16996663,1,0.004715439,0.004724198,0.002200257,-0.3213491,0.1567976,-9.722443999999999,0,0,45.60408,1,1,753,995
7983,16999581,1,-0.001046848,0.009127290999999999,0.0007684211,-0.3276217,0.1223608,-9.712187999999999,0,0,45.60408,1,1,753,995
8014,17001581,1,-0.003178153,0.0126928,-0.001431737,-0.3004416,0.1082037,-9.712491999999999,0,0,45.60412,1,1,753,995
8017,17004152,1,-0.002835003,0.01383627,-0.001733876,-0.2694486,0.1161211,-9.71322,0,0,45.60412,1,1,753,995
8020,17007206,1,0.001627907,0.01223199,-0.002999844,-0.2347709,0.1404823,-9.727418999999999,0,0,45.60412,1,1,753,995
8025,17009568,1,0.003970663,0.009161694999999999,-0.004311254,-0.2206433,0.1597655,-9.744515,0,0,45.60412,1,1,753,995
8058,17012561,1,0.0002099232,0.006296489,-0.005073054,-0.205991,0.170244,-9.756485,0,0,45.60417,1,1,753,995
8061,17014292,1,-0.004679392,0.003907593,-0.003180658,-0.1933052,0.1608632,-9.756760999999999,0,0,45.60417,1,1,753,995
8065,17017150,1,-0.004693978,0.002037725,0.0003117485,-0.1777251,0.1185405,-9.749321,0,0,45.60417,1,1,753,995
8068,17019221,1,-0.0009351557,0.001083588,0.00333194,-0.1713425,0.08646225,-9.72823,0,0,45.60417,1,1,753,995
8099,17021716,1,0.001652913,0.00159655,0.0007785031,-0.1717421,0.04413836,-9.681785,0,0,45.60423,1,1,753,995
8102,17024702,1,0.002098469,0.001723784,-0.001588792,-0.1802551,0.03545178,-9.648533,0,0,45.60423,1,1,753,995
8105,17026648,1,0.002520079,0.001158125,-0.00337901,-0.1958818,0.04901286,-9.635681999999999,0,0,45.60423,1,1,753,995
8108,17029683,1,0.003355561,0.001601206,-0.002899225,-0.2136656,0.05289569,-9.650050999999999,0,0,45.60423,1,1,753,995
8139,17032596,1,0.004895575,0.0001782102,-0.001176137,-0.2396118,0.04440811,-9.688808,0,0,45.60431,1,1,753,995
8142,17034555,1,0.009267927,-0.002600033,-0.00139944,-0.2470343,0.03558807,-9.736478,0,0,45.60431,1,1,753,995
8146,17039237,1,0.01277777,-0.002168925,-0.005069976,-0.2692076,0.02239325,-9.877393,0,0,45.60431,1,1,753,995
8177,17044169,1,0.00774621,0.004487897,-0.007958165,-0.2354812,0.03397091,-9.902479,0,0,45.60442,1,1,753,995
8180,17046634,1,0.01185098,-0.003753703,-0.01313643,-0.2378807,0.02272647,-9.865724999999999,0,0,45.60442,1,1,753,995
8183,17050001,1,0.007766946,-0.003193665,-0.01376872,-0.2530532,0.01663178,-9.847394,0,0,45.60442,1,1,753,995
8214,17052272,1,-0.00335702,0.007323961,-0.01251585,-0.2210433,0.03731581,-9.810616,0,0,45.60442,1,1,753,995
8217,17055475,1,-0.003027948,0.01522354,-0.0148608,-0.1779074,0.06602313,-9.792159,0,0,45.60451,1,1,753,995
8221,17057307,1,0.005799394,0.008120178,-0.01916654,-0.1865147,0.1068218,-9.776875,0,0,45.60451,1,1,753,995
8224,17060079,1,0.00857281,0.002918617,-0.01987172,-0.2299798,0.1424545,-9.739132,0,0,45.60451,1,1,753,995
8255,17062289,1,0.002852936,0.005690052,-0.01557142,-0.221118,0.1537608,-9.690393,0,0,45.60451,1,1,753,995
8258,17064650,1,0.001614986,0.003426883,-0.01052204,-0.201268,0.1400354,-9.646557,0,0,45.60451,1,1,753,995
8261,17067674,1,0.00556623,-0.002860491,-0.006457047,-0.2230096,0.09549216000000001,-9.65626,0,0,45.60457,1,1,753,995
8264,17069776,1,0.009071045,0.0003315965,0.0001724064,-0.2591179,0.08317318,-9.696125,0,0,45.60457,1,1,753,995
8295,17072818,1,0.009071869,0.009398613,0.01004007,-0.2785677,0.07579581000000001,-9.739658,0,0,45.60457,1,1,753,995
8298,17074765,1,0.0035384,0.008427232999999999,0.01282334,-0.2445545,0.05669493,-9.733623,0,0,45.60457,1,1,753,995
8302,17077106,1,5.389938e-05,0.003667276,0.009562998,-0.2321764,0.07184666000000001,-9.728115000000001,0,0,45.60463,1,1,753,995
8306,17079876,1,0.006654947,-0.008864525999999999,0.00142913,-0.2304768,0.1023272,-9.743712,0,0,45.60463,1,1,753,995
8337,17082701,1,0.01006963,-0.006532689,0.003957479,-0.2415109,0.07587051,-9.796058,0,0,45.60463,1,1,753,995
8340,17085028,1,-0.0005095653,0.006129097,0.01487785,-0.2280019,0.02826936,-9.830239000000001,0,0,45.60463,1,1,753,995
8345,17087683,1,-0.01648873,0.01635676,0.02051756,-0.1752305,0.03164021,-9.849442,0,0,45.6047,1,1,753,995
8348,17089779,1,4.320635e-05,0.01240219,0.01490154,-0.1654582,0.0564427,-9.878234000000001,0,0,45.6047,1,1,753,995
8379,17092291,1,0.02252979,0.007584626,0.01028802,-0.219564,0.02030532,-9.959132,0,0,45.6047,1,1,753,995
8382,17095308,1,0.005492421,0.0150532,0.01383758,-0.2435736,-0.002290078,-9.985498,0,0,45.6047,1,1,753,995
8388,17097379,1,-0.01202543,0.01873049,0.01581121,-0.2059777,0.04367205,-9.935162999999999,0,0,45.6047,1,1,753,995
8392,17100150,1,-0.01234645,0.001927788,0.00800098,-0.1782537,0.09282963,-9.88686,0,0,45.60481,1,1,753,995
8423,17102649,1,0.005456082,-0.005643038,0.003934022,-0.2328212,0.1232901,-9.873472,0,0,45.60481,1,1,753,995
8426,17104796,1,0.02261362,0.0009074279,0.003428528,-0.2957565,0.1062768,-9.899754,0,0,45.60481,1,1,753,995
8430,17107788,1,-0.002370482,0.02318322,0.01113262,-0.2746273,0.1177278,-9.872316,0,0,45.60481,1,1,753,995
8433,17109814,1,-0.01796248,0.01947998,0.008052688000000001,-0.2084001,0.139449,-9.767448,0,0,45.60495,1,1,753,995
8464,17112810,1,0.003935324,-0.01070089,-0.005852578,-0.2138853,0.1114028,-9.709301,0,0,45.60495,1,1,753,995
8468,17114815,1,0.01816306,-0.01935826,-0.008653202,-0.2607743,0.0488806,-9.689833,0,0,45.60495,1,1,753,995
8471,17117122,1,-0.004395328,0.01106833,0.002798047,-0.3012976,-0.004581638,-9.714439,0,0,45.60495,1,1,753,995
8475,17120088,1,-0.01275357,0.02475411,0.006448801,-0.261595,0.03752103,-9.718105,0,0,45.60495,1,1,753,995
8506,17122225,1,-0.0006397309,0.01264399,0.00292154,-0.2190093,0.08465263000000001,-9.663793,0,0,45.60512,1,1,753,995
8509,17125124,1,0.02420855,-0.02389138,-0.003769412,-0.2776114,0.05063926,-9.637241,0,0,45.60512,1,1,753,995
8513,17127328,1,0.009062499,-0.01259283,-0.0009711827,-0.3802221,0.02624518,-9.638005,0,0,45.60512,1,1,753,995
8516,17129814,1,-0.02935702,0.02552801,0.006415762,-0.3529487,0.08969881,-9.639179,0,0,45.60512,1,1,753,995
8547,17132863,1,-0.0144517,0.0246411,-0.002150711,-0.2568202,0.1814818,-9.673837000000001,0,0,45.60533,1,1,753,995
8552,17135018,1,0.02787628,-0.01147941,-0.01541215,-0.2930606,0.1114617,-9.695695000000001,0,0,45.60533,1,1,753,995
8556,17139867,1,-0.02943644,0.001655046,-0.0003767011,-0.2579467,0.08674013,-9.593342,0,0,45.60533,1,1,753,995
8587,17142211,1,-0.03064204,0.01092692,0.0004052786,-0.2093007,0.1451206,-9.580007999999999,0,0,45.60556,1,1,753,995
8590,17147310,1,0.02102886,0.01221765,-0.004247695,-0.2874707,0.01017831,-9.679451,0,0,45.60556,1,1,753,995
8593,17150579,1,-0.02742281,0.02605383,0.003975396,-0.2674464,0.01853035,-9.671028,0,0,45.60556,1,1,753,995
8596,17152509,1,-0.03154475,0.01924358,0.001463988,-0.1890185,0.09090998,-9.618275000000001,0,0,45.60556,1,1,753,995
8627,17155106,1,0.0004728643,-0.007689086,-0.01148603,-0.2430974,0.08641289000000001,-9.626999,0,0,45.60583,1,1,753,995
8630,17157274,1,0.01857802,-0.01192612,-0.01167778,-0.3242522,0.05264281,-9.652524,0,0,45.60583,1,1,753,995
8634,17159598,1,-0.009931455,0.01488063,0.001807977,-0.3485439,0.05041519,-9.679681,0,0,45.60583,1,1,753,995
8637,17162683,1,-0.02329182,0.02011325,0.004262119,-0.2744592,0.1214856,-9.73019,0,0,45.60583,1,1,753,995
8668,17165116,1,-0.0001456145,-0.001889002,-0.00719152,-0.3115076,0.1426934,-9.791643000000001,0,0,45.60612,1,1,753,995
8671,17167357,1,0.007519329,-0.005660492,-0.0112746,-0.3897154,0.1247763,-9.856274000000001,0,0,45.60612,1,1,753,995
8674,17169843,1,-0.01796,0.01708993,-0.009000302999999999,-0.400851,0.1478347,-9.887126,0,0,45.60612,1,1,753,995
8677,17172425,1,-0.02389464,0.01844987,-0.008180929,-0.2941319,0.2126235,-9.849066000000001,0,0,45.60612,1,1,753,995
8708,17175106,1,-0.01180345,0.00237211,-0.01044914,-0.2765109,0.1953231,-9.829537999999999,0,0,45.60643,1,1,753,995
8711,17177676,1,0.002641374,-0.005660824,-0.01036052,-0.3110602,0.171555,-9.855435,0,0,45.60643,1,1,753,995
8715,17179802,1,-0.006462834,0.01190097,-0.004427787,-0.3151933,0.1668343,-9.890471,0,0,45.60643,1,1,753,995
8718,17182153,1,-0.0175408,0.02179676,0.001206053,-0.2638431,0.1606177,-9.916271999999999,0,0,45.60643,1,1,753,995
8749,17184824,1,-0.01044167,0.00353648,-0.00251694,-0.2423295,0.1484915,-9.906865,0,0,45.60643,1,1,753,995
8752,17187699,1,-0.004835811,-0.006398063,-0.005946621,-0.2631443,0.1311931,-9.905732,0,0,45.60673,1,1,753,995
8756,17190126,1,-0.00191782,-0.007443738,-0.006787483,-0.279812,0.1163038,-9.920883999999999,0,0,45.60673,1,1,753,995
8759,17192418,1,-0.004580442,-0.0009928688000000001,-0.004973073,-0.2648996,0.1285879,-9.959785,0,0,45.60673,1,1,753,995
8790,17194763,1,-0.007431803,0.005717511,-0.0002427451,-0.2459884,0.1436227,-9.939665,0,0,45.60673,1,1,753,995
8796,17197636,1,-0.003410563,-0.003175092,0.001584483,-0.246231,0.1440798,-9.879198000000001,0,0,45.60703,1,1,753,995
8800,17200256,1,0.003200017,-0.01246441,-0.000593226,-0.2658381,0.1497469,-9.792274000000001,0,0,45.60703,1,1,753,995
8803,17202746,1,0.006999899,-0.007294612,-0.002657347,-0.2900512,0.1467197,-9.773998000000001,0,0,45.60703,1,1,753,995
8834,17204727,1,0.009744599,0.003527761,-0.002133339,-0.3056368,0.1471307,-9.760379,0,0,45.60703,1,1,753,995
8837,17207463,1,0.01370299,0.001721799,-0.00197444,-0.3056385,0.1451003,-9.743510000000001,0,0,45.60703,1,1,753,995
8841,17209658,1,0.01446294,-0.01133852,-0.003404944,-0.3271907,0.132936,-9.752668999999999,0,0,45.60734,1,1,753,995
8844,17212818,1,0.012858,-0.01535391,-0.003680518,-0.3541648,0.1164636,-9.769909,0,0,45.60734,1,1,753,995
8875,17215333,1,0.0005385313,-0.003393378,-2.367177e-05,-0.3606156,0.07977817,-9.736051,0,0,45.60734,1,1,753,995
8878,17217909,1,-0.001260849,0.001903677,0.001484165,-0.339817,0.05200373,-9.708814,0,0,45.60734,1,1,753,995
8881,17219872,1,0.001327904,0.001551267,0.001120083,-0.3346891,0.01856546,-9.726380000000001,0,0,45.60763,1,1,753,995
8884,17223024,1,0.003342827,-0.006549561,0.0005349134,-0.3651417,-0.00838857,-9.770168,0,0,45.60763,1,1,753,995
8915,17225019,1,-0.006070498,-0.00591619,0.00519108,-0.3854145,-0.0549708,-9.773645,0,0,45.60763,1,1,753,995
8919,17227785,1,-0.01713211,0.001691583,0.010779,-0.36211,-0.06815589,-9.735963999999999,0,0,45.60763,1,1,753,995
8923,17230229,1,-0.01619726,0.0007440069000000001,0.01107079,-0.32837,-0.07815978,-9.685418,0,0,45.6079,1,1,753,995
8926,17232652,1,-0.008565734,-0.001945529,0.007275148,-0.3411137,-0.07954913,-9.693156999999999,0,0,45.6079,1,1,753,995
8957,17237882,1,-0.02054055,0.01458136,0.01378624,-0.2934968,-0.001486549,-9.658358,0,0,45.6079,1,1,753,995
8960,17240027,1,-0.0162394,0.001050003,0.01459514,-0.2367748,0.05625575,-9.651674999999999,0,0,45.6079,1,1,753,995
8963,17242926,1,-0.009227292999999999,-0.008623598999999999,0.01475535,-0.2368571,0.08824978999999999,-9.671512999999999,0,0,45.60817,1,1,753,995
8994,17248247,1,-0.004871396,0.02367821,0.01719202,-0.2029966,0.2032018,-9.763714999999999,0,0,45.60817,1,1,753,995
8998,17250696,1,0.004945429,0.02224743,0.01407898,-0.1469978,0.2419312,-9.80336,0,0,45.60817,1,1,753,995
9001,17253103,1,0.02738699,0.002418325,0.00557149,-0.191505,0.2026699,-9.841067000000001,0,0,45.60844,1,1,753,995
9032,17255862,1,0.01969925,-0.003785896,0.005429855,-0.2543018,0.1582001,-9.820228,0,0,45.60844,1,1,753,995
9035,17258065,1,-0.006106467,0.01190229,0.01082892,-0.264386,0.1315261,-9.741121,0,0,45.60844,1,1,753,995
9039,17261043,1,-0.0003648911,0.01652878,0.009583064000000001,-0.2623588,0.1097936,-9.727827,0,0,45.60844,1,1,753,995
9042,17262870,1,0.02245701,0.003959558,0.004239461,-0.3591771,0.01290526,-9.766610999999999,0,0,45.60873,1,1,753,995
9073,17265316,1,0.02345004,0.001113015,0.003957096,-0.4402152,-0.06246638,-9.801892,0,0,45.60873,1,1,753,995
9076,17267859,1,-0.01746457,0.01278384,0.00911973,-0.4586166,-0.1160471,-9.793509,0,0,45.60873,1,1,753,995
9079,17271061,1,-0.02623037,0.01192405,0.008993393000000001,-0.4480495,-0.1273762,-9.768003999999999,0,0,45.60873,1,1,753,995
9082,17273033,1,-0.01965263,0.001518838,0.004549457,-0.4873791,-0.141451,-9.772971,0,0,45.60873,1,1,753,995
9113,17275763,1,-0.0114244,0.0001424406,0.001978694,-0.5203434,-0.1441681,-9.790684000000001,0,0,45.60904,1,1,753,995
9116,17278074,1,-0.02494841,0.01022799,0.00595572,-0.4867693,-0.1042163,-9.813015,0,0,45.60904,1,1,753,995
9120,17280667,1,-0.03479766,0.01074394,0.008502022999999999,-0.4473529,-0.05316986,-9.831552,0,0,45.60904,1,1,753,995
9123,17283282,1,-0.02440522,0.002136756,0.008001919999999999,-0.4450117,0.02941054,-9.872434999999999,0,0,45.60904,1,1,753,995
9154,17285766,1,-0.01011949,0.001914282,0.008586892,-0.4451769,0.05863176,-9.887327000000001,0,0,45.60904,1,1,753,995
9157,17288582,1,-0.00080859,0.006947291,0.008216134,-0.3891241,0.1553097,-9.902601000000001,0,0,45.60937,1,1,753,995
9160,17290781,1,0.002513944,0.004350052,0.005442146,-0.3230911,0.210219,-9.891882000000001,0,0,45.60937,1,1,753,995
9163,17293011,1,0.006391459,-0.0159514,-0.007106411,-0.2666042,0.267531,-9.883221000000001,0,0,45.60937,1,1,753,995
9194,17295659,1,0.00705955,-0.01689778,-0.008678431,-0.2577022,0.2935545,-9.895695999999999,0,0,45.60937,1,1,753,995
9200,17298667,1,0.0136638,-0.005198828,-0.007723942,-0.2499028,0.2901557,-9.917341,0,0,45.60972,1,1,753,995
9205,17301111,1,0.02311553,0.01084737,-0.003119366,-0.260772,0.2425094,-9.929251000000001,0,0,45.60972,1,1,753,995
9208,17302885,1,0.01823656,0.01878597,-0.001929281,-0.3160639,0.1535389,-9.929956000000001,0,0,45.60972,1,1,753,995
9233,17325889,1,0.003379941,0.0004453578,-0.0131039,-0.3390973,0.1838848,-9.783270999999999,0,0,45.61042,1,1,753,995
9236,17328133,1,-0.00274321,0.009091835,-0.01907302,-0.2645956,0.2686134,-9.781853,0,0,45.61042,1,1,753,995
9240,17330816,1,0.003947634,0.008756257999999999,-0.01825018,-0.2172001,0.2855301,-9.786139,0,0,45.61075,1,1,753,995
9243,17332878,1,0.009632615000000001,0.0004847908,-0.01281477,-0.1899232,0.229218,-9.749675,0,0,45.61075,1,1,753,995
9275,17335825,1,0.007417691,-0.001356237,-0.01089033,-0.202622,0.1783262,-9.676326,0,0,45.61075,1,1,753,995
9280,17339115,1,-0.002426171,0.009331021,-0.01699829,-0.214543,0.09205845999999999,-9.518209000000001,0,0,45.61075,1,1,753,995
9283,17340632,1,-0.002066851,0.01197398,-0.02021947,-0.2150588,0.01372515,-9.476505,0,0,45.61075,1,1,753,995
9286,17342924,1,0.001736464,0.006322578,-0.02311975,-0.2771937,-0.08052811,-9.591141,0,0,45.61108,1,1,753,995
9317,17345537,1,0.005198631,-0.004016424,-0.017642,-0.3407033,-0.08976325,-9.710471,0,0,45.61108,1,1,753,995
9320,17348261,1,0.0116053,-0.013077,-0.004870666,-0.3876591,-0.05537362,-9.792967000000001,0,0,45.61108,1,1,753,995
9323,17353007,1,-0.0005804367,-0.03104129,0.01203516,-0.3933054,0.006160453,-9.729016,0,0,45.6114,1,1,753,995
9355,17358186,1,-0.02627298,0.00968749,-0.001422015,-0.4170255,0.2121174,-9.758402,0,0,45.6114,1,1,753,995
9358,17360628,1,-0.009226718,0.01626343,-0.008174934999999999,-0.3584898,0.2356398,-9.755566,0,0,45.6114,1,1,753,995
9361,17362886,1,0.01852558,-0.002226426,-0.01435001,-0.3040253,0.1432227,-9.722625000000001,0,0,45.61171,1,1,753,995
9393,17365894,1,0.003197131,-0.009236421999999999,-0.01095825,-0.2966681,0.1061547,-9.685378,0,0,45.61171,1,1,753,995
9396,17368299,1,-0.02528206,-0.01454797,-0.002745094,-0.2591225,0.1859972,-9.663648999999999,0,0,45.61171,1,1,753,995
9399,17370665,1,0.006122059,-0.01663827,0.001721604,-0.2484856,0.2357726,-9.693543999999999,0,0,45.61171,1,1,753,995
9402,17373162,1,0.06478349999999999,-0.01390029,0.00698488,-0.2836465,0.2174671,-9.778983,0,0,45.61171,1,1,753,995
9433,17375285,1,0.06415011,-0.003196569,0.01711058,-0.2783047,0.1788169,-9.812453,0,0,45.61203,1,1,753,995
9436,17378578,1,0.009258066000000001,0.004669885,0.01886704,-0.2178917,0.1696153,-9.812427,0,0,45.61203,1,1,753,995
9439,17380713,1,-0.01259952,0.004592491,0.01192094,-0.2048239,0.1743605,-9.819818,0,0,45.61203,1,1,753,995
9442,17382846,1,0.0004370561,0.008858822000000001,-0.01234956,-0.2174562,0.1377133,-9.874057000000001,0,0,45.61203,1,1,753,995
9473,17385844,1,0.01423344,0.01838467,-0.01215731,-0.22957,0.05093522,-9.877504,0,0,45.61203,1,1,753,995
9477,17388011,1,0.02138609,0.03279817,-0.002890874,-0.1800228,-0.09864456000000001,-9.782316,0,0,45.61234,1,1,753,995
9480,17390928,1,-0.002041161,0.01242543,0.003060398,-0.1556194,-0.1501946,-9.737259,0,0,45.61234,1,1,753,995
9484,17393229,1,-0.02432815,-0.02482543,0.002629189,-0.2566842,-0.09406929999999999,-9.765712000000001,0,0,45.61234,1,1,753,995
9515,17395651,1,-0.01444371,-0.02790589,0.007555218,-0.3592205,0.009628164999999999,-9.78063,0,0,45.61234,1,1,753,995
9521,17398285,1,0.0217961,-0.005616249,0.01825461,-0.3488072,0.1298082,-9.730521,0,0,45.61265,1,1,753,995
9525,17400846,1,0.03568368,-0.001203117,0.02158094,-0.2728661,0.1479796,-9.698008,0,0,45.61265,1,1,753,995
9528,17403388,1,0.002403985,-0.01386981,0.01465001,-0.3037109,0.1696469,-9.702004000000001,0,0,45.61265,1,1,753,995
9559,17405924,1,-0.02090077,-0.005152477,0.01039981,-0.3819246,0.2316868,-9.705177000000001,0,0,45.61265,1,1,753,995
9563,17408024,1,-0.02599189,0.03477203,0.003207872,-0.3252392,0.3315577,-9.671635999999999,0,0,45.61296,1,1,753,995
9566,17410717,1,0.03228822,0.04563366,-0.002553942,-0.2292849,0.2881303,-9.684972999999999,0,0,45.61296,1,1,753,995
9569,17413103,1,0.06341496000000001,0.006495361,-0.00241549,-0.2222077,0.1169136,-9.815011,0,0,45.61296,1,1,753,995
9600,17415733,1,0.01825459,-0.02228927,0.008774096,-0.2639083,0.0953735,-9.892395,0,0,45.61296,1,1,753,995
9603,17418180,1,-0.01069697,-0.0120901,0.02497558,-0.2040948,0.1893331,-9.832642999999999,0,0,45.61296,1,1,753,995
9606,17421061,1,0.02959883,-0.00768929,0.02967918,-0.1161485,0.156533,-9.721617,0,0,45.61327,1,1,753,995
9609,17422968,1,0.04226377,-0.02141383,0.02228207,-0.1266989,-0.02059113,-9.628003,0,0,45.61327,1,1,753,995
9640,17425652,1,0.01634278,-0.02020603,0.01756017,-0.2345672,-0.05916022,-9.621784999999999,0,0,45.61327,1,1,753,995
9644,17428546,1,-0.05622793,0.03285314,0.005204642,-0.3346706,0.04292838,-9.588794,0,0,45.61327,1,1,753,995
9649,17430748,1,-0.04076182,0.04414987,0.0001896741,-0.3131153,0.05880466,-9.559400999999999,0,0,45.61361,1,1,753,995
9652,17432929,1,0.01312385,0.02732282,-0.0112228,-0.323158,-0.04562138,-9.645265999999999,0,0,45.61361,1,1,753,995
9683,17435882,1,0.01025384,-0.01052486,-0.01328319,-0.4045183,-0.06092505,-9.768129999999999,0,0,45.61361,1,1,753,995
9687,17438102,1,-0.02738174,-0.01343163,0.0001756535,-0.5016011,0.1145091,-9.8558,0,0,45.61361,1,1,753,995
9690,17440804,1,-0.004757808,0.007993811,0.01669118,-0.4585874,0.2273715,-9.811828999999999,0,0,45.61361,1,1,753,995
9693,17443010,1,0.04901686,-0.0009475436,0.02177676,-0.3053977,0.1857161,-9.737306,0,0,45.61396,1,1,753,995
9724,17448445,1,-0.02593351,-0.01136953,0.003192995,-0.3219693,0.2199075,-9.743653,0,0,45.61396,1,1,753,995
9727,17450407,1,-0.03786393,0.01216296,-0.002631952,-0.2915001,0.2856103,-9.683546,0,0,45.61396,1,1,753,995
9730,17452936,1,0.02267694,0.03632023,-0.02529193,-0.1373357,0.1954283,-9.649260999999999,0,0,45.61431,1,1,753,995
9761,17455277,1,0.03371157,0.01639746,-0.03095569,-0.1320228,0.06973675999999999,-9.732066,0,0,45.61431,1,1,753,995
9764,17458638,1,-0.001609099,-0.01523695,-0.0275577,-0.3412269,0.0661673,-9.878709000000001,0,0,45.61431,1,1,753,995
9768,17460611,1,-0.03053704,0.005484864,-0.005413085,-0.4033623,0.1713511,-9.868052,0,0,45.61431,1,1,753,995
9772,17465540,1,0.04305815,-0.02795576,0.01418653,-0.1760516,0.04228557,-9.702360000000001,0,0,45.61466,1,1,753,995
9803,17468172,1,-0.01482122,-0.04696394,0.006823695,-0.4063802,0.01285169,-9.712305000000001,0,0,45.61466,1,1,753,995
9807,17470885,1,-0.04769034,-0.02204627,0.003727839,-0.5006078,0.1280127,-9.704469,0,0,45.61466,1,1,753,995
9810,17472850,1,-0.008821232,0.06800663,-0.01625538,-0.3177211,0.1296086,-9.685548000000001,0,0,45.61466,1,1,753,995
9813,17476073,1,0.02407089,0.05689918,-0.02732466,-0.2111713,-0.03176945,-9.748290000000001,0,0,45.61501,1,1,753,995
9844,17478280,1,0.01868799,0.0029195,-0.04186675,-0.3777368,-0.192862,-9.905606000000001,0,0,45.61501,1,1,753,995
9847,17480902,1,-0.06439096,0.01863943,-0.01302328,-0.4924578,-0.01592283,-9.936241000000001,0,0,45.61501,1,1,753,995
9850,17483728,1,-0.04470816,0.03232256,4.509523e-05,-0.3381392,0.07768221,-9.855677999999999,0,0,45.61501,1,1,753,995
9853,17485923,1,0.03008529,-0.001398036,0.008500855999999999,-0.1647063,-0.02631888,-9.73236,0,0,45.61535,1,1,753,995
9884,17488749,1,0.02006568,-0.06343629000000001,0.003709188,-0.2929201,-0.04311473,-9.688238,0,0,45.61535,1,1,753,995
9888,17491005,1,-0.05787416,-0.03480993,0.004277558,-0.4678568,0.2056436,-9.600307000000001,0,0,45.61535,1,1,753,995
9891,17493108,1,-0.04635125,0.04231993,0.001544357,-0.3700424,0.3409428,-9.518762000000001,0,0,45.61535,1,1,753,995
9894,17496086,1,0.03912317,0.04682828,-0.01655967,-0.2733549,0.192489,-9.558294999999999,0,0,45.6157,1,1,753,995
9928,17498558,1,0.0383203,0.009439919999999999,-0.02936519,-0.4429904,0.05265349,-9.691557,0,0,45.6157,1,1,753,995
9932,17501055,1,-0.03316393,0.02923408,-0.01464018,-0.7418121,0.164845,-9.841948,0,0,45.6157,1,1,753,995
9935,17503250,1,-0.04033121,0.04948543,-0.002633787,-0.6950748,0.277659,-9.823623,0,0,45.6157,1,1,753,995
9938,17506259,1,0.0566105,-0.005513911,0.008032829999999999,-0.5272243,0.1949861,-9.771653000000001,0,0,45.6157,1,1,753,995
9971,17508731,1,0.05889575,-0.04818028,0.007023082,-0.4964342,-0.08428374,-9.759494999999999,0,0,45.61605,1,1,753,995
9975,17511128,1,-0.01761608,-0.0670852,0.01297611,-0.6231027,-0.01410003,-9.732157000000001,0,0,45.61605,1,1,753,995
9978,17513172,1,-0.06391840999999999,0.009549800000000001,0.02085265,-0.5417347,0.127207,-9.637715,0,0,45.61605,1,1,753,995
9982,17515848,1,-0.001771525,0.05393173,0.007202876,-0.3071942,0.05395714,-9.579221,0,0,45.61605,1,1,753,995
10013,17518741,1,0.03163453,0.02270192,-0.0195566,-0.3334965,-0.08773893000000001,-9.670914,0,0,45.61642,1,1,753,995
10016,17520816,1,-0.03551283,0.01052837,-0.02695037,-0.505951,-0.09206855999999999,-9.799429,0,0,45.61642,1,1,753,995
10019,17523644,1,-0.06401009000000001,0.02539919,-0.0206821,-0.5553374,0.03154041,-9.845863,0,0,45.61642,1,1,753,995
10022,17525686,1,0.004621448,0.00442164,0.00436625,-0.4092665,0.05561875,-9.781148,0,0,45.61642,1,1,753,995
10053,17528343,1,0.03066855,-0.04254677,0.008822228,-0.2487529,-0.1644985,-9.638047,0,0,45.61642,1,1,753,995
10057,17531546,1,-0.001944929,-0.106672,0.01770892,-0.434839,-0.1544421,-9.570061000000001,0,0,45.61678,1,1,753,995
10060,17533164,1,-0.06239908,-0.0452394,0.03281662,-0.4816069,0.02891877,-9.480778000000001,0,0,45.61678,1,1,753,995
10063,17536217,1,-0.0139121,0.04916478,0.03260145,-0.2560281,0.08764842,-9.360256,0,0,45.61678,1,1,753,995
10096,17538883,1,0.06494837000000001,0.05016503,0.002545872,-0.1892402,-0.07178474,-9.455458,0,0,45.61678,1,1,753,995
10099,17543037,1,-0.03973071,0.04185817,-0.0223242,-0.5518076,-0.04390932,-9.920254999999999,0,0,45.61713,1,1,753,995
10102,17545713,1,-0.002863698,0.03666463,-0.005707725,-0.3032871,0.0381934,-9.793606,0,0,45.61713,1,1,753,995
10133,17550789,1,0.001567943,-0.09604768,0.02321082,-0.3681136,-0.2382958,-9.602354,0,0,45.61713,1,1,753,995
10137,17553674,1,-0.0351449,-0.06101592,0.03409615,-0.5362876,-0.07920853,-9.544565,0,0,45.61748,1,1,753,995
10141,17556474,1,-0.03085234,0.05175767,0.04454239,-0.381841,0.05262683,-9.434189999999999,0,0,45.61748,1,1,753,995
10172,17559131,1,0.04560243,0.07863298000000001,0.02040499,-0.2545014,-0.06607291999999999,-9.510168,0,0,45.61748,1,1,753,995
10175,17561270,1,0.03597176,0.02629926,-0.01869106,-0.5024675,-0.1533574,-9.877318000000001,0,0,45.61748,1,1,753,995
10179,17563369,1,-0.04722904,0.02401383,-0.02850979,-0.7170148,0.01293515,-10.04683,0,0,45.61782,1,1,753,995
10182,17566541,1,-0.04196411,0.04095855,-0.009414687999999999,-0.5006087,0.2395483,-9.937363,0,0,45.61782,1,1,753,995
10213,17569020,1,-0.00428973,0.01617666,0.0005842586,-0.2419892,0.134813,-9.756804000000001,0,0,45.61782,1,1,753,995
10216,17571670,1,0.02241031,-0.05188642,0.01837804,-0.2889198,0.01846022,-9.589517000000001,0,0,45.61782,1,1,753,995
10219,17573760,1,-0.01767716,-0.001522545,0.04110552,-0.4506492,0.1841155,-9.501379999999999,0,0,45.61782,1,1,753,995
10222,17576315,1,-0.009605911999999999,0.05366658,0.04620809,-0.3087025,0.4139268,-9.319772,0,0,45.61817,1,1,753,995
10253,17579196,1,0.01982209,0.0924316,0.04111885,-0.1088634,0.3391667,-9.316481,0,0,45.61817,1,1,753,995
10257,17581325,1,0.04260954,0.07392413,0.005102157,-0.2553377,0.1861132,-9.686548999999999,0,0,45.61817,1,1,753,995
10261,17583938,1,-0.02750319,0.04545933,-0.019279,-0.4692885,0.2519524,-9.925357999999999,0,0,45.61817,1,1,753,995
10264,17586079,1,-0.05242666,0.05411432,-0.01118659,-0.3076751,0.303246,-9.884107999999999,0,0,45.61851,1,1,753,995
10295,17588818,1,0.01040346,0.0006088571,0.001457848,-0.01620282,0.105701,-9.74762,0,0,45.61851,1,1,753,995
10298,17591657,1,0.02307473,-0.07820783000000001,0.01219731,0.08586081,-0.1295573,-9.695808,0,0,45.61851,1,1,753,995
10301,17593826,1,-0.00325956,-0.07857966,0.02068222,0.01945655,-0.1676717,-9.685188,0,0,45.61851,1,1,753,995
10304,17596578,1,-0.01616522,0.06074958,0.03509045,0.163286,-0.09495178999999999,-9.594384,0,0,45.61851,1,1,753,995
10338,17599088,1,0.04582684,0.07909533000000001,0.006611863,0.416417,-0.2542996,-9.617495999999999,0,0,45.61885,1,1,753,995
10342,17601782,1,0.04951129,0.05054452,-0.01434777,0.2801817,-0.3095346,-9.799514,0,0,45.61885,1,1,753,995
10346,17603898,1,-0.05291235,0.01258866,-0.03500735,0.01094887,-0.1834736,-9.989432000000001,0,0,45.61885,1,1,753,995
10350,17606235,1,-0.06287526,0.02468552,-0.02511009,-0.04597907,0.06414042,-10.00483,0,0,45.61885,1,1,753,995
10381,17609295,1,-0.0151808,0.006131483,-0.00373549,0.09966891,0.04172318,-9.873710000000001,0,0,45.61918,1,1,753,995
10384,17611328,1,0.007672207,-0.07055277,0.008004659000000001,5.583759e-05,-0.05283255,-9.747597000000001,0,0,45.61918,1,1,753,995
10388,17613793,1,-0.01266219,-0.0880027,0.01373376,-0.2772517,0.06847174,-9.726985000000001,0,0,45.61918,1,1,753,995
10391,17616574,1,-0.03092119,0.02885971,0.02860506,-0.4514384,0.3602148,-9.622584,0,0,45.61918,1,1,753,995
10422,17619118,1,0.04294324,0.07903744,0.01119479,-0.229039,0.3127397,-9.568745,0,0,45.6195,1,1,753,995
10425,17621645,1,0.06342944,0.05834426,-0.007532491,-0.2152803,0.2133631,-9.726931,0,0,45.6195,1,1,753,995
10428,17623930,1,0.02590801,0.00865026,-0.0331225,-0.3885247,0.2376396,-9.946209,0,0,45.6195,1,1,753,995
10431,17626076,1,-0.02759676,0.01866182,-0.02333508,-0.4701949,0.3659051,-10.03034,0,0,45.6195,1,1,753,995
10463,17629309,1,0.0009512001,0.02050767,-0.0008554972000000001,-0.2649348,0.2831383,-9.924033,0,0,45.6195,1,1,753,995
10466,17631657,1,0.0302226,-0.0417118,0.009245631000000001,-0.1395743,0.01566613,-9.821137999999999,0,0,45.61983,1,1,753,995
10470,17633655,1,-0.01200588,-0.06981663,0.01105491,-0.3189845,-0.02283647,-9.82169,0,0,45.61983,1,1,753,995
10473,17636051,1,-0.03723868,0.006700834,0.01329866,-0.4669962,0.09603977,-9.750958000000001,0,0,45.61983,1,1,753,995
10504,17638861,1,-0.02007171,0.05025841,0.01082007,-0.3068014,0.06492025,-9.69211,0,0,45.61983,1,1,753,995
10507,17641276,1,0.01684363,0.03252621,-0.02789151,-0.2276367,-0.1132823,-9.818727000000001,0,0,45.62015,1,1,753,995
10510,17648766,1,0.005580952,0.001311116,-0.006137593,-0.4764032,0.1509148,-10.06533,0,0,45.62015,1,1,753,995
10541,17651856,1,0.01187047,-0.03704679,0.002139836,-0.4144632,0.004318431,-9.960611999999999,0,0,45.62015,1,1,753,995
10546,17654014,1,-0.04146357,-0.08373082,0.01306343,-0.6213926,0.1558643,-9.840419000000001,0,0,45.62046,1,1,753,995
10549,17657100,1,-0.06408717,-0.01924794,0.02016878,-0.6529430000000001,0.3746184,-9.715911,0,0,45.62046,1,1,753,995
10552,17659387,1,0.01755075,0.06099458,0.01274342,-0.3740375,0.3541737,-9.592646,0,0,45.62046,1,1,753,995
10584,17661769,1,0.0586292,0.05271549,-0.01281308,-0.3748021,0.1875664,-9.838277,0,0,45.62046,1,1,753,995
10587,17663899,1,-0.01180276,0.03189598,-0.0310402,-0.5849800000000001,0.2940917,-10.03419,0,0,45.62077,1,1,753,995
10590,17666706,1,-0.04215664,0.03988786,-0.02934645,-0.6293299,0.4363268,-10.04268,0,0,45.62077,1,1,753,995
10594,17669571,1,0.01897043,0.01498837,-0.01116107,-0.2946967,0.2495549,-9.830956,0,0,45.62077,1,1,753,995
10625,17672175,1,0.03618921,-0.02677725,-0.006898954,-0.1868636,-0.002434496,-9.739122999999999,0,0,45.62077,1,1,753,995
10629,17674070,1,-0.04548083,-0.06314139000000001,0.0144754,-0.3525118,0.001687909,-9.647785000000001,0,0,45.62107,1,1,753,995
10632,17676383,1,-0.05334732,-0.02180942,0.02281936,-0.3410866,0.1805646,-9.547612000000001,0,0,45.62107,1,1,753,995
10635,17679052,1,0.01241375,0.0528804,0.02454424,-0.08328606,0.1406132,-9.539129000000001,0,0,45.62107,1,1,753,995
10666,17681809,1,0.04660546,0.04625328,0.002704399,-0.1108858,-0.0388675,-9.733203,0,0,45.62107,1,1,753,995
10670,17684223,1,-0.03444412,0.03270059,-0.01820745,-0.5041914,0.05640387,-10.01839,0,0,45.62107,1,1,753,995
10673,17686896,1,-0.06372354,0.05474033,-0.02249358,-0.5922693999999999,0.2668271,-10.03367,0,0,45.62137,1,1,753,995
10676,17689234,1,0.01792408,0.01410448,-0.01660356,-0.3266241,0.1351834,-9.894235999999999,0,0,45.62137,1,1,753,995
10707,17692058,1,0.04002111,-0.03480922,-0.0106447,-0.3048582,-0.1210455,-9.852384000000001,0,0,45.62137,1,1,753,995
10710,17694074,1,-0.06766901,-0.07439429,0.02329811,-0.5696177,-0.02270243,-9.772287,0,0,45.62137,1,1,753,995
10713,17696913,1,-0.07803765999999999,-0.02867782,0.03447582,-0.5591685,0.2335156,-9.637447,0,0,45.62165,1,1,753,995
10719,17699556,1,0.08156122,0.06389149,0.0271,-0.2862481,0.1693761,-9.580867,0,0,45.62165,1,1,753,995
10751,17702070,1,0.0727218,0.0529841,0.0004357445,-0.3902651,-0.07129893,-9.891299,0,0,45.62165,1,1,753,995
10755,17704623,1,0.01640635,0.05714865,-0.008820023999999999,-0.5789253,0.06262774,-10.08772,0,0,45.62165,1,1,753,995
10758,17706838,1,-0.04263525,0.07352272,-0.02080355,-0.460362,0.3283753,-10.07967,0,0,45.62194,1,1,753,995
10762,17710010,1,0.03422844,0.01436516,-0.02882484,-0.2506194,0.1515066,-9.993588000000001,0,0,45.62194,1,1,753,995
10793,17712675,1,0.05495107,-0.08853729,-0.01926343,-0.3187298,-0.1715053,-9.935670999999999,0,0,45.62194,1,1,753,995
10796,17715296,1,-0.05543616,-0.02954003,0.03292798,-0.492682,0.06700776,-9.772099000000001,0,0,45.62194,1,1,753,995
10799,17717572,1,-0.02996248,0.02421874,0.04359887,-0.3538868,0.2047017,-9.667819,0,0,45.62194,1,1,753,995
10802,17719807,1,0.07652865,0.07052807,0.03370932,-0.1249851,-0.03372622,-9.829020999999999,0,0,45.62222,1,1,753,995
10833,17722811,1,0.05391947,0.0542645,0.002588655,-0.2676096,-0.1437674,-10.08232,0,0,45.62222,1,1,753,995
10837,17724884,1,-0.06798932000000001,0.06340664999999999,-0.01700692,-0.4897143,0.1933746,-10.24204,0,0,45.62222,1,1,753,995
10840,17727829,1,-0.05182071,0.04389639,-0.02790801,-0.3528658,0.3899199,-10.15299,0,0,45.62222,1,1,753,995
10843,17729702,1,0.03390546,-0.05992702,-0.02667754,-0.1806583,0.1554095,-10.00426,0,0,45.62248,1,1,753,995
10874,17732620,1,0.02757571,-0.1051558,-0.01490828,-0.3691514,0.02900681,-9.923298000000001,0,0,45.62248,1,1,753,995
10878,17735230,1,-0.08184534,-0.04110431,0.04728699,-0.5504303,0.316609,-9.707751,0,0,45.62248,1,1,753,995
10881,17737677,1,-0.0499229,0.009568774,0.05752713,-0.3832852,0.4214171,-9.574695,0,0,45.62248,1,1,753,995
10886,17740260,1,0.08253857000000001,0.04679189,0.04399875,-0.2058064,0.06687418000000001,-9.691119,0,0,45.62273,1,1,753,995
10917,17742574,1,0.08088505999999999,0.03281723,0.009068171,-0.3584542,-0.08582186,-9.935988,0,0,45.62273,1,1,753,995
10920,17744926,1,-0.03524758,0.05178283,-0.01414039,-0.5324337,0.2446345,-10.11487,0,0,45.62273,1,1,753,995
10923,17751178,1,0.06642542,-0.07368995,-0.02521969,-0.2202191,-0.03703463,-9.932448000000001,0,0,45.62273,1,1,753,995
10926,17752663,1,0.003059293,-0.1257397,0.006267737,-0.3784561,-0.2265472,-9.851345999999999,0,0,45.62299,1,1,753,995
10958,17755128,1,-0.07869221,-0.04036247,0.04500135,-0.4680707,0.1061151,-9.563032,0,0,45.62299,1,1,753,995
10962,17757768,1,-0.0496177,0.01322505,0.0514531,-0.2952288,0.2885807,-9.40849,0,0,45.62299,1,1,753,995
10966,17760108,1,0.09644357000000001,0.04318872,0.01274308,-0.2175002,0.03118486,-9.556984,0,0,45.62299,1,1,753,995
10969,17763055,1,0.05752998,0.03655127,-0.003369958,-0.4326745,-0.0779759,-9.787151,0,0,45.62327,1,1,753,995
11000,17765021,1,-0.08281868000000001,0.05290297,-0.01999639,-0.5682949,0.2911233,-9.900150999999999,0,0,45.62327,1,1,753,995
11003,17767832,1,0.0003165826,-0.01558174,-0.03371978,-0.3827069,0.447369,-9.838625,0,0,45.62327,1,1,753,995
11006,17770201,1,0.04717007,-0.07391673,-0.02998742,-0.2597435,0.1290059,-9.804726,0,0,45.62327,1,1,753,995
11009,17773022,1,-0.002112502,-0.1221549,0.006458543,-0.4277731,0.04264148,-9.774668999999999,0,0,45.62327,1,1,753,995
11040,17775656,1,-0.08892192,-0.03276961,0.05006668,-0.4744172,0.453544,-9.547234,0,0,45.62355,1,1,753,995
11044,17778056,1,0.01180022,0.05162137,0.0503098,-0.2564334,0.6157423,-9.444772,0,0,45.62355,1,1,753,995
11047,17780444,1,0.1167083,0.0516914,0.0147372,-0.1578243,0.290981,-9.653444,0,0,45.62355,1,1,753,995
11050,17783413,1,0.08978725,0.04995301,-0.003253037,-0.3064328,0.1465389,-9.888824,0,0,45.62355,1,1,753,995
11081,17785826,1,-0.03756681,0.07460548,-0.02769557,-0.2585305,0.432473,-9.983169,0,0,45.62383,1,1,753,995
11084,17787761,1,0.02916876,-0.0004223205,-0.04433174,0.01317992,0.4927612,-9.898410999999999,0,0,45.62383,1,1,753,995
11087,17790113,1,0.06860937,-0.05851479,-0.03788878,0.1805104,0.04280426,-9.840807999999999,0,0,45.62383,1,1,753,995
11090,17792879,1,0.01536496,-0.101283,0.001553145,0.03331437,-0.1231584,-9.773396,0,0,45.62383,1,1,753,995
11121,17795615,1,-0.07198462,-0.01391199,0.04062387,0.006177662,0.09153958,-9.48521,0,0,45.6241,1,1,753,995
11125,17798136,1,0.01194882,0.05795063,0.03393202,0.1434371,0.09273004999999999,-9.37218,0,0,45.6241,1,1,753,995
11132,17800462,1,0.08962169,0.04930355,-0.005068382,0.03098751,-0.3007142,-9.630559999999999,0,0,45.6241,1,1,753,995
11138,17803068,1,-0.01725797,0.05828856,-0.03204667,-0.2301194,-0.3550768,-9.868924,0,0,45.6241,1,1,753,995
11169,17805072,1,-0.098033,0.07432738999999999,-0.04235867,-0.285152,0.0691258,-9.931957000000001,0,0,45.6241,1,1,753,995
11173,17808236,1,-0.008278124,-0.005606949,-0.04401192,-0.1303668,0.2173075,-9.872603,0,0,45.62439,1,1,753,995
11176,17810798,1,0.03241529,-0.06539983000000001,-0.03547297,-0.2090359,-0.05655448,-9.791757,0,0,45.62439,1,1,753,995
11179,17812804,1,-0.01627328,-0.1042324,0.008339087,-0.4394245,-0.09984829000000001,-9.672224,0,0,45.62439,1,1,753,995
11210,17815121,1,-0.09044711,-0.01201431,0.05311293,-0.4352153,0.3309622,-9.380504999999999,0,0,45.62439,1,1,753,995
11213,17817725,1,0.01370535,0.05816005,0.04713551,-0.1998428,0.4094511,-9.404913000000001,0,0,45.62469,1,1,753,995
11216,17820849,1,0.1103244,0.05246433,0.004731033,-0.2666343,0.1866995,-9.666475999999999,0,0,45.62469,1,1,753,995
11219,17823147,1,0.07936209,0.05279066,-0.01445984,-0.4187661,0.1638766,-9.914118999999999,0,0,45.62469,1,1,753,995
11250,17825141,1,-0.06340368,0.07153896,-0.04695632,-0.3227241,0.5038481,-9.982229,0,0,45.62469,1,1,753,995
11254,17827893,1,0.02006937,-0.01007855,-0.05111007,-0.1205524,0.4733602,-9.934222999999999,0,0,45.62469,1,1,753,995
11257,17830238,1,0.05252049,-0.06163018,-0.04067979,-0.1491062,0.03361529,-9.881499,0,0,45.62498,1,1,753,995
11261,17832920,1,-0.006274259,-0.07082761999999999,0.003705263,-0.2698511,-0.04538714,-9.739924,0,0,45.62498,1,1,753,995
11292,17835648,1,-0.07502865,0.02552256,0.04242907,-0.1147727,0.1530305,-9.461976999999999,0,0,45.62498,1,1,753,995
11295,17838142,1,0.01926921,0.07403897,0.0337828,0.06227509,-0.09264959,-9.521132,0,0,45.62498,1,1,753,995
11298,17840110,1,0.08026476,0.0564503,-0.001623239,-0.0571041,-0.3715978,-9.747434999999999,0,0,45.62523,1,1,753,995
11301,17842889,1,-0.03215929,0.05565214,-0.0283845,-0.2057467,-0.351996,-9.922682,0,0,45.62523,1,1,753,995
11332,17845049,1,-0.08995374,0.04412635,-0.0456368,-0.125706,0.05496559,-9.904938,0,0,45.62523,1,1,753,995
11336,17851675,1,0.01754135,-0.09520851,-0.007961548000000001,-0.1932756,-0.1322499,-9.809380000000001,0,0,45.62543,1,1,753,995
11339,17853066,1,-0.07318287,-0.04633795,0.04545206,-0.2951507,0.1277006,-9.551107,0,0,45.62543,1,1,753,995
11370,17855661,1,-0.08082933,-0.006301556,0.05827309,-0.20094,0.4222908,-9.377962,0,0,45.62543,1,1,753,995
11374,17858072,1,0.08122129,0.03406915,0.02218353,-0.1446017,0.3936038,-9.422241,0,0,45.62543,1,1,753,995
11377,17861076,1,0.09192205000000001,0.03419069,0.003552686,-0.2620997,0.2491511,-9.628410000000001,0,0,45.62543,1,1,753,995
11380,17863018,1,-0.003929826,0.05450918,-0.02132061,-0.3464818,0.4666897,-9.835720999999999,0,0,45.62561,1,1,753,995
11412,17865650,1,-0.04041054,0.04623323,-0.03869993,-0.2512879,0.6512831,-9.856545000000001,0,0,45.62561,1,1,753,995
11415,17868069,1,0.04797469,-0.03438305,-0.04094293,-0.1908757,0.3726426,-9.91005,0,0,45.62561,1,1,753,995
11418,17870883,1,0.0468909,-0.09026041999999999,-0.004593059,-0.2665821,0.1043681,-9.919114,0,0,45.62561,1,1,753,995
11421,17874003,1,-0.049315,-0.04773703,0.04338126,-0.2452953,0.1437673,-9.731420999999999,0,0,45.62576,1,1,753,995
11424,17875933,1,-0.05865797,-0.01222859,0.05397261,-0.09947496,0.2572537,-9.593736,0,0,45.62576,1,1,753,995
11455,17878099,1,0.07168181999999999,0.01992305,0.01885556,0.02113914,0.03201381,-9.680154,0,0,45.62576,1,1,753,995
11459,17880666,1,0.07000233,0.01751321,0.001174757,-0.05578331,-0.1460933,-9.857856,0,0,45.62576,1,1,753,995
11462,17883305,1,-0.03479442,0.03038887,-0.02206723,-0.1534805,0.05781964,-9.944096,0,0,45.62587,1,1,753,995
11465,17885808,1,-0.07204603,0.01844204,-0.02979072,-0.1021768,0.2536649,-9.901128,0,0,45.62587,1,1,753,995
11496,17888622,1,0.01324081,-0.04602446,-0.01952736,-0.07703429000000001,0.1121208,-9.851074000000001,0,0,45.62587,1,1,753,995
11500,17890621,1,0.02068034,-0.08592925,0.01432191,-0.1590459,-0.006340472,-9.800291,0,0,45.62587,1,1,753,995
11503,17893226,1,-0.05220678,-0.0488921,0.05055058,-0.2012214,0.228564,-9.576354,0,0,45.62587,1,1,753,995
11507,17895577,1,-0.01842881,0.009281533999999999,0.05217111,-0.1394068,0.3998514,-9.453643,0,0,45.62596,1,1,753,995
11538,17898638,1,0.07274545,0.02963532,0.022213,-0.1234396,0.2573722,-9.556673,0,0,45.62596,1,1,753,995
11545,17901054,1,0.07393188000000001,0.03368867,0.005843312,-0.2284198,0.1368794,-9.752177,0,0,45.62596,1,1,753,995
11549,17903108,1,-0.03765237,0.05655202,-0.02574836,-0.3380151,0.3687014,-9.925443,0,0,45.62596,1,1,753,995
11552,17905593,1,-0.02829037,0.04766518,-0.03163068,-0.2930351,0.4974797,-9.937006999999999,0,0,45.62604,1,1,753,995
11583,17908069,1,0.04736913,-0.01268885,-0.02715735,-0.2266075,0.203637,-9.931350999999999,0,0,45.62604,1,1,753,995
11587,17910904,1,0.03354908,-0.06162122,0.005123825,-0.2656867,-0.00462379,-9.888415,0,0,45.62604,1,1,753,995
11590,17913573,1,-0.04529458,-0.03786111,0.036458,-0.2703916,0.1049175,-9.68974,0,0,45.62604,1,1,753,995
11593,17915763,1,-0.005430918,0.01066574,0.03666115,-0.206906,0.1456279,-9.61087,0,0,45.62604,1,1,753,995
11624,17917929,1,0.08020072,0.0305778,0.0116444,-0.2072378,-0.1622656,-9.785014,0,0,45.62611,1,1,753,995
11627,17920925,1,0.07252312,0.0367559,-0.002277371,-0.3057695,-0.3137041,-9.979278000000001,0,0,45.62611,1,1,753,995
11630,17923336,1,-0.05937638,0.0541934,-0.03319187,-0.3624878,-0.09682905999999999,-10.07549,0,0,45.62611,1,1,753,995
11633,17926084,1,-0.05162024,0.04184714,-0.03887518,-0.3017394,0.03316864,-10.03559,0,0,45.62611,1,1,753,995
11664,17928144,1,0.03855997,-0.03904066,-0.02027683,-0.2718956,-0.1533148,-9.990392,0,0,45.62619,1,1,753,995
11668,17930700,1,0.01659627,-0.04713662,-0.0009280023,-0.3232717,-0.201938,-9.913869999999999,0,0,45.62619,1,1,753,995
11671,17933091,1,-0.05468484,-0.01872492,0.03428949,-0.3139977,0.1332776,-9.671656,0,0,45.62619,1,1,753,995
11674,17935814,1,-0.0109852,0.01829763,0.03812007,-0.2792805,0.2865099,-9.589252,0,0,45.62619,1,1,753,995
11705,17938679,1,0.07334004,0.0384275,0.01657861,-0.3267049,0.1358209,-9.724152999999999,0,0,45.62626,1,1,753,995
11710,17941314,1,0.03085373,0.06333658,-0.00510013,-0.3759784,0.1219872,-9.855345,0,0,45.62626,1,1,753,995
11713,17943213,1,-0.02982685,0.07038525,-0.02549186,-0.3505249,0.434216,-9.927061,0,0,45.62626,1,1,753,995
11716,17945355,1,-0.01342886,0.05453081,-0.03314044,-0.3053609,0.5187916,-9.918773,0,0,45.62626,1,1,753,995
11747,17947926,1,0.05671982,-0.02764923,-0.02120286,-0.2771352,0.216114,-9.862727,0,0,45.62626,1,1,753,995
11751,17954367,1,-0.05057341,-0.03276464,0.01783581,-0.2319262,0.2091505,-9.568348,0,0,45.62633,1,1,753,995
11754,17955751,1,0.04714128,0.02340128,0.009995800000000001,-0.2391806,0.11534,-9.582958,0,0,45.62633,1,1,753,995
11785,17958661,1,0.07440600999999999,0.03990487,0.003828338,-0.2707815,-0.1195332,-9.755578,0,0,45.62633,1,1,753,995
11789,17961116,1,0.01688187,0.06365373000000001,-0.005643325,-0.3406667,-0.1444761,-9.966241,0,0,45.62641,1,1,753,995
11792,17963927,1,-0.0658921,0.05622261,-0.02136449,-0.3778632,0.05485218,-9.962603,0,0,45.62641,1,1,753,995
11795,17966575,1,-0.0285972,0.000730616,-0.035936,-0.3819924,0.07126383999999999,-9.864312999999999,0,0,45.62641,1,1,753,995
11826,17968602,1,-0.01581704,-0.07236496000000001,-0.01084683,-0.3865945,-0.1871952,-9.765674000000001,0,0,45.62641,1,1,753,995
11831,17971398,1,-0.05372703,-0.06698357000000001,0.004641953,-0.4149282,-0.1333993,-9.670266,0,0,45.62651,1,1,753,995
11834,17974115,1,-0.06475243999999999,-0.02276778,0.02380245,-0.4231117,0.1471208,-9.587519,0,0,45.62651,1,1,753,995
11838,17976301,1,0.03630744,0.0206478,0.02115194,-0.4016061,0.1169658,-9.654628000000001,0,0,45.62651,1,1,753,995
11869,17979460,1,0.07011016,0.03395389,0.01551871,-0.3899696,-0.03135296,-9.793615000000001,0,0,45.62651,1,1,753,995
11873,17981344,1,-0.02660196,0.05240296,-0.008507954999999999,-0.3988016,0.04485143,-9.942410000000001,0,0,45.62651,1,1,753,995
11876,17984038,1,-0.04128936,0.03256908,-0.02823401,-0.3560373,0.3325903,-9.924372,0,0,45.62662,1,1,753,995
11879,17986799,1,-0.003982212,0.006516097,-0.03373794,-0.2923679,0.2558813,-9.891296000000001,0,0,45.62662,1,1,753,995
11910,17989568,1,0.01825143,-0.06819309,-0.009097579,-0.2264931,-0.08109941,-9.814546,0,0,45.62662,1,1,753,995
11913,17991395,1,-0.02485814,-0.06696595,0.007298316,-0.2259349,-0.08097047,-9.690023999999999,0,0,45.62662,1,1,753,995
11916,17993695,1,-0.05822238,-0.02562422,0.02802141,-0.2265188,0.08784808,-9.523512999999999,0,0,45.62674,1,1,753,995
11919,17996245,1,0.02458964,0.02170689,0.02047629,-0.2209003,0.0007910383,-9.581035,0,0,45.62674,1,1,753,995
11952,17999224,1,0.05609079,0.03534943,0.0113795,-0.2581835,-0.1772914,-9.745108999999999,0,0,45.62674,1,1,753,995
11959,18001932,1,0.01972038,0.04506429,-0.008283013000000001,-0.355211,-0.1092666,-9.887430999999999,0,0,45.62674,1,1,753,995
11963,18003892,1,-0.01347598,0.01887266,-0.02677649,-0.3256835,0.1667663,-9.817617,0,0,45.62685,1,1,753,995
11966,18006317,1,0.006156757,-0.0137478,-0.03085773,-0.2576952,0.110553,-9.767611,0,0,45.62685,1,1,753,995
11997,18008874,1,0.02735371,-0.08564011000000001,-0.01721861,-0.2538207,-0.06901615999999999,-9.709334999999999,0,0,45.62685,1,1,753,995
12000,18012050,1,-0.04484089,-0.09079331,0.01761013,-0.3320558,0.02123853,-9.51435,0,0,45.62685,1,1,753,995
12003,18014141,1,-0.02682174,0.01240263,0.04672914,-0.2788133,0.3182073,-9.36149,0,0,45.62685,1,1,753,995
12006,18016238,1,0.02783647,0.03736335,0.04272515,-0.2215387,0.2486845,-9.425629000000001,0,0,45.62695,1,1,753,995
12037,18018881,1,0.05977648,0.06047003,0.02328288,-0.2413353,0.08254983,-9.579859000000001,0,0,45.62695,1,1,753,995
12041,18021291,1,-0.02330485,0.06906813000000001,-0.002776994,-0.3399324,0.1895634,-9.725242,0,0,45.62695,1,1,753,995
12044,18024092,1,-0.03552201,0.04245803,-0.02780927,-0.2729356,0.431647,-9.742995000000001,0,0,45.62695,1,1,753,995
12048,18026690,1,0.03558882,-0.03829815,-0.0303474,-0.2095487,0.2987196,-9.759295,0,0,45.62704,1,1,753,995
12079,18028928,1,0.01496586,-0.08792408,0.0006427004,-0.2656836,-0.002089663,-9.713812000000001,0,0,45.62704,1,1,753,995
12082,18032001,1,-0.02835343,-0.0765314,0.02040318,-0.2996064,0.04320594,-9.555255000000001,0,0,45.62704,1,1,753,995
12085,18033789,1,-0.01415405,0.02552619,0.03981103,-0.2213923,0.167777,-9.430372,0,0,45.62704,1,1,753,995
12088,18039909,1,0.003905794,0.08485158,-0.008276136,-0.3489712,-0.248904,-9.86777,0,0,45.62715,1,1,753,995
12092,18041680,1,-0.04635337,0.09150851,-0.01856687,-0.4208257,-0.116031,-9.938043,0,0,45.62715,1,1,753,995
12123,18043891,1,-0.05739179,0.05602242,-0.03609196,-0.3296812,0.1254966,-9.902003000000001,0,0,45.62715,1,1,753,995
12126,18046329,1,0.01312601,-0.04833746,-0.0322295,-0.2845498,0.0158066,-9.884956000000001,0,0,45.62715,1,1,753,995
12129,18049633,1,0.01697508,-0.09144172,-0.01653708,-0.3488043,-0.1145737,-9.817326,0,0,45.62725,1,1,753,995
12133,18052034,1,-0.05002912,-0.09260602,0.02896664,-0.4048338,0.1178871,-9.560599,0,0,45.62725,1,1,753,995
12164,18054811,1,0.003561662,0.01683711,0.05609419,-0.2782121,0.331012,-9.460606,0,0,45.62725,1,1,753,995
12167,18056867,1,0.08451419,0.05742982,0.03589406,-0.2679616,0.180095,-9.610393999999999,0,0,45.62725,1,1,753,995
12170,18059109,1,0.01909634,0.09204844,0.007202553,-0.3782666,0.05599546,-9.881137000000001,0,0,45.62735,1,1,753,995
12173,18062252,1,-0.02553747,0.1018682,-0.009204347999999999,-0.338058,0.2748469,-9.926646,0,0,45.62735,1,1,753,995
12204,18064295,1,-0.01451232,0.05880087,-0.0407576,-0.1090866,0.4281206,-9.888102999999999,0,0,45.62735,1,1,753,995
12207,18067045,1,0.04649798,-0.09525891,-0.02907881,-0.05979937,0.1981727,-9.872612999999999,0,0,45.62735,1,1,753,995
12211,18069303,1,0.006989829,-0.1030112,-0.004329565,-0.1702753,0.01308547,-9.717724,0,0,45.62735,1,1,753,995
12216,18071937,1,-0.05326851,-0.03826817,0.04157276,-0.1508588,0.157503,-9.504505,0,0,45.62745,1,1,753,995
12247,18074889,1,0.03137422,0.02810972,0.0463831,0.02597954,0.1984206,-9.360612,0,0,45.62745,1,1,753,995
12250,18076773,1,0.09623325000000001,0.05005304,0.02020118,-0.01487052,-0.00652379,-9.497070000000001,0,0,45.62745,1,1,753,995
12253,18079145,1,-0.002162551,0.07929261999999999,-0.008941556999999999,-0.280113,-0.02792741,-9.795237999999999,0,0,45.62745,1,1,753,995
12256,18082275,1,-0.05616041,0.09085029,-0.02332288,-0.3046327,0.2421259,-9.869013000000001,0,0,45.62754,1,1,753,995
12288,18084616,1,-0.04118697,0.05009978,-0.04987687,-0.1801903,0.4296511,-9.922313000000001,0,0,45.62754,1,1,753,995
12291,18087075,1,0.02964743,-0.1096319,-0.03177766,-0.2145475,0.2386761,-9.957402,0,0,45.62754,1,1,753,995
12294,18089280,1,-0.01310543,-0.1187725,-0.00470194,-0.4155282,0.160621,-9.816222,0,0,45.62754,1,1,753,995
12298,18092035,1,-0.07390971,-0.05300632,0.04617034,-0.3586553,0.461096,-9.488623,0,0,45.62754,1,1,753,995
12329,18094813,1,0.02647276,0.01902349,0.0555729,-0.2522521,0.4672111,-9.434685999999999,0,0,45.62762,1,1,753,995
12332,18097074,1,0.1128605,0.04575762,0.02914807,-0.2786107,0.2688874,-9.57119,0,0,45.62762,1,1,753,995
12335,18099828,1,0.02825787,0.07780172,-0.005997781,-0.4751539,0.2250208,-9.845834,0,0,45.62762,1,1,753,995
12341,18102089,1,-0.03301098,0.08108293,-0.04293966,-0.4425961,0.4518146,-9.916335,0,0,45.62762,1,1,753,995
12373,18104128,1,0.04072212,-0.0163176,-0.06651672,-0.2122421,0.5017247,-9.964738000000001,0,0,45.62771,1,1,753,995
12376,18107152,1,0.05211027,-0.1319766,-0.04448612,-0.1771196,0.2069999,-9.981591999999999,0,0,45.62771,1,1,753,995
12379,18109193,1,0.004896093,-0.1441016,-0.01706656,-0.307754,0.008647379,-9.788136,0,0,45.62771,1,1,753,995
12383,18112286,1,-0.0614461,-0.06543027999999999,0.03590491,-0.2915388,0.1294164,-9.534230000000001,0,0,45.62771,1,1,753,995
12414,18114299,1,0.03281205,0.03110405,0.046059,-0.1210299,0.02297899,-9.385189,0,0,45.62779,1,1,753,995
12417,18116743,1,0.108662,0.06174252,0.01723297,-0.1510637,-0.2827145,-9.54134,0,0,45.62779,1,1,753,995
12420,18119577,1,0.008803939,0.07447859,-0.01977106,-0.3936695,-0.3408069,-9.79284,0,0,45.62779,1,1,753,995
12426,18122689,1,-0.05236605,0.07761027,-0.03591776,-0.432902,-0.1057222,-9.828450999999999,0,0,45.62779,1,1,753,995
12429,18124614,1,-0.01818343,-0.02184907,-0.05969962,-0.2778979,-0.07063737,-9.824036,0,0,45.62779,1,1,753,995
12460,18126627,1,0.009953917,-0.124579,-0.03239718,-0.2680587,-0.2373834,-9.830069,0,0,45.62787,1,1,753,995
12463,18129223,1,-0.05638251,-0.1115246,0.0225928,-0.330504,-0.1786086,-9.725595999999999,0,0,45.62787,1,1,753,995
