LineNo,TimeUS,I,GyrX,GyrY,GyrZ,AccX,AccY,AccZ,EG,EA,T,GH,AH,GHz,AHz
184,64898149,2,-0.002714688,0.001260332,-0.0006397803000000001,-0.1399072,0.2758637,-9.827743,0,0,36.26121,1,1,7746,3872
219,64900393,2,-0.002447347,0.0009673479,-0.001136947,-0.139319,0.2812649,-9.826517000000001,0,0,36.26137,1,1,7746,3872
289,64929248,2,-0.0006902037,-0.0001427222,-0.001085308,-0.1358935,0.2874576,-9.821672,0,0,36.26285,1,1,7746,3872
404,64958025,2,0.0007698651,0.001614576,0.0007731169,-0.138023,0.2716489,-9.849679999999999,0,0,36.26447,1,1,7746,3872
520,64986878,2,0.0004114359,0.001950679,0.001297226,-0.1425073,0.2601765,-9.821047999999999,0,0,36.26646,1,1,7746,3872
523,64988452,2,0.0018159,0.0009567725,0.001242778,-0.1436648,0.2632421,-9.818555999999999,0,0,36.26676,1,1,7746,3872
633,65008389,2,0.001180171,0.0008955229,-0.002623843,-0.1507079,0.2764935,-9.820713,0,0,36.2686,1,1,7746,3872
668,65011315,2,0.0005966853,0.001139095,-0.002416406,-0.1492637,0.2747468,-9.824197,0,0,36.26889,1,1,7746,3872
742,65029218,2,-0.0005019719,0.001058594,-0.0008435889999999999,-0.1458485,0.2631941,-9.809887,0,0,36.27084,1,1,7746,3872
858,65049163,2,-0.001911087,-0.0005965471,-0.00204791,-0.1344914,0.2680074,-9.843351,0,0,36.27321,1,1,7746,3872
973,65092746,2,-0.0007378635,0.001332888,-0.0002750846,-0.1444975,0.2810305,-9.832397,0,0,36.27753,1,1,7746,3872
1008,65095369,2,0.0005594004,0.001167512,0.0009035387,-0.1411278,0.2819596,-9.834500999999999,0,0,36.27777,1,1,7746,3872
1082,65123911,2,0.002489501,0.001553413,0.001622279,-0.1281045,0.2765709,-9.836788,0,0,36.28013,1,1,7746,3872
1198,65224772,2,-0.003312294,-0.0005215012999999999,-0.00288736,-0.1422144,0.2564968,-9.825509,0,0,36.28675,1,1,7746,3872
1308,65284323,2,-0.0004430004,0.001768958,0.001165721,-0.1418547,0.2811165,-9.846837000000001,0,0,36.28928,1,1,7746,3872
1388,65302269,2,0.002687542,-0.0002620487,0.001870415,-0.1427756,0.2855567,-9.842473999999999,0,0,36.2899,1,1,7746,3872
1479,65328261,2,0.002565953,0.0007945461,0.0004721394,-0.1467322,0.2660134,-9.818801000000001,0,0,36.29048,1,1,7746,3872
1560,65333007,2,0.001850444,0.001093912,-0.0008665372,-0.1458351,0.2647864,-9.815721999999999,0,0,36.29058,1,1,7746,3872
1564,65342444,2,0.0009928888,0.00186112,-4.423135e-05,-0.136991,0.2583908,-9.812267,0,0,36.29078,1,1,7746,3872
1567,65345446,2,0.001390665,0.002088367,0.0001946495,-0.1349622,0.25839,-9.814684,0,0,36.29081,1,1,7746,3872
1604,65348644,2,0.002065761,0.002068281,0.000823213,-0.1330108,0.2581923,-9.819165999999999,0,0,36.2909,1,1,7746,3872
1607,65350657,2,0.001264373,0.003292157,0.001700317,-0.1312456,0.2585326,-9.82307,0,0,36.29096,1,1,7746,3872
1610,65353142,2,0.0004015365,0.003164714,0.001968723,-0.1299928,0.2593901,-9.826722999999999,0,0,36.29102,1,1,7746,3872
1613,65355268,2,7.857046000000001e-05,0.002244464,0.0006924291,-0.1291481,0.2606982,-9.833417000000001,0,0,36.29112,1,1,7746,3872
1648,65358909,2,0.0001954794,0.001504813,-0.001048155,-0.1282169,0.2609551,-9.835967999999999,0,0,36.29117,1,1,7746,3872
1652,65360885,2,-0.0002630993,0.001059062,-0.001557083,-0.1276241,0.261232,-9.837407000000001,0,0,36.29127,1,1,7746,3872
1655,65363398,2,-0.000888667,0.0009287195,-0.00184191,-0.127584,0.262123,-9.838098,0,0,36.29132,1,1,7746,3872
1658,65365389,2,-0.001089547,0.0008876267,-0.001334269,-0.1267332,0.2643236,-9.83672,0,0,36.29142,1,1,7746,3872
1693,65368005,2,-0.0006066208,0.0003944016,-0.001516701,-0.1271326,0.2656422,-9.834899,0,0,36.29148,1,1,7746,3872
1697,65371434,2,0.0002283704,-0.000435145,-0.0008279077,-0.1288036,0.2654128,-9.831179000000001,0,0,36.29158,1,1,7746,3872
1700,65374266,2,0.0007111739,-0.0004102368,3.099065e-05,-0.1284413,0.2637905,-9.827560999999999,0,0,36.29163,1,1,7746,3872
1703,65375671,2,0.0004286869,-0.001200868,-0.0001200942,-0.127677,0.2613613,-9.824741,0,0,36.29171,1,1,7746,3872
1738,65378495,2,-0.0018154,-0.00129669,0.001268822,-0.1283739,0.2610617,-9.823556,0,0,36.29179,1,1,7746,3872
1741,65381159,2,-0.002937129,-0.0008299591,0.001524616,-0.1280616,0.2625559,-9.821365999999999,0,0,36.29186,1,1,7746,3872
1744,65384243,2,-0.003258794,-0.001031906,0.002028837,-0.1281673,0.2659912,-9.818458,0,0,36.29192,1,1,7746,3872
1747,65386240,2,-0.00284596,-0.0006891142,0.002098416,-0.1285958,0.2684653,-9.818481999999999,0,0,36.292,1,1,7746,3872
1782,65388669,2,-0.002214524,7.691218e-05,0.001887897,-0.1298819,0.2705765,-9.818638,0,0,36.29207,1,1,7746,3872
1786,65391224,2,-0.002815491,-2.263337e-05,0.001446558,-0.1317603,0.2713258,-9.820584999999999,0,0,36.29211,1,1,7746,3872
1789,65394369,2,-0.002611299,9.126180999999999e-05,0.001028057,-0.1349308,0.2713985,-9.82437,0,0,36.29219,1,1,7746,3872
1796,65397009,2,-0.001832698,0.0006988469,0.000626691,-0.1355069,0.2719746,-9.822819000000001,0,0,36.29227,1,1,7746,3872
1831,65399766,2,-0.001220744,0.001042649,0.0005926439,-0.1358977,0.2723593,-9.816576,0,0,36.29247,1,1,7746,3872
1834,65402053,2,-0.001311279,0.001092156,0.00118047,-0.1363489,0.2732527,-9.813993,0,0,36.29252,1,1,7746,3872
1837,65404837,2,-0.001238235,0.0008728107,0.00155103,-0.1391682,0.2741306,-9.811501,0,0,36.2926,1,1,7746,3872
1840,65407476,2,-0.001028035,0.0007170847,0.00144528,-0.1406396,0.2741455,-9.810549,0,0,36.29268,1,1,7746,3872
1875,65410784,2,-0.002783172,0.001104411,0.0002069117,-0.1421363,0.2746199,-9.811472,0,0,36.29276,1,1,7746,3872
1879,65412745,2,-0.00317755,0.0003408814,-7.250058e-05,-0.1418299,0.2772543,-9.813605000000001,0,0,36.29282,1,1,7746,3872
1882,65414951,2,-0.003287104,-0.0008179452,-0.0001612089,-0.1408583,0.278103,-9.813008,0,0,36.29285,1,1,7746,3872
1885,65417740,2,-0.003212885,-0.001162822,-0.0006497425,-0.1383926,0.2804826,-9.813198999999999,0,0,36.2929,1,1,7746,3872
1920,65420464,2,-0.003783225,-0.0007224792,-0.0002181567,-0.138679,0.28147,-9.814693999999999,0,0,36.29296,1,1,7746,3872
1924,65423259,2,-0.004008958,-0.0002512916,0.0003893178,-0.1407414,0.2809967,-9.815738,0,0,36.29299,1,1,7746,3872
1927,65425216,2,-0.004029513,-0.0001481361,0.0006812371,-0.1423699,0.2792114,-9.81603,0,0,36.29302,1,1,7746,3872
1931,65428021,2,-0.003371135,0.0006369441,0.001502209,-0.1423176,0.2750596,-9.81574,0,0,36.29302,1,1,7746,3872
1966,65430180,2,-0.001923724,0.0008913026000000001,0.001841913,-0.1384831,0.2726474,-9.814907,0,0,36.29303,1,1,7746,3872
1970,65433780,2,-0.001423256,0.0002399187,0.002072955,-0.1351494,0.2720797,-9.815944999999999,0,0,36.29304,1,1,7746,3872
1973,65435386,2,-0.0007396333,0.0002297788,0.002627439,-0.1335323,0.2705949,-9.81776,0,0,36.29306,1,1,7746,3872
1976,65438811,2,-0.0006283601,-0.0006345629,0.002108616,-0.1335922,0.2695444,-9.819603000000001,0,0,36.29307,1,1,7746,3872
2011,65441095,2,-0.001126722,-0.000608834,0.0005180526,-0.1327255,0.2668264,-9.825135,0,0,36.29309,1,1,7746,3872
2015,65444749,2,-0.00126872,6.82495e-05,-0.0004021101,-0.132434,0.2651411,-9.826544,0,0,36.29311,1,1,7746,3872
2018,65446272,2,-0.0006317058,0.001214344,-0.0008295036,-0.1334347,0.2639264,-9.828427,0,0,36.29319,1,1,7746,3872
2021,65449141,2,-0.001154588,0.001677366,-0.00152153,-0.1343614,0.2636164,-9.829079999999999,0,0,36.29322,1,1,7746,3872
2056,65452310,2,-0.001484974,0.001655375,-0.001958776,-0.135079,0.263766,-9.83085,0,0,36.29329,1,1,7746,3872
2059,65453816,2,-0.001506803,0.001761806,-0.001750477,-0.1354018,0.2641416,-9.831086000000001,0,0,36.2933,1,1,7746,3872
2062,65457161,2,-0.001107534,0.001782506,-0.001049587,-0.1378215,0.2644489,-9.831377,0,0,36.29331,1,1,7746,3872
2065,65459211,2,-0.0005682854,0.002026883,0.0001051843,-0.1392354,0.2649227,-9.83024,0,0,36.29332,1,1,7746,3872
2100,65462326,2,-0.0003263541,0.002318282,0.0003064677,-0.1407263,0.2689534,-9.827332999999999,0,0,36.29332,1,1,7746,3872
2104,65463982,2,0.000118259,0.00279668,-0.000118688,-0.1408832,0.2717857,-9.824569,0,0,36.29332,1,1,7746,3872
2107,65466546,2,0.0008556166,0.003018539,-0.0006535418000000001,-0.141899,0.2750833,-9.817978999999999,0,0,36.2933,1,1,7746,3872
2110,65469862,2,0.001348841,0.002430285,-5.375829e-05,-0.1437282,0.2767262,-9.811596,0,0,36.29329,1,1,7746,3872
2147,65473420,2,0.001869539,0.002103953,0.001202421,-0.1459665,0.2777041,-9.801437999999999,0,0,36.29326,1,1,7746,3872
2150,65474996,2,0.001757361,0.001689424,0.001190521,-0.1440359,0.2763443,-9.801629,0,0,36.29324,1,1,7746,3872
2153,65477366,2,0.001540528,0.00188567,0.001844292,-0.1402175,0.2733231,-9.804209,0,0,36.29321,1,1,7746,3872
2156,65485828,2,0.002778738,0.002155335,0.001403131,-0.1342486,0.2698331,-9.819545,0,0,36.29322,1,1,7746,3872
2192,65488732,2,0.002459116,0.000929191,0.001054228,-0.133796,0.268585,-9.830158000000001,0,0,36.29325,1,1,7746,3872
2196,65491826,2,0.002381365,-0.0004596565,0.0007888945,-0.1340491,0.2688478,-9.835794999999999,0,0,36.29327,1,1,7746,3872
2199,65494033,2,0.00210259,-0.0006916982,0.0005029809,-0.1336847,0.2698008,-9.838039,0,0,36.2933,1,1,7746,3872
2202,65496381,2,0.001671473,-0.001146075,0.0001716707,-0.131578,0.2701082,-9.835649999999999,0,0,36.29329,1,1,7746,3872
2238,65498766,2,0.00249547,-0.0007382761,-0.001719789,-0.1264878,0.271483,-9.830247999999999,0,0,36.29327,1,1,7746,3872
2245,65501780,2,0.002403204,3.028571e-05,-0.002108519,-0.1244444,0.2745342,-9.827811000000001,0,0,36.29325,1,1,7746,3872
2248,65504142,2,0.001972979,-0.0001028364,-0.001552713,-0.1248093,0.2765205,-9.827372,0,0,36.29325,1,1,7746,3872
2251,65506798,2,0.001629863,-0.0001360038,-0.000574399,-0.124838,0.2808999,-9.828248,0,0,36.29324,1,1,7746,3872
2286,65509758,2,0.001281029,1.600875e-05,-0.0005074298000000001,-0.1259161,0.2844943,-9.827043,0,0,36.29324,1,1,7746,3872
2289,65511844,2,0.00206988,0.0002985299,0.0002006289,-0.1279372,0.2863307,-9.824287,0,0,36.29324,1,1,7746,3872
2292,65514799,2,0.00416387,0.0006197547000000001,0.0007206909,-0.1328388,0.2864589,-9.821002,0,0,36.29324,1,1,7746,3872
2295,65517361,2,0.004466121,0.0007172987,0.001201075,-0.1342364,0.2857521,-9.819823,0,0,36.29324,1,1,7746,3872
2330,65520222,2,0.002886394,0.001108556,0.002214486,-0.1367549,0.2834603,-9.818851,0,0,36.29325,1,1,7746,3872
2334,65522638,2,0.001463279,0.001250132,0.00196602,-0.1359939,0.2791908,-9.817890999999999,0,0,36.29324,1,1,7746,3872
2337,65524876,2,0.0005690955,0.00213796,0.0007224421,-0.1353376,0.2760992,-9.81677,0,0,36.29324,1,1,7746,3872
2340,65527478,2,-0.0003063326,0.002499877,6.846224e-05,-0.1354654,0.2724461,-9.815001000000001,0,0,36.29323,1,1,7746,3872
2375,65530379,2,1.534018e-05,0.0021901,0.000810448,-0.1359266,0.2692759,-9.815763,0,0,36.29322,1,1,7746,3872
2378,65533420,2,-0.0001025846,0.001438741,0.001678277,-0.1361196,0.2652747,-9.821496,0,0,36.29319,1,1,7746,3872
2381,65534820,2,-0.0006515111000000001,0.001084225,0.001287867,-0.1356907,0.2637929,-9.826999000000001,0,0,36.29316,1,1,7746,3872
2384,65537786,2,-0.0017135,-0.0001366344,0.0003259559,-0.1353878,0.2640662,-9.833494,0,0,36.29313,1,1,7746,3872
2419,65539873,2,-0.001753705,-0.0004227937,0.0003964114,-0.1362818,0.264874,-9.836219,0,0,36.29312,1,1,7746,3872
2423,65542827,2,-0.0008994871,-0.0004224911,-0.0001559666,-0.1391154,0.2656625,-9.840140999999999,0,0,36.29311,1,1,7746,3872
2426,65546056,2,-0.0009187055,-3.337416e-05,-0.0007890586999999999,-0.1405644,0.2659016,-9.842325000000001,0,0,36.29312,1,1,7746,3872
2429,65548362,2,-0.001760634,0.0003713296,-0.00169164,-0.1415295,0.2665432,-9.845205999999999,0,0,36.29316,1,1,7746,3872
2464,65550793,2,-0.002464812,0.0006806998000000001,-0.001559382,-0.1417206,0.2677676,-9.843925,0,0,36.29319,1,1,7746,3872
2467,65553537,2,-0.002402324,0.0007874715,-0.001502065,-0.1418909,0.2694712,-9.841831000000001,0,0,36.29322,1,1,7746,3872
2473,65556411,2,-0.002501159,0.001146041,-0.0009119349,-0.1421956,0.2724779,-9.837630000000001,0,0,36.29325,1,1,7746,3872
2476,65558417,2,-0.002714053,0.001797203,8.072243999999999e-05,-0.1423191,0.2744302,-9.835383999999999,0,0,36.29327,1,1,7746,3872
2511,65561413,2,-0.001596533,0.001921756,-0.0004010405,-0.1410787,0.2752192,-9.831522,0,0,36.2933,1,1,7746,3872
2515,65563431,2,-0.001278301,0.001357565,-0.001281784,-0.1384746,0.2742331,-9.830368,0,0,36.29331,1,1,7746,3872
2519,65565621,2,-0.001884363,0.0006413406,-0.001422871,-0.1349271,0.2716833,-9.829053999999999,0,0,36.29333,1,1,7746,3872
2522,65569022,2,-0.001673292,0.0003607736,-0.0009504638,-0.1339515,0.270905,-9.828312,0,0,36.29333,1,1,7746,3872
2557,65571399,2,-0.0005927882,-0.0001307655,0.0007460617,-0.1322185,0.2716248,-9.825422,0,0,36.29331,1,1,7746,3872
2561,65574667,2,-4.744696e-05,-0.0002050836,0.001292913,-0.1323071,0.273378,-9.824896000000001,0,0,36.29328,1,1,7746,3872
2564,65576409,2,-0.0007052048,-0.0002726209,0.0009633474,-0.1356855,0.275588,-9.826615,0,0,36.29325,1,1,7746,3872
2568,65579442,2,-0.001491043,0.0006217849,0.0009492181,-0.1369615,0.2761734,-9.827503,0,0,36.29323,1,1,7746,3872
2603,65582383,2,-0.003122032,0.002296908,-7.96919e-05,-0.1393653,0.2773883,-9.830063000000001,0,0,36.29319,1,1,7746,3872
2606,65585155,2,-0.003299855,0.002396934,-7.58895e-05,-0.1411863,0.2781477,-9.830420999999999,0,0,36.29314,1,1,7746,3872
2609,65586752,2,-0.002490551,0.001635307,-0.0002366159,-0.1409253,0.2788844,-9.829466999999999,0,0,36.29312,1,1,7746,3872
2612,65589540,2,-0.002236018,0.001825132,-0.001059103,-0.1412769,0.2812302,-9.825047,0,0,36.29312,1,1,7746,3872
2647,65592694,2,-0.002609285,0.001942922,-0.0007088205,-0.1421418,0.2826082,-9.819470000000001,0,0,36.29313,1,1,7746,3872
2651,65594575,2,-0.001880429,0.001455099,0.0001608424,-0.1438659,0.2825539,-9.812182999999999,0,0,36.29317,1,1,7746,3872
2654,65597295,2,-0.0007909057,0.0007915894,0.0005340392,-0.1445514,0.2823386,-9.810083000000001,0,0,36.29318,1,1,7746,3872
2657,65599615,2,7.506408e-05,0.001116023,0.0002960679,-0.1434803,0.2814099,-9.807823000000001,0,0,36.29322,1,1,7746,3872
2692,65601789,2,-6.793831999999999e-05,0.0008463563,0.0002468625,-0.1423295,0.2799772,-9.808458,0,0,36.29324,1,1,7746,3872
2699,65605410,2,-0.000663263,0.001084177,0.0005298462,-0.1396432,0.277918,-9.807829999999999,0,0,36.29325,1,1,7746,3872
2702,65606978,2,-0.0009908348,0.0007306826,0.001289852,-0.137707,0.2773081,-9.806639000000001,0,0,36.29325,1,1,7746,3872
2705,65610051,2,-0.000608739,1.561282e-05,0.001406352,-0.1351204,0.276879,-9.806285000000001,0,0,36.29325,1,1,7746,3872
2740,65612247,2,-3.435935e-05,8.510188e-05,0.0008931147,-0.1315244,0.2770228,-9.808551,0,0,36.29325,1,1,7746,3872
2744,65615662,2,0.0003344691,0.0001663099,0.0003330501,-0.1304912,0.2773238,-9.811895,0,0,36.29324,1,1,7746,3872
2747,65617286,2,-0.0002040467,0.0006887211,0.0008235315999999999,-0.1292787,0.2760129,-9.817102999999999,0,0,36.29323,1,1,7746,3872
2750,65620637,2,-0.000358522,0.0003904452,0.0007636564,-0.1274738,0.2741336,-9.820909,0,0,36.29324,1,1,7746,3872
2785,65623011,2,-0.0001161745,0.0007258258,0.0006587311,-0.1246742,0.2712218,-9.829635,0,0,36.29327,1,1,7746,3872
2789,65625484,2,0.0001841818,0.001262368,-1.417117e-05,-0.1252474,0.2706877,-9.838290000000001,0,0,36.2933,1,1,7746,3872
2792,65628784,2,-0.0001415391,0.0007985746,-0.0001706319,-0.1276982,0.2712882,-9.841913,0,0,36.2933,1,1,7746,3872
2796,65630669,2,-0.0001844363,-5.109154e-05,0.0004787965,-0.1321873,0.2740909,-9.842696,0,0,36.2933,1,1,7746,3872
2831,65633161,2,0.0004413335,-1.978013e-05,0.001474991,-0.1364882,0.2763386,-9.840331000000001,0,0,36.29329,1,1,7746,3872
2834,65636180,2,0.001130295,-0.0002384528,0.002424169,-0.1423633,0.2761262,-9.838924,0,0,36.29326,1,1,7746,3872
2837,65638149,2,0.001270693,-0.0004050652,0.002401299,-0.1449078,0.2751563,-9.839601,0,0,36.29322,1,1,7746,3872
2840,65641399,2,0.0006381184,-0.0001214139,0.001462629,-0.1464426,0.273324,-9.840088,0,0,36.29316,1,1,7746,3872
2875,65643850,2,-0.0005931357,-8.179604e-05,0.0002323582,-0.1451418,0.2704346,-9.841028,0,0,36.29311,1,1,7746,3872
2880,65647762,2,-0.0005173349,0.0001891602,0.0001157552,-0.1415448,0.2700221,-9.838917,0,0,36.29308,1,1,7746,3872
2883,65649294,2,-2.158422e-05,0.0007373058,-0.0005082632,-0.138338,0.2718654,-9.836404,0,0,36.29308,1,1,7746,3872
2886,65652464,2,6.086575e-05,0.000514452,0.0003232861,-0.1357908,0.2727627,-9.835436,0,0,36.29308,1,1,7746,3872
2921,65654662,2,0.0003133296,-0.000373713,0.001255421,-0.1337099,0.2729204,-9.834693,0,0,36.29312,1,1,7746,3872
2924,65658066,2,0.001404153,-3.718719e-05,0.0009484816,-0.1329455,0.2711688,-9.838706999999999,0,0,36.29317,1,1,7746,3872
2929,65660244,2,0.001683027,0.0006261432,0.0006593893,-0.1329857,0.270283,-9.838564999999999,0,0,36.29324,1,1,7746,3872
2932,65665138,2,0.0001625253,0.0004551519,-0.002010359,-0.135367,0.2663299,-9.833989000000001,0,0,36.29336,1,1,7746,3872
2968,65667936,2,0.0003772257,-0.0003750367,-0.002334448,-0.1367251,0.26581,-9.833722,0,0,36.29337,1,1,7746,3872
2971,65670426,2,4.26995e-05,-0.000892974,-0.002069755,-0.1396999,0.2641792,-9.833522,0,0,36.29339,1,1,7746,3872
2974,65673871,2,0.0001400047,-0.0009332544,-0.001603045,-0.1407899,0.2641082,-9.833470999999999,0,0,36.29341,1,1,7746,3872
2977,65678742,2,0.001287078,0.0005590245,0.0001583135,-0.1445842,0.2617263,-9.829385,0,0,36.29348,1,1,7746,3872
3013,65681168,2,0.001838969,0.00103597,-0.001031652,-0.1453031,0.2582276,-9.828097,0,0,36.29348,1,1,7746,3872
3016,65683467,2,0.001714403,0.001006182,-0.001566755,-0.1442252,0.2556683,-9.828735999999999,0,0,36.29349,1,1,7746,3872
3022,65686607,2,0.00124282,0.0006783433,-0.002519661,-0.1419743,0.2546138,-9.830507000000001,0,0,36.2935,1,1,7746,3872
3025,65688752,2,0.001424885,-0.000514516,-0.002225109,-0.1380765,0.2564157,-9.830164999999999,0,0,36.29349,1,1,7746,3872
3060,65691752,2,0.001879326,-0.0005220609,-0.0006365292,-0.134621,0.2587488,-9.826835000000001,0,0,36.29346,1,1,7746,3872
3063,65693749,2,0.001589816,0.0007224606,-0.0001147266,-0.1294676,0.2623983,-9.822343,0,0,36.29342,1,1,7746,3872
3066,65695889,2,0.0008945855,0.001458572,-6.14897e-06,-0.1278574,0.2643156,-9.821769,0,0,36.2934,1,1,7746,3872
3069,65699167,2,0.0006764074,0.001945946,-0.001096722,-0.1272694,0.2663547,-9.822911,0,0,36.29338,1,1,7746,3872
3104,65701270,2,0.0003122406,0.002049332,-0.002631557,-0.1291844,0.2663721,-9.822559999999999,0,0,36.29337,1,1,7746,3872
3108,65704253,2,-0.0002941776,0.001935122,-0.003066365,-0.1312844,0.2671709,-9.820817,0,0,36.29337,1,1,7746,3872
3111,65706654,2,-0.00165093,0.001526185,-0.001969285,-0.132533,0.2682689,-9.820092000000001,0,0,36.2934,1,1,7746,3872
3118,65710174,2,-0.00188043,0.001605514,-0.001543944,-0.133609,0.2702481,-9.819934999999999,0,0,36.29342,1,1,7746,3872
3121,65711585,2,-0.001929504,0.002077769,5.963598e-05,-0.1361927,0.2731299,-9.819998,0,0,36.29347,1,1,7746,3872
3156,65714484,2,-0.001782633,0.0009741753,0.0009342831,-0.1371862,0.275329,-9.820714000000001,0,0,36.29355,1,1,7746,3872
3159,65717365,2,-0.001856497,0.0008297138,0.0007332647,-0.1373091,0.2761539,-9.82277,0,0,36.29359,1,1,7746,3872
3162,65719253,2,-0.003231869,0.0008249898,0.001044275,-0.1379342,0.2776647,-9.827332,0,0,36.29367,1,1,7746,3872
3165,65722614,2,-0.003894097,0.0005894523,0.0004336839,-0.1382622,0.2792116,-9.829961000000001,0,0,36.29374,1,1,7746,3872
3200,65725165,2,-0.003758179,3.046258e-05,0.000101267,-0.1368975,0.2782495,-9.831982999999999,0,0,36.29382,1,1,7746,3872
3204,65728140,2,-0.002871714,-0.0006903575,-0.000338255,-0.1352702,0.2762433,-9.833128,0,0,36.29391,1,1,7746,3872
3207,65729989,2,-0.003405155,-0.0005734744,-0.0003300494,-0.1357408,0.275452,-9.830297,0,0,36.29398,1,1,7746,3872
3211,65732298,2,-0.003686276,-0.0004148714,-0.0002240752,-0.1367623,0.2751971,-9.822799,0,0,36.29411,1,1,7746,3872
3246,65735373,2,-0.002941678,-0.0002923483,0.0001499509,-0.1373765,0.2752712,-9.818396999999999,0,0,36.29419,1,1,7746,3872
3250,65737593,2,-0.00168953,-0.0005851476,-4.040049e-05,-0.1375391,0.2737729,-9.814851000000001,0,0,36.29428,1,1,7746,3872
3253,65740594,2,-0.0004196481,-0.0008450371,-0.0002142535,-0.1379707,0.2719773,-9.812521,0,0,36.29437,1,1,7746,3872
3256,65742751,2,-5.134724e-05,-0.001650389,-0.0002005548,-0.138644,0.268776,-9.808222000000001,0,0,36.29445,1,1,7746,3872
3291,65744895,2,-0.0001622268,-0.002482851,-0.0005988881,-0.139085,0.2661538,-9.806564,0,0,36.29449,1,1,7746,3872
3294,65748312,2,-0.0006991412,-0.001807947,-0.000700873,-0.1390163,0.2640009,-9.805944,0,0,36.29456,1,1,7746,3872
3297,65749768,2,-0.001395759,-0.001461287,-0.0006398064,-0.1387472,0.2634637,-9.807710999999999,0,0,36.29462,1,1,7746,3872
3300,65753203,2,-0.002658952,-0.001499899,-0.002234239,-0.140568,0.2641956,-9.809771,0,0,36.29469,1,1,7746,3872
3335,65755596,2,-0.002975003,-0.001558274,-0.003489642,-0.1443786,0.266979,-9.81161,0,0,36.29477,1,1,7746,3872
3340,65759071,2,-0.002529356,-0.001530241,-0.002954979,-0.1469233,0.2702706,-9.813370000000001,0,0,36.29484,1,1,7746,3872
3343,65760601,2,-0.001903833,-0.0009866600000000001,-0.002525044,-0.1484981,0.2754903,-9.81667,0,0,36.29494,1,1,7746,3872
3346,65763441,2,-0.001359056,-0.0009639407,-0.00252667,-0.1478594,0.2777629,-9.820428,0,0,36.295,1,1,7746,3872
3381,65766608,2,-0.002192848,-0.0004375161,-0.001179104,-0.1450043,0.2820822,-9.828192,0,0,36.29512,1,1,7746,3872
3384,65768640,2,-0.002610751,-0.0002382477,-0.001104317,-0.1426531,0.285365,-9.831424,0,0,36.29521,1,1,7746,3872
3388,65771256,2,-0.003245108,0.0002930507,-0.0006874303,-0.1409357,0.2882497,-9.83258,0,0,36.29532,1,1,7746,3872
3391,65773608,2,-0.003501425,0.0004425338,0.0002253344,-0.1380989,0.2929255,-9.830594,0,0,36.29548,1,1,7746,3872
3426,65776652,2,-0.003032248,0.000467009,0.0004727283,-0.1363299,0.2943474,-9.828548,0,0,36.29556,1,1,7746,3872
3430,65778289,2,-0.002255267,0.001221769,-0.0001539072,-0.1342945,0.2932216,-9.823758,0,0,36.29572,1,1,7746,3872
3433,65781032,2,-0.00153843,0.001806302,-0.0003592266,-0.1348062,0.2901952,-9.821707999999999,0,0,36.29581,1,1,7746,3872
3436,65783806,2,-0.001070219,0.001891081,2.987918e-05,-0.1364899,0.2844015,-9.819898,0,0,36.29599,1,1,7746,3872
3471,65786616,2,-0.001068598,0.002149025,0.001643291,-0.1362502,0.2817782,-9.820951000000001,0,0,36.29612,1,1,7746,3872
3475,65788810,2,-0.0005164465,0.001784762,0.0009686034,-0.135523,0.2807453,-9.822514,0,0,36.2962,1,1,7746,3872
3478,65791620,2,-5.46673e-05,0.001639739,0.0005691001,-0.1343171,0.27923,-9.821477,0,0,36.29628,1,1,7746,3872
3481,65793430,2,-0.0004957996,0.001901417,0.000693472,-0.1343676,0.2732487,-9.816476,0,0,36.29644,1,1,7746,3872
3516,65795752,2,-0.0006726969,0.001501194,-0.000202091,-0.1357612,0.2702096,-9.812934,0,0,36.29652,1,1,7746,3872
3519,65798874,2,5.655413e-05,0.0005621896,-0.0008574905,-0.1372834,0.2689998,-9.810128000000001,0,0,36.29666,1,1,7746,3872
3523,65801773,2,5.584038e-05,0.0004712957,-0.001186189,-0.1381889,0.268465,-9.809227999999999,0,0,36.29675,1,1,7746,3872
3526,65803624,2,-0.0006536156,0.0005319639,-0.001608078,-0.1375062,0.2664889,-9.813556999999999,0,0,36.29695,1,1,7746,3872
3561,65805986,2,-0.001198821,0.0007534311,-0.001026557,-0.1363263,0.2645998,-9.816978000000001,0,0,36.29705,1,1,7746,3872
3565,65808656,2,-0.002168021,0.00100989,0.001322733,-0.1335425,0.2642749,-9.821977,0,0,36.2972,1,1,7746,3872
3572,65811832,2,-0.001690274,0.001173561,0.002520578,-0.1313786,0.2641592,-9.824968,0,0,36.2973,1,1,7746,3872
3575,65813806,2,-9.134375999999999e-05,0.002151596,0.002081981,-0.1286846,0.2632436,-9.829936999999999,0,0,36.29749,1,1,7746,3872
3610,65816654,2,4.113133e-05,0.00300523,0.001446894,-0.1272078,0.2623308,-9.833356,0,0,36.29765,1,1,7746,3872
3613,65818305,2,2.764764e-05,0.003406411,0.001597468,-0.127531,0.2603718,-9.834733999999999,0,0,36.29781,1,1,7746,3872
3616,65821030,2,-0.0002405962,0.003050338,0.002079174,-0.1290843,0.2597374,-9.83222,0,0,36.29791,1,1,7746,3872
3619,65824159,2,-0.0004808003,0.003630488,0.002619084,-0.130685,0.2594433,-9.829264999999999,0,0,36.29812,1,1,7746,3872
3654,65826920,2,-0.0007827149,0.003425837,0.002466314,-0.1312244,0.2593044,-9.829803,0,0,36.29833,1,1,7746,3872
3658,65829325,2,-9.268086000000001e-05,0.002330895,0.002245141,-0.1311582,0.2602939,-9.830045999999999,0,0,36.29843,1,1,7746,3872
3661,65831282,2,0.000715111,0.000815284,0.002793888,-0.1309545,0.2642152,-9.831569,0,0,36.29867,1,1,7746,3872
3664,65834667,2,0.000926295,0.0009683521,0.002860501,-0.1314861,0.2642516,-9.832049,0,0,36.29879,1,1,7746,3872
3699,65837386,2,0.001689704,0.001557954,0.002248494,-0.1314312,0.2628101,-9.831728,0,0,36.29902,1,1,7746,3872
3702,65839495,2,0.001829898,0.001469281,0.001329693,-0.1293245,0.2613309,-9.83067,0,0,36.29918,1,1,7746,3872
3705,65841970,2,0.001756392,0.001559895,0.001137533,-0.1273683,0.2604036,-9.829794,0,0,36.29929,1,1,7746,3872
3708,65844422,2,0.001534367,0.001743008,0.001654553,-0.1244895,0.2582901,-9.831045,0,0,36.29944,1,1,7746,3872
3745,65847867,2,0.001057517,0.001581547,0.002514113,-0.1232973,0.2574354,-9.833133999999999,0,0,36.29952,1,1,7746,3872
3749,65850648,2,0.0005029763,0.0009365599,0.003460322,-0.1232933,0.2584886,-9.836603999999999,0,0,36.29964,1,1,7746,3872
3752,65852291,2,-0.001078816,0.0007392219,0.004431518,-0.126719,0.2606839,-9.836693,0,0,36.29976,1,1,7746,3872
3755,65854755,2,-0.001244863,0.0007721834,0.003573487,-0.1291658,0.2616711,-9.832473,0,0,36.29983,1,1,7746,3872
3790,65856982,2,-0.000167269,0.0003531033,0.002924972,-0.1307395,0.262199,-9.829458000000001,0,0,36.2999,1,1,7746,3872
3793,65860287,2,0.001524496,-0.0006469139,0.00263037,-0.1321469,0.2616,-9.826649,0,0,36.30003,1,1,7746,3872
3796,65862739,2,0.001924005,-0.001933916,0.001881461,-0.1315688,0.2604556,-9.827597000000001,0,0,36.30014,1,1,7746,3872
3801,65864835,2,0.001931965,-0.003253418,0.00119445,-0.1314343,0.2598136,-9.829878000000001,0,0,36.3003,1,1,7746,3872
3836,65867401,2,0.0005075508,-0.004555907,0.001724292,-0.1310892,0.2598706,-9.831875,0,0,36.30047,1,1,7746,3872
3839,65869486,2,0.000138821,-0.003774421,0.002237079,-0.1307512,0.260599,-9.831457,0,0,36.30058,1,1,7746,3872
3842,65877932,2,4.566789e-05,-0.001457415,0.0009128244,-0.1345968,0.2662664,-9.829340999999999,0,0,36.30101,1,1,7746,3872
3877,65880211,2,-0.001174862,-0.001024985,0.001791256,-0.136523,0.2651059,-9.826117,0,0,36.30116,1,1,7746,3872
3880,65883234,2,-0.00187621,-0.001026201,0.00220638,-0.1389479,0.2630474,-9.826478,0,0,36.30127,1,1,7746,3872
3883,65885982,2,-0.001264646,-0.0006717209,0.0004465745,-0.1403106,0.2624555,-9.830696,0,0,36.3015,1,1,7746,3872
3886,65888433,2,-0.0003439045,-0.0006200537,-0.001006355,-0.1404639,0.263133,-9.834702,0,0,36.30161,1,1,7746,3872
3921,65890867,2,0.0005755972,-0.0001579971,-0.001569657,-0.1399729,0.2620166,-9.834474999999999,0,0,36.3018,1,1,7746,3872
3924,65893623,2,3.38933e-05,-0.001410575,-0.001238492,-0.1406273,0.2609535,-9.831923,0,0,36.30198,1,1,7746,3872
3928,65896502,2,0.0003196201,-0.001640876,-0.001256033,-0.1414823,0.2616956,-9.830159999999999,0,0,36.30218,1,1,7746,3872
3931,65898766,2,0.0004964755,-0.001180619,-0.001319203,-0.1427354,0.2638386,-9.831118999999999,0,0,36.30238,1,1,7746,3872
3966,65901473,2,-0.0002019259,-0.001182623,0.0003698329,-0.1438502,0.2667542,-9.833899000000001,0,0,36.30258,1,1,7746,3872
3970,65903672,2,-0.0007133934,-0.001179789,0.0009802344999999999,-0.1436763,0.2691154,-9.836145,0,0,36.30272,1,1,7746,3872
3974,65905896,2,-0.0007476105,-0.001121791,0.001267599,-0.1423611,0.2704828,-9.837011,0,0,36.30286,1,1,7746,3872
3977,65909072,2,0.0001248346,-0.0006598115,0.001993019,-0.1384811,0.2714405,-9.836198,0,0,36.30307,1,1,7746,3872
4012,65911295,2,0.001289945,0.0005996819,0.000888892,-0.137122,0.2687588,-9.835687,0,0,36.30328,1,1,7746,3872
4020,65914838,2,0.001038656,0.001422152,6.080621e-05,-0.1376388,0.2674235,-9.837634,0,0,36.30341,1,1,7746,3872
4025,65916397,2,7.064066999999999e-05,0.001465597,-0.0007829716,-0.1377409,0.2636272,-9.838516,0,0,36.30369,1,1,7746,3872
4028,65920029,2,-0.0008837136,0.0009310369,-0.0003670443,-0.1377635,0.2611465,-9.838093000000001,0,0,36.30383,1,1,7746,3872
4063,65922328,2,-0.001127923,0.001322054,0.0009571761,-0.1392853,0.2579066,-9.833677,0,0,36.30415,1,1,7746,3872
4066,65925375,2,-0.0003507978,0.001928234,0.001193961,-0.1394007,0.258137,-9.833164,0,0,36.30428,1,1,7746,3872
4069,65927404,2,0.0003877,0.002574324,0.0003820119,-0.1387678,0.2594275,-9.832027999999999,0,0,36.30447,1,1,7746,3872
4072,65930237,2,0.00027271,0.002922415,-0.0001266185,-0.1378219,0.2624215,-9.830482999999999,0,0,36.30465,1,1,7746,3872
4107,65932621,2,0.0004640937,0.003033797,-0.000780244,-0.1381508,0.2657644,-9.828671999999999,0,0,36.30484,1,1,7746,3872
4111,65935826,2,-2.623832e-06,0.002933477,-0.001306026,-0.1378403,0.2671128,-9.826851,0,0,36.30496,1,1,7746,3872
4114,65937449,2,-0.0005215454,0.002680955,-0.0006647522,-0.139687,0.2681654,-9.823625,0,0,36.30516,1,1,7746,3872
4117,65940254,2,-0.0006358147,0.002893788,-0.0002783481,-0.142393,0.2685131,-9.823553,0,0,36.3053,1,1,7746,3872
4152,65943272,2,-0.000879695,0.003377927,-0.0005618688,-0.1469348,0.2695683,-9.824597000000001,0,0,36.30552,1,1,7746,3872
4155,65945385,2,-0.0006332035,0.003188254,-0.0004001829,-0.1498792,0.2706462,-9.822005000000001,0,0,36.30565,1,1,7746,3872
4158,65948703,2,-0.0005732214,0.003020712,-6.889618e-05,-0.1521739,0.2731972,-9.816774000000001,0,0,36.30585,1,1,7746,3872
4161,65949977,2,-0.0008886164,0.002887708,-1.371208e-05,-0.1533247,0.2755279,-9.813459999999999,0,0,36.30597,1,1,7746,3872
4196,65952870,2,-0.0008700422,0.002549439,-0.0002079444,-0.1538436,0.2778051,-9.812251,0,0,36.30615,1,1,7746,3872
4200,65956315,2,-0.0003683617,0.002192392,-0.0003844709,-0.15355,0.279672,-9.812521,0,0,36.30627,1,1,7746,3872
4203,65958497,2,-0.0008268325,0.001894847,-2.773606e-05,-0.1524623,0.2814003,-9.813674000000001,0,0,36.30644,1,1,7746,3872
4206,65959882,2,-0.000946842,0.001446445,0.0001127247,-0.1502131,0.2822693,-9.814257,0,0,36.30655,1,1,7746,3872
4241,65962947,2,-0.0009627095,0.0007358314,0.0005995086,-0.146187,0.2823762,-9.814181,0,0,36.30672,1,1,7746,3872
4246,65965235,2,-0.001584851,0.0004663108,0.00128166,-0.1435447,0.282174,-9.813288999999999,0,0,36.30683,1,1,7746,3872
4250,65968293,2,-0.002164577,0.0002320476,0.001438508,-0.138443,0.2814996,-9.811686999999999,0,0,36.30698,1,1,7746,3872
4253,65970460,2,-0.002185618,-0.0001716,0.0008724972,-0.1350124,0.2804684,-9.811237999999999,0,0,36.30708,1,1,7746,3872
4288,65973145,2,-0.001014815,-0.001409022,0.001372289,-0.1304687,0.280296,-9.811741,0,0,36.30722,1,1,7746,3872
4291,65975155,2,-0.0006137594,-0.001541236,0.001598406,-0.1282761,0.2809254,-9.814581,0,0,36.30732,1,1,7746,3872
4295,65977932,2,-0.0005268045,-0.0009474023,0.00180334,-0.1247257,0.2831475,-9.821183,0,0,36.30748,1,1,7746,3872
4298,65980756,2,-0.0001697842,-0.0005251896,0.00205191,-0.1226731,0.2855332,-9.823696999999999,0,0,36.30758,1,1,7746,3872
4333,65983449,2,-0.0001453438,-0.0004699298,0.002487247,-0.1214989,0.2868598,-9.825158,0,0,36.30774,1,1,7746,3872
4337,65986018,2,6.821872e-05,-0.00102401,0.0004640052,-0.1228618,0.2870699,-9.824814999999999,0,0,36.30789,1,1,7746,3872
4340,65988272,2,-0.0005087745,-0.001922596,0.0002902879,-0.1238183,0.2858666,-9.824092,0,0,36.30798,1,1,7746,3872
4343,65990768,2,-0.001094244,-0.002580494,0.0008479364,-0.1241766,0.2837806,-9.824068,0,0,36.30812,1,1,7746,3872
4378,65993632,2,-0.0008903923,-0.002693889,0.001135087,-0.1241141,0.2811832,-9.824907,0,0,36.30827,1,1,7746,3872
4381,65996041,2,0.0006669661,-0.002203482,0.002678253,-0.1251134,0.2756025,-9.824054,0,0,36.30843,1,1,7746,3872
4384,65998194,2,0.0006385951,-0.001283137,0.002673655,-0.1260456,0.2736331,-9.823560000000001,0,0,36.30855,1,1,7746,3872
4387,66000669,2,-0.0003789534,-0.0004794072,0.002095706,-0.1274938,0.2714185,-9.827828999999999,0,0,36.30879,1,1,7746,3872
4422,66003097,2,-0.001009187,4.202854e-05,0.002407758,-0.1289871,0.2697742,-9.830728000000001,0,0,36.30891,1,1,7746,3872
4426,66006134,2,-0.001570883,-0.0004414055,0.003180993,-0.1330341,0.2689328,-9.834904999999999,0,0,36.30907,1,1,7746,3872
4429,66008866,2,-0.001074229,-0.0009725410000000001,0.003182103,-0.1361458,0.2687415,-9.83792,0,0,36.30918,1,1,7746,3872
4432,66010853,2,7.01322e-05,-0.0009598553,0.002413265,-0.1406604,0.2699004,-9.839560000000001,0,0,36.30934,1,1,7746,3872
4467,66013194,2,7.164856e-05,-0.001001103,0.001659893,-0.1429743,0.2714241,-9.839539,0,0,36.30956,1,1,7746,3872
4474,66015847,2,-0.0001126568,-0.001137388,0.0007245207,-0.1443359,0.2730285,-9.839316,0,0,36.30966,1,1,7746,3872
4477,66018583,2,-0.0002011335,-0.001288957,-0.000551759,-0.1446209,0.2742019,-9.83883,0,0,36.30976,1,1,7746,3872
4480,66021248,2,-1.812509e-05,-0.0009736091,-0.0008245397999999999,-0.1443626,0.2790276,-9.835998999999999,0,0,36.30991,1,1,7746,3872
4515,66023776,2,0.0008109084,-0.0003271683,-0.0004790692,-0.1438072,0.282995,-9.831111,0,0,36.31004,1,1,7746,3872
4519,66026204,2,0.001468608,0.0002672094,-0.0009909896000000001,-0.1446684,0.2846687,-9.826892000000001,0,0,36.3102,1,1,7746,3872
4522,66029378,2,0.001730685,0.0006929468,-0.001231712,-0.1458172,0.2846739,-9.825153999999999,0,0,36.3103,1,1,7746,3872
4525,66031468,2,0.001326216,0.0008362542,-0.0007914978,-0.1478829,0.2824554,-9.825253,0,0,36.31046,1,1,7746,3872
4560,66034445,2,0.0007758096,9.505606e-05,0.0001742383,-0.1474751,0.2788241,-9.825585,0,0,36.31057,1,1,7746,3872
4563,66036755,2,0.00134976,-0.0005862899,0.0007030746,-0.1454924,0.272076,-9.824218999999999,0,0,36.31071,1,1,7746,3872
4566,66039236,2,0.001946866,-0.0002059393,-0.000286055,-0.1445214,0.269482,-9.822665000000001,0,0,36.31081,1,1,7746,3872
4569,66042194,2,0.002085857,0.0008736695,-0.001168493,-0.1437256,0.2684211,-9.823214999999999,0,0,36.31095,1,1,7746,3872
4604,66044670,2,0.00190061,0.002506495,-0.001651912,-0.1419105,0.2667574,-9.826313000000001,0,0,36.31112,1,1,7746,3872
4608,66047893,2,0.001779749,0.00309537,-0.001730739,-0.1395909,0.2654799,-9.829001,0,0,36.3112,1,1,7746,3872
4611,66049957,2,0.001416065,0.003368266,-0.001809653,-0.1364274,0.2648237,-9.831924000000001,0,0,36.31132,1,1,7746,3872
4614,66052455,2,0.001648674,0.002783865,-0.001829819,-0.1334784,0.2639954,-9.834178,0,0,36.3114,1,1,7746,3872
4649,66055848,2,0.001974844,0.002559305,-0.001458013,-0.1304221,0.2612468,-9.835436,0,0,36.3115,1,1,7746,3872
4652,66057609,2,0.002247442,0.002669789,-0.001656132,-0.1293651,0.257647,-9.839093,0,0,36.31161,1,1,7746,3872
4655,66060861,2,0.00217743,0.002813387,-0.001827525,-0.1294528,0.2558163,-9.838378000000001,0,0,36.31167,1,1,7746,3872
4658,66062246,2,0.001313146,0.002598213,-0.001706318,-0.1304518,0.2537825,-9.832233,0,0,36.31176,1,1,7746,3872
4693,66064910,2,0.001240787,0.002202549,-0.001677334,-0.1323786,0.2541026,-9.825758,0,0,36.31182,1,1,7746,3872
4696,66067985,2,0.001310574,0.001727849,-0.001830991,-0.1351156,0.2566437,-9.820159,0,0,36.31188,1,1,7746,3872
4701,66069983,2,0.0009926001,0.002271477,-0.003463869,-0.1384639,0.2617539,-9.816262999999999,0,0,36.31196,1,1,7746,3872
4704,66075302,2,0.0007389371,0.004281744,-0.003899021,-0.1423484,0.2702485,-9.818153000000001,0,0,36.31211,1,1,7746,3872
4740,66080812,2,0.0001113842,0.003821379,-0.003113338,-0.1463247,0.2737307,-9.820550000000001,0,0,36.31233,1,1,7746,3872
4743,66083446,2,0.0004087945,0.00364254,-0.001792256,-0.1468247,0.2735913,-9.821954,0,0,36.31244,1,1,7746,3872
4747,66086138,2,0.0004048712,0.003485713,-0.00123239,-0.1473967,0.2746823,-9.824429,0,0,36.31253,1,1,7746,3872
4782,66088772,2,0.0004618546,0.003262986,-0.0003443536,-0.1481406,0.2766414,-9.825066,0,0,36.31269,1,1,7746,3872
4785,66091795,2,-0.0002289821,0.002496104,-0.0003961556,-0.1487041,0.2778004,-9.823947,0,0,36.31276,1,1,7746,3872
4788,66094067,2,-0.001473417,0.0009700918,8.328928e-05,-0.1496886,0.278442,-9.82357,0,0,36.31292,1,1,7746,3872
4791,66096156,2,-0.00164344,0.0002959869,-0.0001577002,-0.1500114,0.2787049,-9.823874,0,0,36.31304,1,1,7746,3872
4827,66098654,2,-0.0007229773,5.631474e-05,-0.0004044871,-0.1495448,0.2792915,-9.826687,0,0,36.31317,1,1,7746,3872
4830,66101009,2,-0.0001531074,-9.041332e-06,-0.0004320057,-0.147437,0.2807581,-9.829145,0,0,36.31327,1,1,7746,3872
4834,66104218,2,-0.0009768133999999999,-0.0003955689,-0.0001335861,-0.1403809,0.2826891,-9.833902,0,0,36.31339,1,1,7746,3872
4837,66106426,2,-0.001937887,-0.0004798535,0.0002809656,-0.1350998,0.2837321,-9.838329999999999,0,0,36.31356,1,1,7746,3872
4872,66109071,2,-0.001602462,-0.0005465004,0.0003490428,-0.1282263,0.2798907,-9.845110999999999,0,0,36.31374,1,1,7746,3872
4876,66111612,2,-0.00019923,-0.0004751672,0.0006790686,-0.1233856,0.2744889,-9.850243000000001,0,0,36.31388,1,1,7746,3872
4879,66114290,2,8.922246e-05,-0.0008734634999999999,0.001534833,-0.1220409,0.2726001,-9.851018,0,0,36.31397,1,1,7746,3872
4882,66117026,2,-0.001644476,-0.001412143,0.001755678,-0.1197254,0.2672855,-9.852784,0,0,36.3141,1,1,7746,3872
4921,66119880,2,-0.002919667,-0.001793165,0.001330052,-0.1187586,0.2638953,-9.850317,0,0,36.31424,1,1,7746,3872
4924,66122253,2,-0.003048124,-0.002552981,0.0007864731999999999,-0.1175541,0.262211,-9.849409,0,0,36.31433,1,1,7746,3872
4927,66124269,2,-0.001820645,-0.0036779,6.229313e-06,-0.1178741,0.2619806,-9.848227,0,0,36.31455,1,1,7746,3872
4930,66127779,2,-0.0009692257,-0.003108792,3.052341e-05,-0.1206346,0.2636696,-9.847759999999999,0,0,36.31467,1,1,7746,3872
4965,66130613,2,-0.001719865,-0.001638527,0.0004479938,-0.1271881,0.2666825,-9.844815000000001,0,0,36.31492,1,1,7746,3872
4969,66132670,2,-0.002564202,-0.001320396,0.001165555,-0.1317235,0.2693413,-9.841003000000001,0,0,36.31509,1,1,7746,3872
4972,66135062,2,-0.002443857,-0.001838055,0.002568234,-0.132592,0.2697244,-9.838812000000001,0,0,36.31521,1,1,7746,3872
4975,66137586,2,-0.002268695,-0.002594466,0.002229889,-0.1340272,0.269001,-9.837571000000001,0,0,36.31538,1,1,7746,3872
5010,66140643,2,-0.00233496,-0.002385111,0.002553866,-0.1357078,0.267793,-9.837828,0,0,36.31554,1,1,7746,3872
5013,66143797,2,-0.001921341,-0.001139094,0.003177002,-0.1369374,0.2657041,-9.838065,0,0,36.31568,1,1,7746,3872
5016,66144995,2,-0.001615813,-0.0003163957,0.003142533,-0.137227,0.2663744,-9.840135999999999,0,0,36.31582,1,1,7746,3872
5019,66147816,2,-0.001263477,8.099979e-05,0.003337239,-0.1380746,0.2680933,-9.843852999999999,0,0,36.31592,1,1,7746,3872
5054,66150072,2,-0.0009260955,1.637861e-05,0.003250514,-0.1392988,0.2690695,-9.847275,0,0,36.31603,1,1,7746,3872
5057,66153851,2,0.0006886032,-0.0007737211,0.002805623,-0.1413027,0.2707832,-9.851552,0,0,36.3162,1,1,7746,3872
5060,66155796,2,0.002081781,-0.001334304,0.00257003,-0.1417644,0.2756152,-9.855396000000001,0,0,36.31638,1,1,7746,3872
5063,66157887,2,0.002006064,-0.001394344,0.001837812,-0.1411984,0.2794769,-9.857620000000001,0,0,36.31649,1,1,7746,3872
5098,66160024,2,0.001458106,-0.001140684,0.0006488457,-0.1390934,0.2830589,-9.854264000000001,0,0,36.31667,1,1,7746,3872
5101,66162859,2,0.0009395257,-0.0006928772,0.0006363214,-0.1390256,0.2843512,-9.847789000000001,0,0,36.3168,1,1,7746,3872
5104,66165388,2,0.001061349,-0.0003230794,0.0009336878,-0.1402792,0.2846147,-9.840778,0,0,36.31697,1,1,7746,3872
5107,66168739,2,0.001203137,0.001207821,0.001198231,-0.1418811,0.2836202,-9.831159,0,0,36.31713,1,1,7746,3872
5142,66171622,2,0.00120853,0.002448138,0.001840079,-0.1411708,0.2801889,-9.822165,0,0,36.31731,1,1,7746,3872
5146,66173798,2,0.0003858573,0.001863112,0.001599111,-0.1398463,0.2755093,-9.817064999999999,0,0,36.31748,1,1,7746,3872
5149,66176036,2,-0.0002476384,0.001671931,0.001396912,-0.139083,0.2734455,-9.815747999999999,0,0,36.3176,1,1,7746,3872
5152,66179159,2,-0.0003377755,0.00242413,1.262471e-05,-0.1376881,0.2720051,-9.814617,0,0,36.31778,1,1,7746,3872
5187,66181267,2,0.0001024656,0.003484139,-0.000651152,-0.1332706,0.270456,-9.812627000000001,0,0,36.31796,1,1,7746,3872
5192,66184833,2,0.0009480463,0.003486717,-9.914780000000001e-05,-0.1289915,0.2699488,-9.81312,0,0,36.31808,1,1,7746,3872
5195,66187004,2,0.001104922,0.003339469,0.001500889,-0.1257272,0.2708429,-9.818289,0,0,36.31826,1,1,7746,3872
5198,66189624,2,0.000532131,0.002787011,0.001714032,-0.1247922,0.2717356,-9.823833,0,0,36.31839,1,1,7746,3872
5233,66191861,2,0.0002255383,0.002371884,0.001357761,-0.1246923,0.2723417,-9.829827999999999,0,0,36.31864,1,1,7746,3872
5236,66194795,2,0.0008460013,0.002699736,7.003966e-05,-0.1264739,0.2730523,-9.831367,0,0,36.31883,1,1,7746,3872
5239,66197615,2,0.0007428656,0.002877111,-0.0002225258,-0.1282526,0.2735068,-9.832473999999999,0,0,36.31896,1,1,7746,3872
5242,66199201,2,0.0002172018,0.002553018,-0.00132048,-0.1303845,0.2749641,-9.83577,0,0,36.31919,1,1,7746,3872
5277,66202736,2,-1.331592e-05,0.002013559,-0.001302546,-0.132327,0.2760695,-9.834873999999999,0,0,36.31929,1,1,7746,3872
5281,66204209,2,0.0003915312,0.001119302,0.001167963,-0.1369235,0.2766187,-9.828751,0,0,36.31949,1,1,7746,3872
5284,66207437,2,0.001785803,0.0007886936999999999,0.001847255,-0.1382405,0.2768218,-9.826340999999999,0,0,36.31958,1,1,7746,3872
5287,66209773,2,0.002419021,0.0009660509,0.0009613363999999999,-0.1401722,0.2769885,-9.819991,0,0,36.31975,1,1,7746,3872
5322,66211933,2,0.002519529,0.001958583,-0.0007757389,-0.1393472,0.2772818,-9.816670999999999,0,0,36.31985,1,1,7746,3872
5325,66215016,2,0.001606519,0.002302311,-0.002225389,-0.1365525,0.2776153,-9.812283000000001,0,0,36.31994,1,1,7746,3872
5328,66216858,2,0.0008336299,0.001265759,-0.001737791,-0.1356045,0.2771531,-9.809941,0,0,36.31999,1,1,7746,3872
5331,66219466,2,0.0008785685,0.0004889846,0.0002380323,-0.1334315,0.2757063,-9.805437,0,0,36.32008,1,1,7746,3872
5370,66222875,2,0.001520498,0.0006929986,0.000548652,-0.1323465,0.2741327,-9.803115999999999,0,0,36.32013,1,1,7746,3872
5374,66224414,2,0.001742446,0.001075503,-0.0001123274,-0.1296425,0.2715513,-9.799701000000001,0,0,36.32019,1,1,7746,3872
5377,66227429,2,0.0009651309,0.000741175,-0.00185143,-0.1275996,0.2683932,-9.799277999999999,0,0,36.32022,1,1,7746,3872
5380,66229360,2,-0.000135929,-0.0003535219,-0.003947528,-0.1250978,0.2635362,-9.804271999999999,0,0,36.32026,1,1,7746,3872
5415,66232268,2,-0.001036812,-0.0003447944,-0.003841906,-0.1241846,0.2615108,-9.81052,0,0,36.32026,1,1,7746,3872
5418,66234911,2,-0.001612799,-0.0004085922,-0.002560631,-0.1251727,0.2615778,-9.817268,0,0,36.32025,1,1,7746,3872
5421,66236839,2,-0.001351448,-0.001170749,-0.001983475,-0.1276327,0.2617949,-9.818943000000001,0,0,36.32024,1,1,7746,3872
5425,66239980,2,-0.0005232337,-0.002420881,-0.001952943,-0.1306176,0.2618099,-9.817951000000001,0,0,36.32022,1,1,7746,3872
5460,66242467,2,-0.0002442149,-0.002580926,-0.002311689,-0.1333256,0.2614311,-9.816901,0,0,36.32021,1,1,7746,3872
5464,66245240,2,-0.0005375452,-0.002439041,-0.002326442,-0.1361479,0.2611336,-9.820453000000001,0,0,36.32018,1,1,7746,3872
5467,66247439,2,-0.001814491,-0.002921976,-0.001742232,-0.1371715,0.2608783,-9.828042999999999,0,0,36.32016,1,1,7746,3872
5470,66250361,2,-0.001768886,-0.003202813,-0.000663563,-0.137728,0.2618439,-9.833792000000001,0,0,36.32014,1,1,7746,3872
5505,66253245,2,-0.001713585,-0.003539608,0.0005014797,-0.1401302,0.2622647,-9.840593,0,0,36.3201,1,1,7746,3872
5511,66255870,2,-0.002212259,-0.003369487,-0.0002362684,-0.1414752,0.2610129,-9.844760000000001,0,0,36.32007,1,1,7746,3872
5514,66264202,2,-0.002767273,-0.0008666152,-0.002005449,-0.1418845,0.267527,-9.845583,0,0,36.32002,1,1,7746,3872
5549,66267058,2,-0.003340046,-0.000582175,-0.002413926,-0.1425707,0.2689788,-9.846009,0,0,36.32003,1,1,7746,3872
5552,66270595,2,-0.003345072,2.349714e-06,-0.002085573,-0.144296,0.269616,-9.845025,0,0,36.32003,1,1,7746,3872
5555,66272621,2,-0.003405592,0.0003519252,-0.001267098,-0.1465009,0.2696317,-9.844338,0,0,36.32005,1,1,7746,3872
5558,66274821,2,-0.003292629,9.853634e-05,-0.0007537947,-0.1468468,0.2708596,-9.843806000000001,0,0,36.32006,1,1,7746,3872
5594,66277038,2,-0.002973505,-0.0001010972,-0.000113099,-0.1467053,0.2729008,-9.839839,0,0,36.32008,1,1,7746,3872
5597,66280157,2,-0.002773338,0.0002319603,0.0007819316,-0.1470579,0.2750773,-9.838244,0,0,36.32009,1,1,7746,3872
5600,66282986,2,-0.002544375,-3.112647e-05,0.0004958006,-0.1483746,0.2760606,-9.837383000000001,0,0,36.32012,1,1,7746,3872
5603,66285615,2,-0.001660735,-5.266048e-05,0.0005257168999999999,-0.1484036,0.2746218,-9.834462,0,0,36.32014,1,1,7746,3872
5638,66288247,2,-0.001426062,0.0003651474,0.0009381309,-0.1469261,0.2731358,-9.831362,0,0,36.32017,1,1,7746,3872
5643,66290350,2,-0.0007103837,9.084497e-05,0.0005567811,-0.1443195,0.2710159,-9.829053999999999,0,0,36.32018,1,1,7746,3872
5646,66293643,2,-0.0002704622,-0.0003849734,-0.0001859377,-0.142581,0.2693391,-9.826298,0,0,36.32018,1,1,7746,3872
5649,66295425,2,-0.0001262709,0.0003308388,-0.0003801177,-0.1412421,0.2657976,-9.822062000000001,0,0,36.32018,1,1,7746,3872
5684,66298760,2,-0.0001242172,0.001017804,-0.0005091333,-0.1409198,0.2633757,-9.820888999999999,0,0,36.32018,1,1,7746,3872
5687,66300554,2,-0.000936338,0.00103469,0.0006585902,-0.1416532,0.2626714,-9.82244,0,0,36.32018,1,1,7746,3872
5690,66303134,2,-0.001093132,0.0007779956,0.001531374,-0.1422969,0.2628558,-9.823679,0,0,36.32017,1,1,7746,3872
5693,66305836,2,-0.0007850652,0.001634847,0.001995894,-0.1435537,0.2636794,-9.8293,0,0,36.32015,1,1,7746,3872
5728,66308436,2,-0.0005715660999999999,0.003023258,0.00181288,-0.1449568,0.263488,-9.833439,0,0,36.32013,1,1,7746,3872
5733,66311274,2,-0.0004285692,0.003816798,0.001429347,-0.1468084,0.2629499,-9.835087,0,0,36.32013,1,1,7746,3872
5736,66313627,2,-0.0006984787,0.003826369,0.0005606153,-0.1502959,0.2623279,-9.839321,0,0,36.32013,1,1,7746,3872
5739,66316010,2,-0.000624546,0.003636399,0.0002204463,-0.1528474,0.2623314,-9.842052000000001,0,0,36.32013,1,1,7746,3872
5774,66319028,2,-0.0003013569,0.003506137,0.0005542065,-0.1572837,0.2631817,-9.843235999999999,0,0,36.32013,1,1,7746,3872
5777,66320955,2,-0.0008576629,0.002633543,0.0009494395,-0.1607287,0.2643661,-9.841939,0,0,36.32013,1,1,7746,3872
5780,66324017,2,-0.001413384,0.002414532,0.001850301,-0.1643356,0.2656625,-9.838177,0,0,36.32011,1,1,7746,3872
5787,66326180,2,-0.001673668,0.002806945,0.001695024,-0.1655299,0.2657389,-9.833797000000001,0,0,36.3201,1,1,7746,3872
5822,66328734,2,-0.001510461,0.003469545,0.002120954,-0.1648545,0.2664979,-9.822025999999999,0,0,36.3201,1,1,7746,3872
5826,66331219,2,-0.0009114551,0.003500109,0.002522378,-0.1623852,0.2672149,-9.814755,0,0,36.3201,1,1,7746,3872
5829,66333625,2,0.000703597,0.00322715,0.002198827,-0.1609661,0.2691423,-9.806943,0,0,36.3201,1,1,7746,3872
5832,66336277,2,0.0009847429999999999,0.002057075,0.002606105,-0.1593723,0.2719821,-9.800876000000001,0,0,36.3201,1,1,7746,3872
5869,66338898,2,0.0008335693,0.0007488651,0.003579992,-0.1549708,0.276584,-9.79867,0,0,36.32011,1,1,7746,3872
5872,66341824,2,0.0005133478,-0.0001999771,0.00345345,-0.1517043,0.2783317,-9.802472,0,0,36.32012,1,1,7746,3872
5875,66343920,2,0.001012992,-0.0004796744,0.002576879,-0.1464595,0.280869,-9.811137,0,0,36.32016,1,1,7746,3872
5878,66346379,2,0.001456313,9.082232e-05,0.002063086,-0.1425929,0.281656,-9.815181000000001,0,0,36.3202,1,1,7746,3872
5913,66349285,2,0.001483913,0.0004979372,-0.0004447505,-0.1374152,0.2781512,-9.818163,0,0,36.32025,1,1,7746,3872
5917,66351393,2,0.0006223499,-0.0002599256,-0.001030709,-0.1339033,0.270524,-9.818977,0,0,36.32027,1,1,7746,3872
5920,66353970,2,-4.710039e-05,-0.0006152884,-0.0002969692,-0.1318582,0.2664189,-9.817905,0,0,36.32029,1,1,7746,3872
5923,66356812,2,-0.0005279796,-0.0005410791,4.928068e-05,-0.129365,0.263718,-9.817057,0,0,36.3203,1,1,7746,3872
5958,66359054,2,-0.0001408001,-0.0006968476,0.001012643,-0.1257047,0.2615176,-9.821657999999999,0,0,36.32034,1,1,7746,3872
5962,66362523,2,0.0009041358,-0.0007461485,0.00142171,-0.1262759,0.2617787,-9.827311999999999,0,0,36.32036,1,1,7746,3872
5965,66364064,2,0.002216662,-0.001317828,0.001602499,-0.1286398,0.2626441,-9.831225999999999,0,0,36.32039,1,1,7746,3872
5968,66368205,2,0.002052825,-0.0009572422,0.001163609,-0.1312722,0.2637582,-9.832962999999999,0,0,36.32044,1,1,7746,3872
5971,66369404,2,0.001400886,-0.0005275515,0.00106029,-0.1343451,0.2643645,-9.832333,0,0,36.3205,1,1,7746,3872
6006,66371844,2,0.0007929177,-0.000841977,0.0006766481,-0.1363391,0.2659455,-9.829885000000001,0,0,36.32052,1,1,7746,3872
6009,66375761,2,-0.001185884,-0.002830169,-0.0004159216,-0.1375465,0.2687875,-9.825673,0,0,36.32056,1,1,7746,3872
6012,66377184,2,-0.002019746,-0.003688761,-0.0006376678999999999,-0.1369019,0.2691157,-9.825277,0,0,36.32058,1,1,7746,3872
6015,66379802,2,-0.002043691,-0.00337013,0.0006539547,-0.1337444,0.2692299,-9.829885000000001,0,0,36.32059,1,1,7746,3872
6051,66382812,2,-0.001883208,-0.002952725,0.002598057,-0.1306188,0.2685155,-9.833833,0,0,36.32063,1,1,7746,3872
6054,66384742,2,-0.001818483,-0.003267703,0.003137009,-0.1287072,0.2673744,-9.837224000000001,0,0,36.32067,1,1,7746,3872
6057,66387469,2,-0.001664237,-0.003019086,0.00217001,-0.1271051,0.2663692,-9.840633,0,0,36.3207,1,1,7746,3872
6060,66390178,2,-0.001892127,-0.002316705,0.0004184145,-0.124937,0.2665905,-9.843087000000001,0,0,36.32075,1,1,7746,3872
6095,66392513,2,-0.001647703,-0.001692378,-0.000333339,-0.12492,0.2674054,-9.842893999999999,0,0,36.3208,1,1,7746,3872
6098,66395810,2,-0.001130218,-0.001293279,-0.00066816,-0.1260568,0.2692547,-9.841894999999999,0,0,36.32083,1,1,7746,3872
6101,66397298,2,-0.001086996,-0.00108259,-0.001350379,-0.1274349,0.2717967,-9.841244,0,0,36.32087,1,1,7746,3872
6104,66400275,2,-0.00167619,-0.000636737,-0.001548401,-0.1289643,0.2734401,-9.840652,0,0,36.32092,1,1,7746,3872
6139,66403006,2,-0.002282808,-0.0001998309,-0.001292389,-0.1329064,0.2747128,-9.843092,0,0,36.32098,1,1,7746,3872
6143,66405477,2,-0.002041969,0.0005634258,-0.001566731,-0.1381226,0.274673,-9.846437,0,0,36.321,1,1,7746,3872
6147,66408203,2,-0.001411423,0.001433065,-0.001972471,-0.1417177,0.2747371,-9.844640999999999,0,0,36.32103,1,1,7746,3872
6150,66410575,2,-0.0007967641,0.002704777,-0.002743584,-0.1443349,0.2755198,-9.840183,0,0,36.32106,1,1,7746,3872
6185,66413765,2,-0.0004903718,0.00268621,-0.002595029,-0.1463823,0.2771282,-9.839983,0,0,36.32108,1,1,7746,3872
6189,66415986,2,-0.0008098477,0.001088243,-0.001730963,-0.1494994,0.278202,-9.840903000000001,0,0,36.3211,1,1,7746,3872
6192,66418157,2,-0.0004500899,0.000748147,-0.001479192,-0.1508093,0.2786816,-9.842096,0,0,36.32111,1,1,7746,3872
6195,66420427,2,-0.0001459145,0.001599619,-0.001336624,-0.1508841,0.2793905,-9.845810999999999,0,0,36.32109,1,1,7746,3872
6230,66422954,2,-0.0001164326,0.001462331,-0.001493723,-0.149987,0.2799028,-9.848508000000001,0,0,36.32108,1,1,7746,3872
6233,66426000,2,-0.0003519201,0.001372225,-0.0004429321,-0.1492149,0.2795508,-9.851179,0,0,36.32105,1,1,7746,3872
6240,66429026,2,-0.0007965305,0.001326572,-7.975951e-05,-0.1487428,0.2773872,-9.852854000000001,0,0,36.32102,1,1,7746,3872
6243,66430274,2,-0.001079438,0.001760679,-0.0001262427,-0.1487056,0.2722917,-9.849978,0,0,36.32098,1,1,7746,3872
6278,66433000,2,-0.001008485,0.001735887,-0.0003915257,-0.1492244,0.2684746,-9.845623,0,0,36.32095,1,1,7746,3872
6282,66435492,2,-0.001054584,0.001749792,-0.001502622,-0.1504777,0.2651738,-9.836672999999999,0,0,36.32091,1,1,7746,3872
6286,66438613,2,-0.0006152846,0.001819445,-0.001441288,-0.1514576,0.2653728,-9.830571000000001,0,0,36.32092,1,1,7746,3872
6289,66440826,2,0.0001782173,0.001862707,-0.001522079,-0.1502602,0.2670792,-9.824203000000001,0,0,36.32093,1,1,7746,3872
6324,66443414,2,-0.0007584581,0.002366417,-0.001868923,-0.1467412,0.2703546,-9.820456999999999,0,0,36.32095,1,1,7746,3872
6327,66445669,2,-0.0008657258,0.003073236,-0.001350819,-0.1432541,0.2721242,-9.81897,0,0,36.32097,1,1,7746,3872
6330,66448442,2,-0.0003732329,0.003339661,-0.0008293001,-0.1405464,0.2730142,-9.820868000000001,0,0,36.32098,1,1,7746,3872
6333,66451313,2,0.0008725007,0.003240259,-0.0008520026999999999,-0.1393863,0.2734404,-9.826530999999999,0,0,36.32098,1,1,7746,3872
6368,66454238,2,0.0007196749,0.003112811,-0.0007605573999999999,-0.1401696,0.2742708,-9.828447000000001,0,0,36.32101,1,1,7746,3872
6372,66456213,2,-0.001163862,0.002030178,-0.0004164402,-0.1409147,0.275597,-9.825564999999999,0,0,36.32104,1,1,7746,3872
6375,66459205,2,-0.001627978,0.0007530653,-0.000830532,-0.141401,0.2752185,-9.824082000000001,0,0,36.32107,1,1,7746,3872
6380,66461952,2,-0.0010615,-6.063551e-05,-0.001019944,-0.1431691,0.2731238,-9.820696,0,0,36.32115,1,1,7746,3872
6415,66470236,2,0.000616685,0.001219611,-0.0007844635,-0.1419624,0.2677021,-9.824446999999999,0,0,36.32141,1,1,7746,3872
6419,66473259,2,0.0002565983,0.001517643,-0.0009952425000000001,-0.1406828,0.2684657,-9.824379,0,0,36.32151,1,1,7746,3872
6454,66476783,2,0.0001320261,0.0004465404,-0.0002631962,-0.1379793,0.2719943,-9.821396999999999,0,0,36.32162,1,1,7746,3872
6457,66479010,2,0.0002236554,-0.001071317,0.00217924,-0.135907,0.2762984,-9.819217,0,0,36.32169,1,1,7746,3872
6460,66480851,2,0.0003404273,-0.001346071,0.003077077,-0.1346768,0.2774149,-9.820240999999999,0,0,36.32172,1,1,7746,3872
6463,66483369,2,0.0004938244,-0.001177611,0.002722196,-0.1344565,0.27684,-9.823959,0,0,36.32174,1,1,7746,3872
6498,66485746,2,0.0001011859,-0.001175588,0.0004703782,-0.1358429,0.2730339,-9.829726000000001,0,0,36.32178,1,1,7746,3872
6501,66488753,2,-0.0005042012,-0.0009939197,-0.0006651074,-0.1375792,0.2704249,-9.833520999999999,0,0,36.3218,1,1,7746,3872
6504,66491410,2,-0.001258401,-0.0007031037,-0.001301131,-0.1396947,0.2690769,-9.837448,0,0,36.32184,1,1,7746,3872
6508,66493033,2,-0.001143984,-0.0005279091000000001,-0.0001681995,-0.1412983,0.2682585,-9.838800000000001,0,0,36.32188,1,1,7746,3872
6543,66495860,2,-0.000143481,-0.0009989258,0.0006366558999999999,-0.1438873,0.2662799,-9.834809999999999,0,0,36.32191,1,1,7746,3872
6546,66498220,2,0.00127742,-0.002104241,0.001062832,-0.1461463,0.2657048,-9.831647999999999,0,0,36.32195,1,1,7746,3872
6549,66501162,2,0.002763718,-0.003130322,0.002729007,-0.1499859,0.2675625,-9.832261000000001,0,0,36.32198,1,1,7746,3872
6553,66503806,2,0.002561921,-0.003648669,0.002378476,-0.1518539,0.268784,-9.83497,0,0,36.322,1,1,7746,3872
6588,66506147,2,0.001247437,-0.003379619,0.001811512,-0.1546484,0.2684251,-9.837678,0,0,36.32207,1,1,7746,3872
6591,66509012,2,0.001332561,-0.003548455,0.001586355,-0.1546565,0.267804,-9.837081,0,0,36.32211,1,1,7746,3872
6596,66511850,2,0.001234441,-0.004334003,0.0005870789,-0.1536872,0.2684598,-9.837864,0,0,36.32217,1,1,7746,3872
6599,66513866,2,0.001517618,-0.003360934,0.0005392156,-0.153399,0.269645,-9.838729000000001,0,0,36.32222,1,1,7746,3872
6634,66516851,2,0.0007144421,-0.002040953,0.001184289,-0.1538327,0.2698162,-9.840446,0,0,36.32232,1,1,7746,3872
6637,66518960,2,0.0002985664,-0.0009552499,0.001255003,-0.1542294,0.2686487,-9.839850999999999,0,0,36.32237,1,1,7746,3872
6640,66521273,2,0.0008523837,0.000208477,7.459324e-05,-0.1543097,0.2664271,-9.838922999999999,0,0,36.32245,1,1,7746,3872
6644,66524387,2,0.001138766,0.0008188176,-0.0001877008,-0.1538405,0.2651203,-9.839039,0,0,36.3225,1,1,7746,3872
6679,66527294,2,0.00126125,0.001333169,-0.0001137794,-0.1530586,0.2641382,-9.838846999999999,0,0,36.32262,1,1,7746,3872
6682,66529438,2,0.001109049,0.001404787,-0.0004048755,-0.1533778,0.2640846,-9.837768000000001,0,0,36.32268,1,1,7746,3872
6689,66532205,2,0.001442241,0.001175978,0.0005978759,-0.1532586,0.2652452,-9.838263,0,0,36.32278,1,1,7746,3872
6692,66534357,2,0.001877034,0.001823161,0.0007608621,-0.1532116,0.2670045,-9.839274,0,0,36.32284,1,1,7746,3872
6727,66537209,2,0.001995461,0.00281096,0.001515166,-0.1519499,0.2690657,-9.841015000000001,0,0,36.3229,1,1,7746,3872
6730,66539961,2,0.0008805831,0.002958772,0.001705822,-0.1495958,0.2708982,-9.843163000000001,0,0,36.32295,1,1,7746,3872
6733,66541881,2,0.0005560609999999999,0.002737917,0.001028931,-0.1466946,0.2714593,-9.842162,0,0,36.32303,1,1,7746,3872
6737,66544187,2,0.000422586,0.002637178,-6.38975e-05,-0.1446004,0.2721854,-9.840667,0,0,36.32307,1,1,7746,3872
6772,66546946,2,0.0004234663,0.003129234,-0.0006198291000000001,-0.1423998,0.2722352,-9.838452999999999,0,0,36.32314,1,1,7746,3872
6775,66550046,2,-0.0002262411,0.003419637,-0.001568154,-0.1419106,0.2720419,-9.836418,0,0,36.32326,1,1,7746,3872
6778,66552291,2,-0.0003239427,0.003118726,-0.001830401,-0.1416679,0.2729356,-9.835861,0,0,36.32331,1,1,7746,3872
6782,66554282,2,0.000181514,0.002930699,-0.001377246,-0.1410523,0.2746569,-9.836199000000001,0,0,36.32341,1,1,7746,3872
6817,66556623,2,0.0005101528,0.003430699,-0.0005875342,-0.1397473,0.2763645,-9.837534,0,0,36.32352,1,1,7746,3872
6820,66559264,2,0.00066155,0.003441549,6.864698999999999e-05,-0.137471,0.2781601,-9.837242,0,0,36.3236,1,1,7746,3872
6823,66562650,2,0.001102754,0.003307767,0.000552656,-0.1361158,0.2787215,-9.834398,0,0,36.32375,1,1,7746,3872
6826,66565054,2,0.001289055,0.002978398,0.000563474,-0.133275,0.2792879,-9.830676,0,0,36.32386,1,1,7746,3872
6861,66567395,2,0.0006939275,0.003232564,-8.092173e-05,-0.1297326,0.2785388,-9.830935,0,0,36.32399,1,1,7746,3872
6864,66570167,2,0.0002980338,0.003353474,-0.0004254157,-0.1276634,0.2773238,-9.831184,0,0,36.32406,1,1,7746,3872
6867,66572815,2,0.0001395579,0.003012322,-0.001626342,-0.1251594,0.27471,-9.830462000000001,0,0,36.32421,1,1,7746,3872
6871,66576057,2,-0.0002948308,0.001847601,-0.001322534,-0.1241149,0.2712663,-9.829312,0,0,36.32429,1,1,7746,3872
6906,66579166,2,-0.001225107,0.0007881699,0.0001232618,-0.1253146,0.2654475,-9.82652,0,0,36.3245,1,1,7746,3872
6909,66580815,2,-0.002176564,0.001120452,0.0008837862,-0.1259041,0.2650434,-9.824615,0,0,36.32458,1,1,7746,3872
6912,66583736,2,-0.002997987,0.001134443,0.001051242,-0.1254483,0.2654644,-9.823632,0,0,36.3247,1,1,7746,3872
6915,66586408,2,-0.002820916,0.0007197607,0.0008877867999999999,-0.1253865,0.2662578,-9.823238999999999,0,0,36.32478,1,1,7746,3872
6950,66589415,2,-0.002211004,-0.0004550615,0.0001116058,-0.1250427,0.2696714,-9.820696999999999,0,0,36.32496,1,1,7746,3872
6953,66591851,2,-0.001890327,-0.0007986514,9.310577e-05,-0.1242767,0.2755639,-9.816917999999999,0,0,36.32508,1,1,7746,3872
6956,66594168,2,-0.001503735,-0.001708602,0.0003392094,-0.1244887,0.2808037,-9.815282,0,0,36.32516,1,1,7746,3872
6961,66596275,2,-0.001277146,-0.00237223,0.0005239908,-0.1239014,0.2860222,-9.814988,0,0,36.32535,1,1,7746,3872
6996,66599484,2,-0.001198162,-0.00150207,0.0002147548,-0.1249467,0.287565,-9.814449,0,0,36.3255,1,1,7746,3872
7000,66602009,2,-0.000914341,-0.0005538535,0.001674736,-0.1297567,0.2861746,-9.815689000000001,0,0,36.32569,1,1,7746,3872
7003,66604352,2,-0.0007072961,-0.0005341447,0.002453333,-0.132754,0.2838809,-9.816646,0,0,36.32579,1,1,7746,3872
7006,66606400,2,-0.002166132,-0.001149176,0.002437964,-0.1352805,0.2790333,-9.816978000000001,0,0,36.32599,1,1,7746,3872
7041,66609037,2,-0.003375583,-0.002324073,0.0002822559,-0.138513,0.273316,-9.817831,0,0,36.3262,1,1,7746,3872
7044,66612147,2,-0.003007138,-0.00317108,-0.0002454035,-0.1416969,0.2694932,-9.819756999999999,0,0,36.32634,1,1,7746,3872
7048,66614234,2,-0.001625251,-0.002891504,-0.0004912614,-0.1429663,0.268005,-9.821154,0,0,36.32647,1,1,7746,3872
7052,66617036,2,-0.000898238,-0.001363294,0.0002610839,-0.1458762,0.2656882,-9.829096,0,0,36.32664,1,1,7746,3872
7087,66619454,2,-0.001022484,-0.001262238,7.623608e-05,-0.1484677,0.267064,-9.839174999999999,0,0,36.32677,1,1,7746,3872
7090,66622748,2,-0.001224962,-0.00107993,-0.0003134877,-0.1489976,0.2685451,-9.843441,0,0,36.3269,1,1,7746,3872
7093,66624695,2,-0.001506822,-0.0008223556,0.001133961,-0.1488372,0.2709996,-9.843337,0,0,36.32702,1,1,7746,3872
7097,66627167,2,-0.001772033,-0.0008046339,0.001432678,-0.1498345,0.272768,-9.841907000000001,0,0,36.3271,1,1,7746,3872
7132,66630059,2,-0.003240539,-0.0004023377,0.001588567,-0.1516791,0.2749103,-9.841528,0,0,36.32727,1,1,7746,3872
7135,66631914,2,-0.00376442,-5.278667e-05,0.002063327,-0.1524071,0.277036,-9.840168,0,0,36.32737,1,1,7746,3872
7142,66635188,2,-0.003255366,-0.000619557,0.00167335,-0.1510322,0.2793736,-9.833698,0,0,36.3275,1,1,7746,3872
7145,66637217,2,-0.001971826,-0.0008790124,0.0003446926,-0.1483715,0.2800391,-9.830557000000001,0,0,36.32759,1,1,7746,3872
7180,66639648,2,0.0002501039,-0.0001895004,-0.0007489101,-0.1460749,0.2808869,-9.829674000000001,0,0,36.3278,1,1,7746,3872
7183,66642751,2,0.0008122443,0.0001582974,-0.0009338614000000001,-0.1462451,0.2814086,-9.83099,0,0,36.32796,1,1,7746,3872
7186,66644700,2,0.0005770633,0.0001467021,-0.001027362,-0.1468821,0.2795525,-9.831203,0,0,36.32812,1,1,7746,3872
7190,66647451,2,-0.0003815449,0.0002242918,-0.001038903,-0.1475728,0.2778574,-9.829164,0,0,36.32823,1,1,7746,3872
7225,66650054,2,-0.001252357,-0.0001705907,-0.0004938032,-0.1484536,0.2740915,-9.828836000000001,0,0,36.32854,1,1,7746,3872
7229,66652876,2,-0.00113064,0.0006547546,-0.0001225335,-0.1482607,0.2708696,-9.828535,0,0,36.32867,1,1,7746,3872
7232,66655301,2,-0.000478599,0.001852845,0.0002109642,-0.147772,0.2687318,-9.827563,0,0,36.32879,1,1,7746,3872
7235,66658359,2,-0.0001377077,0.003063023,-0.0006019402,-0.1456244,0.268439,-9.826126,0,0,36.32904,1,1,7746,3872
7270,66660881,2,-0.0003861726,0.003398388,-0.001570039,-0.144441,0.2690951,-9.83033,0,0,36.3293,1,1,7746,3872
7273,66663655,2,-0.000702785,0.002800551,0.0003611089,-0.1425661,0.2705466,-9.833562000000001,0,0,36.32944,1,1,7746,3872
7276,66666397,2,-0.0009516938,0.002538005,0.001131282,-0.1396007,0.2725061,-9.83582,0,0,36.32973,1,1,7746,3872
7282,66668974,2,-0.001469328,0.001866637,0.0007359462,-0.134953,0.2759088,-9.836898,0,0,36.32994,1,1,7746,3872
7317,66674295,2,-0.001101976,0.002330789,0.0001232303,-0.1327972,0.2792922,-9.831875999999999,0,0,36.33041,1,1,7746,3872
7320,66679825,2,-0.001875017,0.001852137,-0.001081251,-0.1377515,0.2793345,-9.834819,0,0,36.33073,1,1,7746,3872
7355,66683822,2,-0.001510935,0.002178445,-0.000158406,-0.1407132,0.2780397,-9.841969000000001,0,0,36.33092,1,1,7746,3872
7358,66685026,2,-0.0005790083,0.00315243,0.0001535485,-0.142693,0.2758121,-9.847643,0,0,36.33118,1,1,7746,3872
7361,66687822,2,-0.000266581,0.003096318,-7.872662999999999e-05,-0.1430555,0.2735392,-9.850047999999999,0,0,36.33131,1,1,7746,3872
7364,66691034,2,0.0002840369,0.002697929,-7.016706e-05,-0.1437323,0.2719979,-9.850636,0,0,36.33143,1,1,7746,3872
7400,66693750,2,0.001972371,0.0009893173000000001,-1.538878e-05,-0.1468147,0.2712239,-9.847878,0,0,36.33168,1,1,7746,3872
7404,66696443,2,0.002257265,0.0007058147000000001,0.0006818339000000001,-0.1478558,0.2703988,-9.844954,0,0,36.3318,1,1,7746,3872
7407,66698555,2,0.001805147,0.0004445741,-9.980363e-05,-0.1498417,0.2698058,-9.841388,0,0,36.33199,1,1,7746,3872
7411,66701021,2,0.001796411,0.0003676812,-0.0006574479,-0.1514581,0.2707076,-9.839705,0,0,36.33215,1,1,7746,3872
7446,66703790,2,0.001650138,0.0006471827,-0.002487007,-0.1537023,0.2719311,-9.836945999999999,0,0,36.33233,1,1,7746,3872
7450,66706776,2,0.001665474,0.0006447013,-0.003688904,-0.1541785,0.2735752,-9.834569999999999,0,0,36.3325,1,1,7746,3872
7454,66709226,2,0.001286166,0.0007797899,-0.002841324,-0.1528422,0.2770401,-9.832452999999999,0,0,36.33274,1,1,7746,3872
7457,66710844,2,0.001209687,0.0008757433,-0.002889937,-0.1519106,0.2777803,-9.831588,0,0,36.33287,1,1,7746,3872
7492,66713427,2,0.001148217,8.850165e-05,-0.002532687,-0.1489518,0.2791919,-9.829704,0,0,36.33308,1,1,7746,3872
7496,66715831,2,0.000814056,-0.0009010494,-0.001630039,-0.1475862,0.2797474,-9.830622,0,0,36.33321,1,1,7746,3872
7499,66719000,2,0.001478925,-0.001342618,-0.001511843,-0.145689,0.2802464,-9.831082,0,0,36.33343,1,1,7746,3872
7502,66721847,2,0.002209799,-0.00119885,-0.001414825,-0.1442208,0.2803061,-9.830194000000001,0,0,36.33358,1,1,7746,3872
7537,66724188,2,0.003718191,-0.0009959313999999999,-0.0003758604,-0.1415853,0.2759053,-9.833911000000001,0,0,36.33404,1,1,7746,3872
7541,66727218,2,0.002975667,-0.0004482033,-0.00076745,-0.1406759,0.2727146,-9.835732999999999,0,0,36.33421,1,1,7746,3872
7544,66729668,2,0.0015183,-0.001673063,-0.003683897,-0.1377365,0.2675427,-9.832255999999999,0,0,36.33454,1,1,7746,3872
7547,66732747,2,0.002198717,-0.002839346,-0.005964604,-0.1358505,0.2639795,-9.833780000000001,0,0,36.33479,1,1,7746,3872
7582,66735418,2,0.004237568,2.215864e-05,-0.007072317,-0.1322197,0.2611401,-9.843733,0,0,36.33512,1,1,7746,3872
7586,66737653,2,0.0003655092,0.002704067,-0.006428733,-0.1305198,0.2611339,-9.847432,0,0,36.33535,1,1,7746,3872
7593,66740203,2,-0.003746406,0.0009042377,-0.005290269,-0.1307303,0.2618348,-9.842326999999999,0,0,36.3355,1,1,7746,3872
7596,66742950,2,-0.0008054471,-0.003054812,-0.004325247,-0.1314538,0.2621326,-9.834944,0,0,36.33574,1,1,7746,3872
7631,66745771,2,0.007239781,-0.003271048,-0.003219828,-0.133233,0.2619535,-9.833273,0,0,36.33606,1,1,7746,3872
7634,66748055,2,0.007692127,-0.002909523,-0.002721444,-0.1354833,0.2635352,-9.837714,0,0,36.33621,1,1,7746,3872
7637,66750211,2,0.003872419,-0.001662622,-0.001729328,-0.1394967,0.2653371,-9.840579999999999,0,0,36.33636,1,1,7746,3872
7640,66753249,2,-0.003237135,0.0004658061,-0.001693793,-0.1456688,0.265526,-9.837004,0,0,36.33658,1,1,7746,3872
7675,66756199,2,-0.0001105295,-0.0002430475,-0.002632962,-0.1483711,0.2648464,-9.829615,0,0,36.33679,1,1,7746,3872
7679,66758485,2,0.004425052,-0.001627934,-0.003633964,-0.150406,0.2649165,-9.831956999999999,0,0,36.33693,1,1,7746,3872
7682,66760751,2,0.003642734,-0.0004706879,-0.003220073,-0.1534952,0.2636117,-9.848330000000001,0,0,36.33715,1,1,7746,3872
7685,66763399,2,-0.003721535,0.003467132,-0.001715808,-0.1530914,0.2627328,-9.850047,0,0,36.33729,1,1,7746,3872
7720,66766184,2,-0.01185081,0.004075108,0.001291927,-0.1475962,0.2633426,-9.814518,0,0,36.33751,1,1,7746,3872
7723,66768905,2,-0.005600921,-0.001507869,0.002008587,-0.1448793,0.2638402,-9.789091000000001,0,0,36.33765,1,1,7746,3872
7727,66770836,2,0.01342934,-0.005149706,0.001583122,-0.1430624,0.2609381,-9.807579,0,0,36.33784,1,1,7746,3872
7731,66773640,2,0.01140883,0.002858497,0.001410978,-0.1423975,0.2612008,-9.846919,0,0,36.33797,1,1,7746,3872
7766,66776420,2,-0.0140984,0.0113665,0.0038659,-0.1426061,0.2676598,-9.860245000000001,0,0,36.33816,1,1,7746,3872
7770,66778926,2,-0.01559492,0.001795962,0.005151941,-0.1430222,0.2813704,-9.808494,0,0,36.33832,1,1,7746,3872
7773,66782255,2,0.003562312,-0.01179801,0.00439608,-0.1413158,0.2837321,-9.784751999999999,0,0,36.33843,1,1,7746,3872
7776,66783831,2,0.01804674,-0.007237163,0.003257821,-0.1383445,0.2831305,-9.826853,0,0,36.33858,1,1,7746,3872
7811,66786157,2,-0.009688769999999999,0.01738264,0.006320113,-0.1391772,0.2925368,-9.860397000000001,0,0,36.33873,1,1,7746,3872
7814,66788905,2,-0.01512051,0.01934127,0.006819274,-0.1406621,0.2936061,-9.83447,0,0,36.33882,1,1,7746,3872
7817,66791255,2,-0.0009641207,0.004533278,0.003637441,-0.1398776,0.2881041,-9.793132999999999,0,0,36.33892,1,1,7746,3872
7820,66794429,2,0.01587323,-0.01556615,-9.589543000000001e-05,-0.1375276,0.2832361,-9.780619,0,0,36.33907,1,1,7746,3872
7855,66797606,2,-0.002157214,0.0006337371,0.004501475,-0.1404845,0.2849533,-9.829300999999999,0,0,36.33926,1,1,7746,3872
7859,66799270,2,-0.007158922,0.01585979,0.008581673,-0.1390748,0.2834695,-9.829494,0,0,36.33939,1,1,7746,3872
7862,66802022,2,0.006260138,0.004066816,0.00727411,-0.1377805,0.2795793,-9.818419,0,0,36.33947,1,1,7746,3872
7865,66804284,2,0.004622533,-0.0118452,0.005628879,-0.1357754,0.2658013,-9.804195999999999,0,0,36.3396,1,1,7746,3872
7900,66807266,2,-0.001756924,-0.0103633,0.006033448,-0.1330421,0.263081,-9.808614,0,0,36.33967,1,1,7746,3872
7904,66810260,2,-0.01107368,0.003740736,0.007810813,-0.130789,0.2606342,-9.807434000000001,0,0,36.33981,1,1,7746,3872
7907,66811960,2,-0.003108778,0.008525629,0.006875551,-0.1324934,0.2587803,-9.802849999999999,0,0,36.33993,1,1,7746,3872
7910,66814419,2,0.01160714,0.001741973,0.002425373,-0.1339066,0.258903,-9.800148999999999,0,0,36.34007,1,1,7746,3872
7945,66816761,2,0.006774251,-0.006227243,0.001848739,-0.1339654,0.2605484,-9.805016,0,0,36.34013,1,1,7746,3872
7948,66820238,2,-0.009640199,-0.01114229,0.003399541,-0.1379374,0.2683248,-9.824752,0,0,36.34023,1,1,7746,3872
7951,66822630,2,-0.0104514,-0.005236747,0.00421115,-0.1432686,0.2743858,-9.839852,0,0,36.34032,1,1,7746,3872
7954,66824495,2,-0.0009331333,0.009256042000000001,0.005358021,-0.1456924,0.2793156,-9.842416,0,0,36.34043,1,1,7746,3872
7989,66827029,2,0.002356112,0.009869128,0.00621321,-0.1445948,0.2837556,-9.824514000000001,0,0,36.3405,1,1,7746,3872
7993,66829427,2,0.005421066,-0.00952805,0.004097281,-0.1421136,0.2849633,-9.797428,0,0,36.34063,1,1,7746,3872
7997,66832742,2,0.003332147,-0.01861969,0.0007457581,-0.1410926,0.2840591,-9.804838,0,0,36.34076,1,1,7746,3872
8000,66835015,2,-0.004645207,-0.0006436123,-0.0006810828,-0.1393098,0.2836748,-9.828579,0,0,36.34095,1,1,7746,3872
8037,66837223,2,-0.007314102,0.01469449,0.001040296,-0.1359667,0.2823595,-9.831087999999999,0,0,36.34109,1,1,7746,3872
8040,66839966,2,-0.001672163,0.01196069,0.001605307,-0.136254,0.2810959,-9.802352000000001,0,0,36.34119,1,1,7746,3872
8047,66843164,2,0.01560211,-0.01196569,-0.001869237,-0.1453916,0.2756271,-9.795111,0,0,36.34139,1,1,7746,3872
8050,66845582,2,0.01264806,-0.01167646,-0.005137805,-0.1513292,0.2733178,-9.831284,0,0,36.34149,1,1,7746,3872
8085,66848647,2,-0.01393261,0.01258059,-0.002135476,-0.1562794,0.2777497,-9.870736000000001,0,0,36.34171,1,1,7746,3872
8089,66850484,2,-0.01797146,0.01135804,0.001172733,-0.1627663,0.2767485,-9.84395,0,0,36.34186,1,1,7746,3872
8093,66853184,2,-1.569628e-05,-0.003111114,-0.0005565647,-0.1678043,0.2719943,-9.824901000000001,0,0,36.34196,1,1,7746,3872
8098,66855790,2,0.01861086,-0.004541582,-0.004629067,-0.1702402,0.2649448,-9.846984000000001,0,0,36.34214,1,1,7746,3872
8133,66864400,2,0.0008738464,-0.006147158,-0.007663143,-0.1595454,0.2674756,-9.840331000000001,0,0,36.3425,1,1,7746,3872
8137,66866851,2,0.01105128,-0.005558507,-0.007660207,-0.1551652,0.2672742,-9.839530999999999,0,0,36.34257,1,1,7746,3872
8172,66869869,2,-0.002143404,0.008435478999999999,-0.004318286,-0.1395052,0.2709662,-9.853877000000001,0,0,36.34274,1,1,7746,3872
8175,66871813,2,-0.009502702999999999,0.01084893,-0.002963788,-0.1310424,0.2732427,-9.859626,0,0,36.34282,1,1,7746,3872
8178,66874804,2,-0.01656202,0.009291479,-0.001901162,-0.1247677,0.2732643,-9.854104,0,0,36.3429,1,1,7746,3872
8181,66876780,2,-0.001867945,0.001777586,-0.005212829,-0.115113,0.2734205,-9.840099,0,0,36.34301,1,1,7746,3872
8216,66879431,2,0.0116695,0.0009233962,-0.008113598,-0.1086022,0.2776933,-9.838632,0,0,36.34309,1,1,7746,3872
8219,66883001,2,0.009398164000000001,0.00356512,-0.009050641999999999,-0.1036731,0.287331,-9.849848,0,0,36.34327,1,1,7746,3872
8222,66884272,2,-0.01074396,0.003765632,-0.006211643,-0.1038407,0.2975834,-9.859221,0,0,36.34341,1,1,7746,3872
8226,66886884,2,-0.01328902,0.002305939,-0.005583399,-0.104607,0.3005697,-9.851599,0,0,36.34351,1,1,7746,3872
8261,66889913,2,0.006910267,-0.002745373,-0.008648509,-0.1060643,0.2996924,-9.828006,0,0,36.34368,1,1,7746,3872
8264,66891832,2,0.01825646,-0.006353059,-0.009446424,-0.1084027,0.2960674,-9.818581999999999,0,0,36.34377,1,1,7746,3872
8267,66894852,2,0.01410525,-0.006718488,-0.008374318,-0.1102404,0.2895777,-9.820373999999999,0,0,36.34385,1,1,7746,3872
8271,66896804,2,-0.01009533,-0.003242967,-0.00604577,-0.1112107,0.2782722,-9.824662999999999,0,0,36.34397,1,1,7746,3872
8306,66900143,2,-0.0144165,-0.001461101,-0.005941041,-0.1122796,0.2751255,-9.823869,0,0,36.34405,1,1,7746,3872
8310,66901793,2,-0.002534378,1.529722e-05,-0.006068022,-0.1155246,0.2671538,-9.807592,0,0,36.34421,1,1,7746,3872
8313,66904139,2,0.0140679,-0.0005056072,-0.005883202,-0.1168833,0.2644798,-9.790946,0,0,36.34429,1,1,7746,3872
8317,66907281,2,0.01664406,-0.009591577,-0.006361872,-0.119302,0.2602046,-9.789553,0,0,36.34442,1,1,7746,3872
8352,66910494,2,-0.006195729,-0.01186121,-0.004167057,-0.1273991,0.2580865,-9.824911999999999,0,0,36.34458,1,1,7746,3872
8355,66912918,2,-0.0114329,0.004531199,-0.001363141,-0.134178,0.2607351,-9.844987,0,0,36.3447,1,1,7746,3872
8358,66914997,2,0.002136284,0.009701108999999999,-0.001031169,-0.1377844,0.2596963,-9.832853999999999,0,0,36.34477,1,1,7746,3872
8362,66917432,2,0.0168778,-0.0006539177,-0.001387757,-0.149968,0.2510026,-9.812996999999999,0,0,36.3449,1,1,7746,3872
8397,66920271,2,0.009553167,-0.005339026,-0.001672907,-0.1605972,0.2468312,-9.814837000000001,0,0,36.34497,1,1,7746,3872
8400,66923263,2,-0.01160473,0.003313685,0.0005898,-0.1700858,0.2444165,-9.817766000000001,0,0,36.34506,1,1,7746,3872
8403,66924668,2,-0.01418676,0.005725646,0.003204817,-0.1731911,0.2440602,-9.802985,0,0,36.34513,1,1,7746,3872
8406,66927495,2,0.005846105,-0.006555639,0.006646403,-0.173499,0.2480814,-9.772869,0,0,36.34523,1,1,7746,3872
8441,66930060,2,0.01677493,-0.01275183,0.009202017999999999,-0.1725682,0.2502055,-9.768985000000001,0,0,36.34529,1,1,7746,3872
8444,66933222,2,0.004181889,-0.001868053,0.01333394,-0.1660779,0.2603834,-9.785475,0,0,36.34538,1,1,7746,3872
8447,66935776,2,-0.004263929,0.004134016,0.01490485,-0.160856,0.2705756,-9.801738,0,0,36.34543,1,1,7746,3872
8451,66937378,2,-0.01320928,0.008877421,0.01714422,-0.1541159,0.2883969,-9.804399999999999,0,0,36.34555,1,1,7746,3872
8486,66939783,2,0.0002605982,-0.002405192,0.01545616,-0.1477966,0.2989,-9.796113999999999,0,0,36.3456,1,1,7746,3872
8489,66942465,2,0.01975006,-0.0186502,0.01265971,-0.1371357,0.3114434,-9.801990999999999,0,0,36.34569,1,1,7746,3872
8496,66945880,2,0.01382136,-0.01677673,0.01273758,-0.1299887,0.3184199,-9.81221,0,0,36.34575,1,1,7746,3872
8501,66948241,2,-0.006212061,-0.004820599,0.01438622,-0.1216999,0.324499,-9.813027999999999,0,0,36.3459,1,1,7746,3872
8536,66950449,2,0.0005385331,0.002134085,0.01265425,-0.1206075,0.3244506,-9.805785999999999,0,0,36.34604,1,1,7746,3872
8539,66953316,2,0.01589821,0.005555987,0.009808835,-0.1248079,0.3191775,-9.809964000000001,0,0,36.34613,1,1,7746,3872
8543,66956074,2,0.02294722,0.01385644,0.00563147,-0.1392594,0.303328,-9.821846000000001,0,0,36.34633,1,1,7746,3872
8547,66958890,2,0.00841978,0.01676286,0.004704552,-0.1521517,0.2895021,-9.816568999999999,0,0,36.34648,1,1,7746,3872
8582,66961620,2,-0.01423851,0.007618022,0.004820492,-0.1746022,0.2676816,-9.791292,0,0,36.34667,1,1,7746,3872
8585,66964001,2,-0.003464336,0.004086301,0.003701047,-0.1862101,0.2514875,-9.779317000000001,0,0,36.34675,1,1,7746,3872
8588,66966186,2,0.01231597,0.005054952,0.003147003,-0.194436,0.2297989,-9.79528,0,0,36.34688,1,1,7746,3872
8592,66969430,2,0.01652518,0.009421702000000001,0.003405174,-0.1951458,0.2189781,-9.821357000000001,0,0,36.34696,1,1,7746,3872
8627,66971646,2,-0.0005905909,0.01367983,0.004633846,-0.1862363,0.2123594,-9.84909,0,0,36.34708,1,1,7746,3872
8630,66974773,2,-0.01024508,0.008299334,0.003575378,-0.1624905,0.2196093,-9.848392,0,0,36.34715,1,1,7746,3872
8633,66976848,2,-0.00336793,0.001581806,0.00180108,-0.1378437,0.2345144,-9.832274999999999,0,0,36.34726,1,1,7746,3872
8637,66979753,2,0.007779235,-0.006693529,-0.0005621341,-0.1089901,0.2546546,-9.812417999999999,0,0,36.34734,1,1,7746,3872
8672,66983073,2,0.0137271,-0.01758998,-0.001282556,-0.06819293,0.2834773,-9.795286000000001,0,0,36.34748,1,1,7746,3872
8675,66984447,2,-0.001675463,-0.01087442,-0.001680805,-0.04042938,0.3017409,-9.810010999999999,0,0,36.34755,1,1,7746,3872
8678,66988621,2,-0.01042621,0.004094501,-0.001593148,-0.02893659,0.308295,-9.817674,0,0,36.34759,1,1,7746,3872
8681,66989865,2,0.001576776,0.01834941,-0.004691628,-0.02479699,0.3053057,-9.808814,0,0,36.34766,1,1,7746,3872
8717,66992829,2,0.01880099,0.01201307,-0.01081875,-0.04530946,0.2854188,-9.801935,0,0,36.34774,1,1,7746,3872
8720,66995962,2,0.01244534,0.007463433,-0.01283844,-0.05775962,0.2777154,-9.80425,0,0,36.34781,1,1,7746,3872
8723,66998183,2,-0.003071946,0.007580196,-0.01083446,-0.1015369,0.2566639,-9.807767,0,0,36.3479,1,1,7746,3872
8726,67000423,2,-0.01111578,0.006079104,-0.006212885,-0.131317,0.2439005,-9.80321,0,0,36.34795,1,1,7746,3872
8761,67002899,2,-0.0003344747,-0.006695734,0.001578546,-0.1737828,0.2250859,-9.814176,0,0,36.34803,1,1,7746,3872
8764,67005172,2,0.004880367,-0.01149857,0.006861947,-0.1973698,0.2160425,-9.845898,0,0,36.34807,1,1,7746,3872
8767,67008278,2,-0.002941678,-0.002332278,0.01141179,-0.2152466,0.2134666,-9.884281,0,0,36.34815,1,1,7746,3872
8770,67010488,2,-0.006262077,0.000203304,0.01070994,-0.2149797,0.2185342,-9.875749000000001,0,0,36.34824,1,1,7746,3872
8805,67013164,2,-0.0005570371,-0.01460886,0.004914797,-0.1988776,0.2367934,-9.837856,0,0,36.34833,1,1,7746,3872
8809,67015490,2,0.001597372,-0.02329291,-0.0005281505,-0.1707089,0.2722437,-9.822307,0,0,36.34841,1,1,7746,3872
8812,67018612,2,-0.0006122401,-0.01158056,-0.002482597,-0.1490987,0.2992536,-9.817461,0,0,36.34846,1,1,7746,3872
8815,67020831,2,-0.0001567615,0.01253387,-0.006837041,-0.121648,0.3317729,-9.791506,0,0,36.34856,1,1,7746,3872
8850,67023646,2,0.000238727,0.0203636,-0.01218044,-0.1079195,0.3503033,-9.746449999999999,0,0,36.34866,1,1,7746,3872
8854,67025946,2,-4.790354e-05,0.0199487,-0.01353404,-0.1061847,0.3529377,-9.730713,0,0,36.34871,1,1,7746,3872
8857,67028761,2,0.004906451,0.01493306,-0.01803988,-0.1047997,0.3511867,-9.70561,0,0,36.34879,1,1,7746,3872
8860,67031068,2,0.01219683,0.008459779000000001,-0.02067473,-0.1039676,0.3283778,-9.694156,0,0,36.34885,1,1,7746,3872
8895,67033983,2,0.008514911,-0.004850605,-0.01877687,-0.1007545,0.2933569,-9.730248,0,0,36.34889,1,1,7746,3872
8898,67036174,2,-0.0006218717,-0.01003213,-0.0144181,-0.09458335,0.2723913,-9.771538,0,0,36.34892,1,1,7746,3872
8903,67039030,2,0.003459448,-0.01527113,-0.009088756999999999,-0.07575788,0.2367815,-9.827836,0,0,36.34899,1,1,7746,3872
8906,67041650,2,0.01184135,-0.02058467,-0.006630679,-0.06048351,0.2118973,-9.861053999999999,0,0,36.34903,1,1,7746,3872
8941,67044222,2,0.004009961,-0.02308582,-0.002255509,-0.04386228,0.1846689,-9.89532,0,0,36.34913,1,1,7746,3872
8945,67046956,2,-0.01385928,-0.005903205,0.000356168,-0.04341678,0.1648705,-9.903795000000001,0,0,36.34919,1,1,7746,3872
8952,67049868,2,-0.01313274,0.007665263,-0.0029437,-0.05334617,0.1529028,-9.892963999999999,0,0,36.34924,1,1,7746,3872
8955,67052223,2,-0.001836838,0.01175505,-0.01164822,-0.09039477,0.1493776,-9.861217999999999,0,0,36.3493,1,1,7746,3872
8990,67055286,2,-0.005014907,0.001634516,-0.01247198,-0.1465752,0.1708071,-9.836441000000001,0,0,36.34937,1,1,7746,3872
8993,67057195,2,-0.01320931,-0.007505953,-0.008130834999999999,-0.1655319,0.1821459,-9.832438,0,0,36.3494,1,1,7746,3872
8996,67059790,2,-0.01855932,-0.01544118,-0.0007297567,-0.219349,0.231567,-9.82565,0,0,36.34943,1,1,7746,3872
9001,67063048,2,-0.01365347,-0.01883482,0.006832697,-0.2472162,0.278613,-9.826779,0,0,36.34945,1,1,7746,3872
9036,67065250,2,0.02392528,-0.01597898,0.01937992,-0.2683953,0.3769148,-9.835775,0,0,36.34949,1,1,7746,3872
9040,67068223,2,0.03022956,-0.009837767000000001,0.02184348,-0.2637593,0.4145167,-9.851660000000001,0,0,36.34951,1,1,7746,3872
9043,67070630,2,0.007585924,0.01111179,0.0196226,-0.2407492,0.4483311,-9.85591,0,0,36.34957,1,1,7746,3872
9046,67078960,2,0.02574624,0.01645622,-0.02190764,-0.1147028,0.3380542,-9.777525000000001,0,0,36.34964,1,1,7746,3872
9081,67081751,2,0.02126703,-0.0007060695,-0.02372903,-0.0562537,0.2604333,-9.796537000000001,0,0,36.34964,1,1,7746,3872
9084,67085043,2,0.01089459,-0.01406713,-0.01802642,-0.01789343,0.2121498,-9.831056,0,0,36.34965,1,1,7746,3872
9087,67086801,2,0.00422592,-0.02717078,-0.004269756,0.01552602,0.1753808,-9.867535999999999,0,0,36.34964,1,1,7746,3872
9090,67089647,2,0.006452978,-0.02689048,0.004851946,0.04230481,0.1494912,-9.897781999999999,0,0,36.34964,1,1,7746,3872
9125,67092252,2,0.004236259,-0.0183203,0.01246586,0.05694667,0.1221238,-9.918808,0,0,36.34962,1,1,7746,3872
9129,67094868,2,-0.01264734,0.01028937,0.0176311,0.02502727,0.1073268,-9.898706000000001,0,0,36.34961,1,1,7746,3872
9132,67097315,2,-0.01957496,0.0278303,0.01396366,-0.02045967,0.1047608,-9.860079000000001,0,0,36.3496,1,1,7746,3872
9135,67099927,2,-0.01357549,0.02453781,0.0008988627,-0.1195534,0.1083216,-9.787276,0,0,36.34958,1,1,7746,3872
9170,67103071,2,-0.01489199,0.003701876,-0.007020624,-0.2390023,0.1363634,-9.742673,0,0,36.34955,1,1,7746,3872
9174,67104738,2,-0.01458014,-0.003869339,-0.004638119,-0.3076102,0.1795518,-9.740156000000001,0,0,36.34954,1,1,7746,3872
9177,67107025,2,0.0006336924,-0.01055432,0.001744822,-0.3583926,0.2374812,-9.759627999999999,0,0,36.34953,1,1,7746,3872
9180,67110261,2,0.0303691,-0.02522054,0.01610925,-0.3941307,0.3380927,-9.830696,0,0,36.34952,1,1,7746,3872
9215,67113443,2,0.01734564,-0.01434395,0.03522257,-0.3792595,0.4461785,-9.908367,0,0,36.34948,1,1,7746,3872
9218,67115368,2,-0.003511759,0.01481839,0.04515525,-0.342981,0.499455,-9.906221,0,0,36.34945,1,1,7746,3872
9221,67117801,2,0.0005939165,0.05143938,0.04072887,-0.2897345,0.5211328,-9.846157,0,0,36.34941,1,1,7746,3872
9225,67120795,2,0.02145836,0.04929397,0.02410764,-0.2242323,0.5060272,-9.750821,0,0,36.34937,1,1,7746,3872
9260,67123244,2,0.02981143,0.03079827,0.002683287,-0.1138906,0.4251959,-9.644201000000001,0,0,36.34933,1,1,7746,3872
9264,67126061,2,0.009520773,0.004798492,-0.02502211,0.002417287,0.3073257,-9.633327,0,0,36.34928,1,1,7746,3872
9267,67128333,2,0.003748802,-0.008268049,-0.03601645,0.07532645,0.2279162,-9.652939999999999,0,0,36.34925,1,1,7746,3872
9270,67131266,2,0.02423715,-0.03369716,-0.03499833,0.1554223,0.1335547,-9.715424000000001,0,0,36.34922,1,1,7746,3872
9305,67133756,2,0.01989198,-0.03974311,-0.01052717,0.1711865,0.09317201999999999,-9.838984,0,0,36.34918,1,1,7746,3872
9309,67136981,2,-0.0106058,0.004973724,0.02049092,0.1115543,0.0935289,-9.951088,0,0,36.34915,1,1,7746,3872
9312,67138983,2,-0.01940394,0.03653407,0.03081848,0.03820759,0.09688956,-9.955152999999999,0,0,36.34913,1,1,7746,3872
9316,67141352,2,-0.02173066,0.02750463,0.02296077,-0.1077372,0.09285602,-9.856619,0,0,36.3491,1,1,7746,3872
9351,67144406,2,-0.02980093,-0.004710148,0.009153034000000001,-0.2139981,0.09032709999999999,-9.769223999999999,0,0,36.34908,1,1,7746,3872
9354,67146253,2,-0.03298555,-0.03427705,-0.01014085,-0.3523108,0.1098553,-9.690493999999999,0,0,36.34905,1,1,7746,3872
9357,67149589,2,-0.0126306,-0.031497,-0.01655125,-0.4154006,0.1442362,-9.685426,0,0,36.34903,1,1,7746,3872
9360,67151343,2,0.01732857,-0.02158192,-0.01127495,-0.4510068,0.2002943,-9.713412999999999,0,0,36.34897,1,1,7746,3872
9399,67154241,2,0.0188318,-0.01851888,-0.00515433,-0.4629523,0.2796501,-9.770099999999999,0,0,36.34892,1,1,7746,3872
9403,67156835,2,0.009044577999999999,0.009548062,0.01879855,-0.4416536,0.4147159,-9.872579999999999,0,0,36.34884,1,1,7746,3872
9406,67159028,2,0.007124077,0.04240379,0.03111952,-0.3916909,0.4863123,-9.898694000000001,0,0,36.34879,1,1,7746,3872
9409,67161824,2,0.00831544,0.05298769,0.02987621,-0.2697894,0.5296271,-9.829109000000001,0,0,36.34871,1,1,7746,3872
9444,67164292,2,-0.006976515,-0.001180604,0.006722654,-0.1182148,0.4790435,-9.714802000000001,0,0,36.34864,1,1,7746,3872
9447,67167263,2,-0.01353385,-0.03336046,-0.01433626,-0.006910737,0.4011781,-9.676098,0,0,36.34859,1,1,7746,3872
9450,67169459,2,0.005397475,-0.03609939,-0.04153873,0.1480866,0.2551467,-9.703614999999999,0,0,36.3485,1,1,7746,3872
9453,67172196,2,0.01971457,-0.02426043,-0.04978423,0.2218723,0.1690465,-9.761400999999999,0,0,36.34843,1,1,7746,3872
9488,67175008,2,0.0170146,-0.01326056,-0.0409301,0.2451629,0.09100901,-9.904925,0,0,36.34829,1,1,7746,3872
9492,67177010,2,0.003461378,0.004257942,-0.02381603,0.1955071,0.07124111,-10.02338,0,0,36.34823,1,1,7746,3872
9496,67179951,2,-0.01728049,0.04094443,0.0002586753,0.05688351,0.07212932,-10.11844,0,0,36.34816,1,1,7746,3872
9499,67182212,2,-0.03136567,0.03305651,0.01057458,-0.0002330567,0.0769239,-10.10929,0,0,36.34811,1,1,7746,3872
9534,67184434,2,-0.04904597,-0.03875246,0.01584757,-0.1884268,0.09447459,-9.992734,0,0,36.34805,1,1,7746,3872
9537,67188182,2,-0.05063846,-0.06158534,0.01526731,-0.3088036,0.1062904,-9.903852000000001,0,0,36.34802,1,1,7746,3872
9540,67189423,2,-0.03835049,-0.06385918,0.009760431,-0.4444796,0.131951,-9.825936,0,0,36.34798,1,1,7746,3872
9543,67193176,2,-0.02271969,-0.02440188,0.004054451,-0.4923227,0.1664654,-9.798603,0,0,36.34796,1,1,7746,3872
9546,67194644,2,0.004269914,0.01758344,-0.001132208,-0.5186315,0.2580113,-9.801715,0,0,36.34793,1,1,7746,3872
9582,67197065,2,0.02456625,0.05037988,-0.001155341,-0.4997795,0.3741065,-9.88374,0,0,36.3479,1,1,7746,3872
9585,67199876,2,0.02309502,0.07684879999999999,0.0001132867,-0.4382841,0.4437341,-9.916198,0,0,36.34787,1,1,7746,3872
9588,67203210,2,-0.004694496,0.05170478,-0.0007944253,-0.2860473,0.5035981,-9.843534,0,0,36.34782,1,1,7746,3872
9591,67205406,2,-0.0242742,-0.01251636,-0.003929537,-0.1637718,0.5002964,-9.766937,0,0,36.3478,1,1,7746,3872
9626,67208249,2,-0.0213055,-0.07257355,-0.009299389,0.03604702,0.4306776,-9.721190999999999,0,0,36.34777,1,1,7746,3872
9630,67210365,2,0.008678244,-0.03563174,-0.01905795,0.1649653,0.3530614,-9.734111,0,0,36.34775,1,1,7746,3872
9633,67213589,2,0.02240627,-0.006027881,-0.02501186,0.2650515,0.2703847,-9.761837,0,0,36.34771,1,1,7746,3872
9636,67215263,2,0.02626444,0.009483891,-0.02784005,0.3100681,0.16375,-9.849834,0,0,36.34764,1,1,7746,3872
9671,67218442,2,0.01847393,0.0288559,-0.02677972,0.2675151,0.1131266,-9.936774,0,0,36.3476,1,1,7746,3872
9674,67220454,2,-0.008539599,0.05994845,-0.02010501,0.1346178,0.07627836,-9.984926,0,0,36.34748,1,1,7746,3872
9677,67223223,2,-0.02543017,0.03811377,-0.01670139,0.009870439999999999,0.07206332999999999,-9.934791000000001,0,0,36.34743,1,1,7746,3872
9680,67225954,2,-0.04355107,-0.05283454,-0.008363944,-0.2051309,0.08883224000000001,-9.844779000000001,0,0,36.34731,1,1,7746,3872
9715,67228598,2,-0.04722504,-0.07918014,0.00836432,-0.3890664,0.1342486,-9.820421,0,0,36.34719,1,1,7746,3872
9719,67231601,2,-0.0398821,-0.04448524,0.01891449,-0.4673277,0.18037,-9.797235000000001,0,0,36.34715,1,1,7746,3872
9722,67233780,2,-0.01075369,0.003632782,0.03054796,-0.5361922,0.2847962,-9.748367,0,0,36.34708,1,1,7746,3872
9725,67235951,2,0.01389625,0.03132143,0.0339812,-0.5581318,0.3663029,-9.754277999999999,0,0,36.34703,1,1,7746,3872
9760,67238840,2,0.02659849,0.09374443,0.02828067,-0.510423,0.4789169,-9.772589,0,0,36.34696,1,1,7746,3872
9763,67240947,2,0.01794851,0.09892967,0.01515999,-0.423087,0.529573,-9.735523000000001,0,0,36.34693,1,1,7746,3872
9768,67244071,2,-0.008758801,0.01236972,-0.0107342,-0.313473,0.5472358,-9.68669,0,0,36.3469,1,1,7746,3872
9771,67245968,2,-0.0165903,-0.02082782,-0.01763995,-0.187246,0.5348349,-9.665656999999999,0,0,36.34687,1,1,7746,3872
9806,67248430,2,-0.007399505,-0.0605377,-0.02711398,0.04022376,0.4772157,-9.687744,0,0,36.34678,1,1,7746,3872
9810,67251097,2,0.02157534,-0.0456772,-0.02505689,0.188975,0.4188071,-9.721202,0,0,36.34674,1,1,7746,3872
9813,67253864,2,0.05039787,-0.01848687,-0.01224515,0.3251298,0.33526,-9.836077,0,0,36.34668,1,1,7746,3872
9820,67256220,2,0.04665927,0.009106171,-0.0002988302,0.3405266,0.2873126,-9.953889,0,0,36.34668,1,1,7746,3872
9855,67259268,2,0.01177887,0.06642894000000001,0.01024034,0.2805839,0.2107883,-10.04197,0,0,36.34669,1,1,7746,3872
9859,67261758,2,-0.02343959,0.04312814,0.002565826,0.1259715,0.13272,-9.943144999999999,0,0,36.3467,1,1,7746,3872
9862,67263864,2,-0.03233217,-0.01639443,-0.007010956,-0.02143734,0.08994257999999999,-9.849769,0,0,36.34669,1,1,7746,3872
9865,67266268,2,-0.02996627,-0.06044121,-0.01271195,-0.1713614,0.06719118,-9.78201,0,0,36.34668,1,1,7746,3872
9902,67269199,2,-0.009113042999999999,-0.06000557,-0.005806833,-0.3590106,0.08350602999999999,-9.723924999999999,0,0,36.34668,1,1,7746,3872
9905,67277917,2,0.02589147,0.07814809,0.04882349,-0.5809999,0.4028108,-9.917773,0,0,36.34672,1,1,7746,3872
9940,67280389,2,0.005211158,0.07137039000000001,0.0312211,-0.4821965,0.4838901,-9.861022,0,0,36.34674,1,1,7746,3872
9943,67283835,2,-0.002371011,0.04185419,0.0203263,-0.3759959,0.495795,-9.786474,0,0,36.34675,1,1,7746,3872
9946,67286186,2,-0.008845169,-0.03803265,-0.01375589,-0.1534009,0.4593575,-9.695152,0,0,36.34676,1,1,7746,3872
9949,67288368,2,0.01250109,-0.05517565,-0.02848798,0.02344534,0.4130866,-9.662458000000001,0,0,36.34678,1,1,7746,3872
9984,67290790,2,0.05461945,-0.04980705,-0.03152442,0.2555927,0.3424029,-9.717257,0,0,36.34681,1,1,7746,3872
9988,67293380,2,0.06450474,-0.03419365,-0.02152695,0.3463748,0.3105192,-9.852316999999999,0,0,36.34681,1,1,7746,3872
9991,67296179,2,0.04433009,0.03402338,0.0002359236,0.3736394,0.2693,-10.10067,0,0,36.34681,1,1,7746,3872
9994,67298375,2,0.0141065,0.07801996,0.009078342999999999,0.3299559,0.2340018,-10.16576,0,0,36.34681,1,1,7746,3872
10029,67301425,2,-0.02375387,0.04149786,0.003399757,0.1692299,0.1719784,-10.05394,0,0,36.34682,1,1,7746,3872
10033,67303816,2,-0.02842843,-0.0323824,-0.006882433,0.01936068,0.1298838,-9.919411999999999,0,0,36.34682,1,1,7746,3872
10037,67305851,2,-0.02298387,-0.08481584,-0.01252482,-0.1303901,0.1019787,-9.800698000000001,0,0,36.34685,1,1,7746,3872
10040,67308467,2,-0.009993655000000001,-0.0807331,-0.005332227,-0.2666082,0.1010926,-9.721313,0,0,36.34688,1,1,7746,3872
10075,67310862,2,-0.000322334,-0.04665402,0.009047505000000001,-0.4436645,0.1590477,-9.708959999999999,0,0,36.34691,1,1,7746,3872
10079,67314596,2,0.02573786,0.02030621,0.03265711,-0.5736743,0.266054,-9.829563,0,0,36.34693,1,1,7746,3872
10082,67317051,2,0.03669747,0.07449289000000001,0.04116204,-0.6056868,0.3358976,-9.916456,0,0,36.34693,1,1,7746,3872
10085,67318906,2,0.01375019,0.103151,0.03263051,-0.5505034,0.4093144,-9.917756000000001,0,0,36.34693,1,1,7746,3872
10120,67321417,2,-0.02372328,0.01891093,0.004883662,-0.3934085,0.4209779,-9.789460999999999,0,0,36.34693,1,1,7746,3872
10123,67323770,2,-0.0278504,-0.04884874,-0.01319057,-0.2376917,0.3971217,-9.695081,0,0,36.34693,1,1,7746,3872
10126,67326630,2,-0.008786936,-0.08171977,-0.0248726,-0.05379747,0.3608092,-9.631829,0,0,36.34693,1,1,7746,3872
10129,67328846,2,0.03252463,-0.06489319,-0.02437853,0.2114661,0.3005712,-9.64981,0,0,36.34693,1,1,7746,3872
10166,67331839,2,0.04860026,-0.01200351,-0.009310739,0.3727869,0.2468756,-9.826803999999999,0,0,36.34694,1,1,7746,3872
10170,67333794,2,0.04104411,0.03693217,-0.001370016,0.3960591,0.2276818,-9.901358999999999,0,0,36.34696,1,1,7746,3872
10173,67335893,2,0.01472305,0.07607994,-0.001442711,0.3816347,0.1613697,-10.05815,0,0,36.34702,1,1,7746,3872
10176,67339054,2,-0.03490346,0.04694913,-0.01600011,0.3037173,0.1185709,-10.04692,0,0,36.34711,1,1,7746,3872
10211,67342253,2,-0.0435555,-0.0254071,-0.0288765,0.1016773,0.06824353,-9.888553999999999,0,0,36.34719,1,1,7746,3872
10214,67343948,2,-0.03368974,-0.08908872,-0.03460213,-0.05401152,0.05023834,-9.763928999999999,0,0,36.34726,1,1,7746,3872
10218,67346384,2,-0.01903242,-0.1000154,-0.0188781,-0.277769,0.08079736999999999,-9.66855,0,0,36.34735,1,1,7746,3872
10221,67349654,2,-0.01460349,-0.05786819,0.003596965,-0.4157983,0.1391829,-9.697455,0,0,36.3474,1,1,7746,3872
10256,67352817,2,0.005003302,0.03575053,0.03463615,-0.5855821,0.2522547,-9.84484,0,0,36.34748,1,1,7746,3872
10260,67354686,2,0.01746693,0.1130018,0.04208201,-0.6519566,0.3443681,-9.943609,0,0,36.3476,1,1,7746,3872
10263,67357001,2,-0.001399947,0.1127406,0.03016382,-0.6223868,0.3828059,-9.909411,0,0,36.34768,1,1,7746,3872
10270,67360066,2,-0.03401965,0.0203121,-0.003426172,-0.4780208,0.3933592,-9.748073,0,0,36.34784,1,1,7746,3872
10305,67363149,2,-0.02758342,-0.07638060000000001,-0.03018029,-0.2331739,0.3577597,-9.617467,0,0,36.34806,1,1,7746,3872
10308,67365774,2,-0.009629455,-0.08616647,-0.03238289,-0.04533144,0.32984,-9.617867,0,0,36.34816,1,1,7746,3872
10311,67367428,2,0.01619902,-0.03275864,-0.01596524,0.2066452,0.2936921,-9.758692999999999,0,0,36.34835,1,1,7746,3872
10315,67370074,2,0.02439202,-0.009067802,-0.008536154000000001,0.2698965,0.2812191,-9.829020999999999,0,0,36.34846,1,1,7746,3872
10350,67372852,2,0.02332834,0.07151984,0.007163774,0.3703178,0.2330391,-10.02574,0,0,36.34869,1,1,7746,3872
10354,67375640,2,0.007879053,0.0803751,0.005603846,0.3641175,0.1960684,-10.08109,0,0,36.34882,1,1,7746,3872
10357,67378344,2,-0.04322302,0.03985544,-0.01119256,0.2576704,0.1478967,-9.984989000000001,0,0,36.34907,1,1,7746,3872
10360,67379816,2,-0.04907635,-0.03515738,-0.02658784,0.1339871,0.1243548,-9.856711000000001,0,0,36.34926,1,1,7746,3872
10395,67382718,2,-0.02729832,-0.1133241,-0.03227671,-0.08997057,0.1251202,-9.724850999999999,0,0,36.34954,1,1,7746,3872
10398,67385211,2,-0.0177121,-0.0969072,-0.01877892,-0.2425646,0.1656712,-9.72472,0,0,36.34967,1,1,7746,3872
10401,67388227,2,-0.005964846,-0.005570074,0.01665113,-0.454431,0.2651273,-9.829727,0,0,36.34993,1,1,7746,3872
10404,67390459,2,0.01200797,0.05850572,0.03473964,-0.5715464,0.3314203,-9.92867,0,0,36.35005,1,1,7746,3872
10439,67392996,2,0.02078963,0.1183669,0.0391522,-0.6677012,0.4043557,-10.01088,0,0,36.35032,1,1,7746,3872
10443,67395572,2,-0.01382284,0.08759922000000001,0.01888402,-0.6258854,0.4298519,-9.913499,0,0,36.35059,1,1,7746,3872
10446,67399185,2,-0.02876316,0.01281991,-0.002121527,-0.5816694,0.4247921,-9.846171999999999,0,0,36.35072,1,1,7746,3872
10449,67400424,2,-0.01604029,-0.08905393,-0.0223578,-0.2812719,0.3540731,-9.616180999999999,0,0,36.35099,1,1,7746,3872
10484,67403276,2,-0.001654522,-0.09532855,-0.02026866,-0.186612,0.3328078,-9.607258,0,0,36.35121,1,1,7746,3872
10488,67405619,2,0.009822549,-0.05289789,-0.009241922,0.08860841,0.276114,-9.717985000000001,0,0,36.35144,1,1,7746,3872
10491,67409229,2,0.02502474,0.006784913,0.003113464,0.2302651,0.2400257,-9.868451,0,0,36.35168,1,1,7746,3872
10494,67411300,2,0.03830034,0.07624406,0.01044542,0.3332325,0.1812712,-10.07857,0,0,36.352,1,1,7746,3872
10529,67413858,2,-0.007091891,0.07950277,-0.0003430827,0.3114423,0.138721,-10.10049,0,0,36.35233,1,1,7746,3872
10532,67416440,2,-0.04999023,-0.01709532,-0.0215813,0.1826417,0.114953,-9.895519999999999,0,0,36.35257,1,1,7746,3872
10535,67419443,2,-0.0457083,-0.09540679000000001,-0.02975331,0.05294868,0.1110932,-9.747070000000001,0,0,36.35274,1,1,7746,3872
10538,67421434,2,-0.0237522,-0.1206459,-0.01758107,-0.1686609,0.1611215,-9.662088000000001,0,0,36.35307,1,1,7746,3872
10573,67424306,2,-0.004907459,-0.06761117,0.004718498,-0.3172795,0.2296135,-9.70773,0,0,36.35334,1,1,7746,3872
10577,67426268,2,0.03127946,0.04268253,0.0376366,-0.5184033,0.3471232,-9.863241,0,0,36.3536,1,1,7746,3872
10580,67429307,2,0.04405058,0.09910362,0.04887997,-0.6179917,0.4182662,-9.948155,0,0,36.35378,1,1,7746,3872
10583,67431936,2,0.01268229,0.115344,0.04274483,-0.6683564,0.4749007,-9.957604999999999,0,0,36.35411,1,1,7746,3872
10618,67434747,2,-0.01810418,0.06462643999999999,0.02487481,-0.6300583,0.5059044,-9.810459,0,0,36.35437,1,1,7746,3872
10621,67437431,2,-0.02666581,-0.01414367,0.002142666,-0.5291867,0.4791541,-9.669924999999999,0,0,36.35461,1,1,7746,3872
10624,67439357,2,-0.004855708,-0.09391963,-0.02042286,-0.2857436,0.4009219,-9.550613999999999,0,0,36.35495,1,1,7746,3872
10627,67441847,2,0.01468403,-0.08787884,-0.01857818,-0.09692228,0.3477183,-9.589677999999999,0,0,36.35511,1,1,7746,3872
10662,67444899,2,0.04625739,-0.01625378,-0.0001658869,0.1499557,0.2744428,-9.802123,0,0,36.35535,1,1,7746,3872
10666,67446981,2,0.05910654,0.04128291,0.01068709,0.2592715,0.2284089,-9.979945000000001,0,0,36.35551,1,1,7746,3872
10671,67449965,2,0.02666948,0.08944868,0.01386565,0.3205047,0.1692147,-10.11243,0,0,36.35585,1,1,7746,3872
10674,67452525,2,-0.01813546,0.06802155999999999,0.006051095,0.2930742,0.1391415,-10.05051,0,0,36.35608,1,1,7746,3872
10711,67455811,2,-0.04427475,-0.04056432,-0.01557969,0.1687626,0.0950218,-9.806561,0,0,36.35638,1,1,7746,3872
10715,67457846,2,-0.02796648,-0.1228865,-0.02575927,-0.02203325,0.08163893999999999,-9.621790000000001,0,0,36.35661,1,1,7746,3872
10722,67463609,2,0.01352978,-0.02073004,0.01417817,-0.3186696,0.1800797,-9.681965,0,0,36.357,1,1,7746,3872
10757,67465854,2,0.03949681,0.05168762,0.03159066,-0.5208037,0.2948783,-9.871765,0,0,36.35722,1,1,7746,3872
10760,67468837,2,0.03547452,0.1164472,0.04200777,-0.6399497,0.4052567,-9.961548000000001,0,0,36.35743,1,1,7746,3872
10763,67471588,2,0.001339739,0.1003962,0.03566294,-0.6510408,0.455044,-9.903644,0,0,36.35757,1,1,7746,3872
10766,67473908,2,-0.02863664,0.001164768,0.007162221,-0.5518322,0.4551377,-9.719763,0,0,36.35778,1,1,7746,3872
10801,67479737,2,0.0162822,-0.0685494,-0.02450035,-0.04626347,0.3132487,-9.655923,0,0,36.35825,1,1,7746,3872
10805,67482878,2,0.04252025,-0.02752064,-0.01489267,0.1173953,0.2637195,-9.791589999999999,0,0,36.35839,1,1,7746,3872
10808,67484637,2,0.05522836,0.04814219,0.001639698,0.2802378,0.1940941,-10.0437,0,0,36.35865,1,1,7746,3872
10843,67487068,2,0.0004702185,0.08754067,0.007331642,0.3238657,0.1420797,-10.15434,0,0,36.35884,1,1,7746,3872
10846,67490045,2,-0.03793864,0.05799568,-0.001139085,0.2854599,0.1098319,-10.08937,0,0,36.35896,1,1,7746,3872
10850,67492196,2,-0.04663531,-0.009889904999999999,-0.0172314,0.1996778,0.07386442,-9.953900000000001,0,0,36.35913,1,1,7746,3872
10853,67494994,2,-0.03466649,-0.09688181999999999,-0.03404004,0.08421455,0.04826171,-9.816484000000001,0,0,36.35937,1,1,7746,3872
10888,67497271,2,-0.03135071,-0.1034396,-0.02939466,-0.1238012,0.07453654,-9.707753,0,0,36.35957,1,1,7746,3872
10891,67499996,2,-0.01655858,-0.06885347999999999,-0.01269259,-0.2772765,0.1332675,-9.731679,0,0,36.3597,1,1,7746,3872
10894,67502831,2,0.02751931,0.03046929,0.01713207,-0.4952588,0.2511826,-9.895205000000001,0,0,36.35995,1,1,7746,3872
10898,67506287,2,0.03834543,0.09811053,0.03198421,-0.6014009,0.3365734,-9.997469000000001,0,0,36.36007,1,1,7746,3872
10901,67508285,2,0.001156165,0.1230405,0.03533676,-0.6633549,0.437294,-9.980596999999999,0,0,36.36029,1,1,7746,3872
10936,67510651,2,-0.03063826,0.03430581,0.008037018999999999,-0.5859325,0.4488733,-9.803343999999999,0,0,36.3605,1,1,7746,3872
10940,67513449,2,-0.02926859,-0.03383152,-0.01616455,-0.4546927,0.4093506,-9.687695,0,0,36.36059,1,1,7746,3872
10943,67516359,2,-0.01679088,-0.07344075999999999,-0.03411203,-0.1815092,0.3338509,-9.609961999999999,0,0,36.36074,1,1,7746,3872
10946,67519071,2,0.006518491,-0.05557955,-0.02981473,0.00415617,0.288497,-9.656723,0,0,36.36089,1,1,7746,3872
10981,67521431,2,0.06318283,0.03672493,-0.005589614,0.2792157,0.2000948,-9.958163000000001,0,0,36.36113,1,1,7746,3872
10984,67524143,2,0.03744452,0.07911298,0.003621281,0.3416051,0.1615643,-10.08906,0,0,36.36122,1,1,7746,3872
10987,67526798,2,-0.04580378,0.0708212,0.002099195,0.346248,0.1308385,-10.11524,0,0,36.36139,1,1,7746,3872
10990,67529779,2,-0.0633471,0.00977865,-0.01157067,0.2972526,0.0988106,-10.02537,0,0,36.36152,1,1,7746,3872
11025,67533043,2,-0.04808173,-0.05980564,-0.02792053,0.1516457,0.04644252,-9.806063999999999,0,0,36.36166,1,1,7746,3872
11029,67534894,2,-0.03186285,-0.1019251,-0.03458311,-0.04523473,0.05701451,-9.653192000000001,0,0,36.36179,1,1,7746,3872
11032,67537184,2,-0.02323345,-0.07676473,-0.02144143,-0.1977712,0.1106678,-9.642875,0,0,36.36193,1,1,7746,3872
11035,67539874,2,0.01374489,0.01226191,0.01009952,-0.4218647,0.2290131,-9.768573999999999,0,0,36.36208,1,1,7746,3872
11070,67542858,2,0.02864304,0.100013,0.03301834,-0.5833286,0.3691776,-9.908780999999999,0,0,36.36229,1,1,7746,3872
11073,67545096,2,0.007875892000000001,0.1134975,0.03627518,-0.632647,0.4505278,-9.910698999999999,0,0,36.3624,1,1,7746,3872
11076,67547168,2,-0.01617871,0.07517647,0.02609045,-0.6191428,0.4921311,-9.837878999999999,0,0,36.3625,1,1,7746,3872
11079,67549904,2,-0.02905739,-0.02383594,-0.003947725,-0.472613,0.47213,-9.694452,0,0,36.36265,1,1,7746,3872
11114,67552211,2,-0.02547476,-0.07130254,-0.0238063,-0.2164526,0.4135962,-9.595457,0,0,36.36284,1,1,7746,3872
11118,67555060,2,-0.0004958818,-0.05995254,-0.02221105,-0.03054119,0.3694974,-9.595209000000001,0,0,36.36293,1,1,7746,3872
11121,67557828,2,0.04275193,-0.02476053,-0.01377494,0.1375699,0.3186987,-9.679104000000001,0,0,36.36303,1,1,7746,3872
11124,67559642,2,0.06839428,0.04256054,0.002174999,0.2677034,0.2673953,-9.827854,0,0,36.36317,1,1,7746,3872
11159,67562064,2,0.05295798,0.06011291,0.006508907,0.3453985,0.2252542,-9.972356,0,0,36.36327,1,1,7746,3872
11164,67564433,2,-0.02387099,0.05981437,0.008026014999999999,0.3546961,0.1728532,-10.03072,0,0,36.36343,1,1,7746,3872
11171,67567953,2,-0.04680944,0.00677509,-0.004181153,0.2985072,0.1317798,-9.96171,0,0,36.36353,1,1,7746,3872
11174,67570216,2,-0.03571025,-0.08361252,-0.02500709,0.1476356,0.08580013,-9.805605,0,0,36.36369,1,1,7746,3872
11209,67572755,2,-0.03194312,-0.09536574,-0.0188615,-0.0603839,0.1213897,-9.694443,0,0,36.36384,1,1,7746,3872
11212,67575178,2,-0.01393394,-0.05717491,-0.001173992,-0.2182654,0.181135,-9.68572,0,0,36.36393,1,1,7746,3872
11215,67577494,2,0.03654378,0.0292694,0.0256279,-0.4397346,0.2909592,-9.786735,0,0,36.36406,1,1,7746,3872
11218,67580436,2,0.04206999,0.07910103,0.03744088,-0.5504305,0.3725434,-9.868417000000001,0,0,36.36415,1,1,7746,3872
11253,67583452,2,0.00332072,0.08847259,0.03862067,-0.6228169,0.4703128,-9.871143999999999,0,0,36.36428,1,1,7746,3872
11258,67585260,2,-0.01652778,0.01053797,0.0142097,-0.552009,0.47715,-9.774311000000001,0,0,36.36441,1,1,7746,3872
11261,67588144,2,-0.01651624,-0.04343655,-0.004927518,-0.426863,0.4421956,-9.714866000000001,0,0,36.36451,1,1,7746,3872
11264,67590417,2,-0.01468976,-0.0636129,-0.01483217,-0.259484,0.4018035,-9.672551,0,0,36.3647,1,1,7746,3872
11299,67593603,2,0.01231713,-0.03955465,-0.008533104,-0.07750952,0.359899,-9.661536,0,0,36.36478,1,1,7746,3872
11302,67595954,2,0.05472363,-0.002731177,0.001226784,0.1647989,0.2833407,-9.767621999999999,0,0,36.3649,1,1,7746,3872
11305,67598166,2,0.07307872999999999,0.0336174,0.009788544999999999,0.2799444,0.232737,-9.907450000000001,0,0,36.36498,1,1,7746,3872
11308,67600385,2,0.01516206,0.05960733,0.01386871,0.3553797,0.173023,-10.06246,0,0,36.36516,1,1,7746,3872
11343,67603041,2,-0.03332167,0.03728867,0.007249839,0.3379196,0.1340371,-10.05651,0,0,36.36523,1,1,7746,3872
11347,67605443,2,-0.04150645,-0.04182137,-0.01547488,0.2301361,0.06936575,-9.929062999999999,0,0,36.36534,1,1,7746,3872
11350,67609065,2,-0.03017317,-0.0810203,-0.02655334,0.1178059,0.05138915,-9.831200000000001,0,0,36.36541,1,1,7746,3872
11353,67611654,2,-0.01977421,-0.07253832,-0.01691966,-0.1040914,0.1004715,-9.743919999999999,0,0,36.36554,1,1,7746,3872
11356,67613251,2,0.02127128,-0.001717615,0.0111334,-0.3514091,0.2040624,-9.804549,0,0,36.36563,1,1,7746,3872
11392,67616018,2,0.04231273,0.05298671,0.02777565,-0.4918142,0.288258,-9.895462999999999,0,0,36.36569,1,1,7746,3872
11395,67618670,2,0.01709703,0.09287821,0.03939731,-0.6233997999999999,0.4190274,-9.948017999999999,0,0,36.36579,1,1,7746,3872
11398,67621776,2,-0.01069936,0.07041840000000001,0.03429699,-0.6397657,0.452328,-9.927225999999999,0,0,36.36584,1,1,7746,3872
11401,67623629,2,-0.01598041,-0.01062552,0.009484351,-0.5888495,0.4897757,-9.789299,0,0,36.36596,1,1,7746,3872
11436,67626267,2,-0.01227227,-0.03400954,0.0004321446,-0.4744027,0.4699385,-9.695512000000001,0,0,36.36602,1,1,7746,3872
11439,67628557,2,-0.008215718,-0.05626602,-0.01281842,-0.2270561,0.4205436,-9.614207,0,0,36.36612,1,1,7746,3872
11442,67630877,2,0.01016563,-0.03401201,-0.009543065,-0.05242789,0.3796525,-9.637555000000001,0,0,36.36617,1,1,7746,3872
11445,67633628,2,0.0658839,0.02569908,-0.001396039,0.1678901,0.2976812,-9.822469999999999,0,0,36.36625,1,1,7746,3872
11481,67636406,2,0.06814544,0.05840531,0.002058778,0.2693368,0.2447297,-9.974475,0,0,36.3663,1,1,7746,3872
11484,67639199,2,-0.004460908,0.05612427,0.003241273,0.3281904,0.1858192,-10.0662,0,0,36.36637,1,1,7746,3872
11488,67641040,2,-0.04207295,0.01254833,-0.003983813,0.306444,0.1440235,-10.00395,0,0,36.36641,1,1,7746,3872
11491,67643861,2,-0.03719399,-0.06988142999999999,-0.02352881,0.2008873,0.07593424,-9.846762999999999,0,0,36.36649,1,1,7746,3872
11526,67646012,2,-0.03105729,-0.0909633,-0.02838536,0.08770195,0.06459643,-9.763277,0,0,36.36658,1,1,7746,3872
11529,67649566,2,-0.0140489,-0.04903871,-0.0116167,-0.1365045,0.1169468,-9.729424,0,0,36.36668,1,1,7746,3872
11532,67651515,2,0.02119433,0.006176712,0.005413467,-0.2961529,0.1709309,-9.786483,0,0,36.36674,1,1,7746,3872
11535,67653744,2,0.04056636,0.07265496,0.02427705,-0.4368944,0.2367359,-9.872477999999999,0,0,36.36684,1,1,7746,3872
11571,67656046,2,0.008018437999999999,0.08213034,0.03019917,-0.5461882,0.3165141,-9.924284999999999,0,0,36.36691,1,1,7746,3872
11574,67659168,2,-0.02453432,0.05728661,0.02597894,-0.61342,0.4119307,-9.854047,0,0,36.367,1,1,7746,3872
11577,67661646,2,-0.0261158,0.007472601,0.01079338,-0.5727407,0.4249423,-9.752889,0,0,36.36707,1,1,7746,3872
11582,67664370,2,-0.006596624,-0.05583816,-0.01585133,-0.4013116,0.388741,-9.649827,0,0,36.36716,1,1,7746,3872
11621,67673467,2,0.06844384000000001,0.04867763,-0.002416297,0.2402059,0.2231053,-9.921604,0,0,36.36743,1,1,7746,3872
11625,67675800,2,-0.006726816,0.03809787,0.0001116206,0.303577,0.1762156,-10.00493,0,0,36.36752,1,1,7746,3872
11660,67678611,2,-0.04916074,0.0006618589,-0.006377115,0.2873061,0.1364065,-9.949983,0,0,36.36766,1,1,7746,3872
11664,67681373,2,-0.0422667,-0.07384402,-0.02643233,0.1897045,0.06458198,-9.80841,0,0,36.36773,1,1,7746,3872
11667,67683469,2,-0.03461972,-0.09515531000000001,-0.03182878,0.1379724,0.0529999,-9.772354,0,0,36.3678,1,1,7746,3872
11671,67685815,2,-0.02384612,-0.05119386,-0.01442342,-0.06696855,0.08514289999999999,-9.726354000000001,0,0,36.36791,1,1,7746,3872
11706,67688295,2,-0.008728971,-0.0231465,-0.004859111,-0.2249869,0.1381352,-9.754617,0,0,36.36797,1,1,7746,3872
11709,67691168,2,0.03578842,0.05439215,0.01858436,-0.4416216,0.231994,-9.851798,0,0,36.36805,1,1,7746,3872
11712,67694011,2,0.02162867,0.07578364999999999,0.0262071,-0.5519638,0.3096282,-9.897297999999999,0,0,36.3681,1,1,7746,3872
11715,67695444,2,-0.03389383,0.04885144,0.02284536,-0.6270704,0.4108889,-9.841099,0,0,36.36818,1,1,7746,3872
11751,67698318,2,-0.03596652,0.00111652,0.008862801,-0.5936396,0.4320847,-9.752235000000001,0,0,36.36824,1,1,7746,3872
11754,67700844,2,-0.01052533,-0.06197083,-0.0141459,-0.433792,0.4124594,-9.670241000000001,0,0,36.36834,1,1,7746,3872
11757,67703829,2,-0.01200686,-0.06296722,-0.01692908,-0.2863568,0.3961872,-9.679277000000001,0,0,36.3684,1,1,7746,3872
11761,67706575,2,0.007357422,-0.0009978089999999999,-0.002357596,-0.05375276,0.3520497,-9.776068,0,0,36.3685,1,1,7746,3872
11796,67709029,2,0.05360918,0.0578321,0.005853645,0.1481643,0.2690775,-9.916831,0,0,36.3686,1,1,7746,3872
11799,67711819,2,0.01948028,0.04437593,0.0009773715000000001,0.2601878,0.1943186,-10.0062,0,0,36.36871,1,1,7746,3872
11802,67714285,2,-0.02924098,0.01045181,-0.00773549,0.2746998,0.148526,-9.995134,0,0,36.36881,1,1,7746,3872
11805,67717410,2,-0.04690361,-0.04866648,-0.02740289,0.2496342,0.09847354,-9.939116,0,0,36.36889,1,1,7746,3872
11840,67720734,2,-0.03190334,-0.07829629,-0.03503947,0.1352514,0.04923865,-9.845986999999999,0,0,36.36895,1,1,7746,3872
11843,67722637,2,-0.02317309,-0.06566001,-0.01960959,-0.07472222000000001,0.08630113,-9.820183999999999,0,0,36.36903,1,1,7746,3872
11846,67724854,2,-0.008577637000000001,-0.01292164,0.002704179,-0.2408808,0.1443794,-9.846405000000001,0,0,36.36908,1,1,7746,3872
11850,67728198,2,0.01914364,0.06756450999999999,0.02986912,-0.4694602,0.2406089,-9.895217000000001,0,0,36.36915,1,1,7746,3872
11885,67731234,2,-0.00228313,0.06993833000000001,0.03468825,-0.6317235,0.3427945,-9.891379000000001,0,0,36.36921,1,1,7746,3872
11888,67733229,2,-0.02403215,0.04219025,0.02557592,-0.6733209999999999,0.3925943,-9.841841000000001,0,0,36.36927,1,1,7746,3872
11891,67735449,2,-0.01729124,-0.005033016,-0.0003965084,-0.6046019,0.4142067,-9.74891,0,0,36.36935,1,1,7746,3872
11894,67738695,2,-0.005687747,-0.03002458,-0.01432639,-0.4906432,0.4107772,-9.711771000000001,0,0,36.3694,1,1,7746,3872
11929,67740845,2,-0.0005859712,-0.02886474,-0.01094611,-0.2752745,0.4082594,-9.722873999999999,0,0,36.36948,1,1,7746,3872
11932,67743789,2,0.03270582,0.03031656,0.009472826,-0.04213588,0.3792525,-9.829548000000001,0,0,36.36956,1,1,7746,3872
11935,67746656,2,0.05153699,0.06190695,0.01754059,0.0998214,0.3405258,-9.911257000000001,0,0,36.36965,1,1,7746,3872
11939,67748896,2,0.02131595,0.04364441,0.01543639,0.2033672,0.2953427,-9.966398999999999,0,0,36.36974,1,1,7746,3872
11974,67751826,2,-0.01653094,0.009775255,0.004356024,0.2714452,0.2119108,-9.962933,0,0,36.36984,1,1,7746,3872
11977,67753899,2,-0.03383722,-0.0208224,-0.01266462,0.2684903,0.1479293,-9.907,0,0,36.36992,1,1,7746,3872
11980,67755866,2,-0.0274995,-0.04716006,-0.0275275,0.2253233,0.09733542000000001,-9.832064000000001,0,0,36.36999,1,1,7746,3872
11984,67759202,2,-0.009164726,-0.06797834,-0.02849495,0.05900212,0.09115761,-9.763356,0,0,36.37009,1,1,7746,3872
12019,67761299,2,0.013353,-0.01263235,0.0007748383,-0.1885007,0.1660636,-9.805189,0,0,36.37018,1,1,7746,3872
12022,67764426,2,0.02677248,0.04857717,0.0249376,-0.3484595,0.2355705,-9.849038999999999,0,0,36.37024,1,1,7746,3872
12025,67766805,2,0.01260046,0.07831758,0.04496879,-0.5431104,0.3426744,-9.846503999999999,0,0,36.37032,1,1,7746,3872
12028,67769004,2,-0.008844543999999999,0.04840738,0.04212014,-0.6237796,0.3948389,-9.792527,0,0,36.37038,1,1,7746,3872
12064,67771965,2,-0.01045256,-0.006060076,0.01635907,-0.6178078,0.4257155,-9.694675,0,0,36.37046,1,1,7746,3872
12067,67774226,2,0.005367808,-0.02691428,-0.002893112,-0.5283781,0.4236194,-9.652596000000001,0,0,36.37053,1,1,7746,3872
12074,67777279,2,0.01714687,-0.03379078,-0.0113668,-0.3273433,0.4139309,-9.64504,0,0,36.3706,1,1,7746,3872
12078,67778981,2,0.02611543,-0.01213848,-0.002033996,-0.2523877,0.4082829,-9.663776,0,0,36.37065,1,1,7746,3872
12113,67781277,2,0.04569262,0.04669809,0.01531897,-0.01503231,0.3665942,-9.77994,0,0,36.37072,1,1,7746,3872
12116,67784441,2,0.04506634,0.05844081,0.01810477,0.1353941,0.3218285,-9.86158,0,0,36.37077,1,1,7746,3872
12119,67786394,2,0.0167308,0.03444241,0.01249776,0.2929528,0.2388662,-9.918825,0,0,36.37085,1,1,7746,3872
12122,67789454,2,-0.004495658,-0.009420225000000001,-0.00238286,0.3382379,0.167819,-9.91408,0,0,36.3709,1,1,7746,3872
12157,67792049,2,-0.01987391,-0.05498393,-0.03033,0.3267583,0.06805149000000001,-9.884050999999999,0,0,36.37101,1,1,7746,3872
12160,67794288,2,-0.02132426,-0.0702709,-0.03702423,0.2015153,0.04015838,-9.838615000000001,0,0,36.3711,1,1,7746,3872
12163,67797630,2,-0.01023764,-0.0603628,-0.02226271,0.05022485,0.06769654,-9.834216,0,0,36.37116,1,1,7746,3872
12167,67799289,2,0.01386255,0.005177763,0.01420292,-0.2143424,0.153029,-9.891443000000001,0,0,36.37126,1,1,7746,3872
12202,67802598,2,0.01387567,0.05199155,0.03393681,-0.3770344,0.2273443,-9.926170000000001,0,0,36.37132,1,1,7746,3872
12205,67804278,2,-0.00733527,0.05607238,0.03951897,-0.5633283,0.3293208,-9.89926,0,0,36.37142,1,1,7746,3872
12208,67807021,2,-0.01449501,0.02258811,0.02657245,-0.6266295,0.3689671,-9.839187000000001,0,0,36.37149,1,1,7746,3872
12212,67809883,2,-0.002701349,-0.01980216,-0.003872116,-0.5939385,0.3962284,-9.762945,0,0,36.37164,1,1,7746,3872
12247,67812269,2,0.01035508,-0.03550532,-0.01920577,-0.4966185,0.4097108,-9.736774,0,0,36.37176,1,1,7746,3872
12250,67815645,2,0.01433799,-0.03497987,-0.01737057,-0.3678698,0.4200396,-9.739454,0,0,36.37183,1,1,7746,3872
12253,67817345,2,0.03147897,-0.0006033063,0.003248531,-0.1428624,0.4084352,-9.824986000000001,0,0,36.37194,1,1,7746,3872
12258,67820234,2,0.03599053,0.03631016,0.017181,0.01718076,0.3771015,-9.901294,0,0,36.37199,1,1,7746,3872
12295,67823900,2,0.01655184,0.04648103,0.01887829,0.220597,0.2972629,-9.962913,0,0,36.37207,1,1,7746,3872
12299,67825788,2,-0.008065877000000001,-0.001867788,-0.00576567,0.327563,0.1779508,-9.953967,0,0,36.37214,1,1,7746,3872
12302,67829148,2,-0.01717528,-0.02935263,-0.02784193,0.3403528,0.09852113999999999,-9.929663,0,0,36.37218,1,1,7746,3872
12305,67830375,2,-0.02383702,-0.05271687,-0.04758922,0.2689811,0.03287541,-9.872719999999999,0,0,36.37224,1,1,7746,3872
12340,67833650,2,-0.01786128,-0.06403397,-0.04286163,0.1512579,0.03625763,-9.846819,0,0,36.37228,1,1,7746,3872
12343,67835659,2,0.002342375,-0.03246858,-0.01151967,-0.09788852000000001,0.09872787,-9.894826,0,0,36.37235,1,1,7746,3872
12346,67837874,2,0.002323143,0.02195969,0.01503651,-0.2689777,0.1667068,-9.949750999999999,0,0,36.37239,1,1,7746,3872
12349,67841156,2,-0.02176181,0.06816137999999999,0.03810664,-0.4197168,0.2405493,-9.959540000000001,0,0,36.37248,1,1,7746,3872
12384,67843797,2,-0.02695679,0.03308604,0.02473751,-0.5840336,0.3227955,-9.864065999999999,0,0,36.37259,1,1,7746,3872
12387,67846440,2,-0.01334431,0.005034245,0.003730027,-0.6287101,0.3502836,-9.775914999999999,0,0,36.37265,1,1,7746,3872
12390,67849049,2,-0.002392462,-0.009621500999999999,-0.01504393,-0.5705315,0.3730804,-9.683963,0,0,36.37276,1,1,7746,3872
12393,67851741,2,0.001613657,-0.01907849,-0.02320146,-0.4699688,0.3870878,-9.663178,0,0,36.37286,1,1,7746,3872
12428,67854001,2,0.01389467,-0.01481176,-0.01151046,-0.2757801,0.3948797,-9.721711000000001,0,0,36.37295,1,1,7746,3872
12431,67856712,2,0.02629291,0.03438271,0.01232054,-0.04410898,0.369149,-9.854514999999999,0,0,36.37302,1,1,7746,3872
12434,67859858,2,0.01519701,0.05670931,0.01979553,0.1077018,0.3315408,-9.915015,0,0,36.37309,1,1,7746,3872
12437,67862235,2,-0.01148252,0.02359647,0.00777423,0.2675387,0.2355768,-9.921865,0,0,36.37318,1,1,7746,3872
12472,67864653,2,-0.02256661,-0.02388795,-0.02329619,0.3191938,0.114508,-9.893985000000001,0,0,36.37325,1,1,7746,3872
12476,67867186,2,-0.02778408,-0.03197749,-0.04116861,0.2946944,0.05681066,-9.868866000000001,0,0,36.37331,1,1,7746,3872
12479,67869918,2,-0.02651003,-0.04000819,-0.04330727,0.1536237,0.04092031,-9.815617,0,0,36.37339,1,1,7746,3872
12486,67873010,2,-0.009856138,-0.03908019,-0.02653191,0.08017443,0.05334321,-9.807658999999999,0,0,36.37343,1,1,7746,3872
12521,67878882,2,-0.02617877,0.05646307,0.03856847,-0.4642242,0.2816131,-9.879994999999999,0,0,36.3736,1,1,7746,3872
12528,67881278,2,-0.04011422,0.04743305,0.03825878,-0.5636668,0.3429468,-9.824312000000001,0,0,36.37369,1,1,7746,3872
12531,67883800,2,-0.01604942,0.007586021,0.01398259,-0.6126612,0.3873767,-9.723414,0,0,36.37378,1,1,7746,3872
12566,67886619,2,0.001626677,-0.009840843,-0.01079354,-0.5211936,0.4086767,-9.661975999999999,0,0,36.37388,1,1,7746,3872
12569,67889031,2,0.0005317045,-0.01541601,-0.01367851,-0.4106804,0.4202029,-9.651987999999999,0,0,36.37393,1,1,7746,3872
12572,67894354,2,0.02916322,0.02251248,0.01308542,-0.04187347,0.3872621,-9.803117,0,0,36.37407,1,1,7746,3872
12608,67897205,2,0.01602462,0.0424082,0.02040105,0.1883814,0.3279182,-9.905885,0,0,36.37415,1,1,7746,3872
12611,67899365,2,-0.00520996,0.01885762,0.01268801,0.2966872,0.2634611,-9.925096,0,0,36.37418,1,1,7746,3872
12614,67902058,2,-0.02232911,-0.02733124,-0.01299139,0.3669124,0.143551,-9.90306,0,0,36.37428,1,1,7746,3872
12617,67904667,2,-0.02672513,-0.0434891,-0.02960227,0.3508884,0.08033748,-9.870041000000001,0,0,36.37433,1,1,7746,3872
12653,67906867,2,-0.02668734,-0.05380191,-0.03575715,0.272735,0.05151628,-9.833482,0,0,36.37442,1,1,7746,3872
12656,67910235,2,-0.005478385,-0.04737369,-0.01936087,0.05044611,0.07309372,-9.831875,0,0,36.3745,1,1,7746,3872
12659,67912046,2,0.01269538,-0.01411106,0.003012084,-0.1309525,0.1214009,-9.87641,0,0,36.37456,1,1,7746,3872
12662,67914860,2,0.001631334,0.04357359,0.0326876,-0.3854122,0.2222208,-9.920137,0,0,36.37464,1,1,7746,3872
12697,67917646,2,-0.03083581,0.03767003,0.03733792,-0.5728306,0.3194797,-9.849826999999999,0,0,36.37472,1,1,7746,3872
12700,67919809,2,-0.02614415,0.006013677,0.02557821,-0.6340789999999999,0.3616809,-9.755087,0,0,36.37477,1,1,7746,3872
12703,67923294,2,-0.006156594,-0.02144543,0.008874422,-0.6280118,0.3873166,-9.671293,0,0,36.37483,1,1,7746,3872
12706,67924926,2,0.01009541,-0.03715638,-0.007165037,-0.5136246,0.4180282,-9.638947999999999,0,0,36.3749,1,1,7746,3872
12742,67928190,2,0.0199238,-0.01622582,0.000354663,-0.3242408,0.4320455,-9.742255,0,0,36.37501,1,1,7746,3872
12745,67929922,2,0.03089689,0.02034537,0.01265485,-0.1687728,0.4181838,-9.846702000000001,0,0,36.37505,1,1,7746,3872
12748,67932019,2,0.03302005,0.05249722,0.02083959,-0.003361047,0.38673,-9.926057999999999,0,0,36.37511,1,1,7746,3872
12751,67935370,2,0.009551927,0.03415827,0.0167303,0.1491552,0.3406239,-9.950768999999999,0,0,36.37518,1,1,7746,3872
12786,67937666,2,-0.01087686,-0.03144488,-0.006959521,0.3051444,0.2415758,-9.907268999999999,0,0,36.37525,1,1,7746,3872
12790,67941064,2,-0.01336126,-0.04677914,-0.0163438,0.3497495,0.1685436,-9.862707,0,0,36.3753,1,1,7746,3872
12793,67942889,2,-0.01507071,-0.06355518,-0.03443268,0.3188311,0.09699112999999999,-9.818954,0,0,36.37539,1,1,7746,3872
12796,67945819,2,-0.008603421,-0.06040004,-0.03281298,0.2204123,0.0885063,-9.831058000000001,0,0,36.37548,1,1,7746,3872
12831,67948225,2,0.01363348,-0.01834409,-0.01004784,-0.018916,0.1293613,-9.920904,0,0,36.37556,1,1,7746,3872
12834,67950853,2,0.01433435,0.05325795,0.01979674,-0.2840613,0.2151059,-9.978111999999999,0,0,36.37566,1,1,7746,3872
12837,67953292,2,-0.005648524,0.06923033000000001,0.03060715,-0.4409513,0.2807071,-9.94623,0,0,36.37572,1,1,7746,3872
12840,67956246,2,-0.02481362,0.02295261,0.02502334,-0.6036078,0.3580565,-9.813817,0,0,36.3758,1,1,7746,3872
12875,67959295,2,-0.002041118,-0.03115983,0.00389627,-0.630865,0.3980021,-9.674531,0,0,36.37591,1,1,7746,3872
12879,67961040,2,0.01355588,-0.04329723,-0.006750286,-0.5752351999999999,0.4146193,-9.647956000000001,0,0,36.376,1,1,7746,3872
12882,67963857,2,0.0240474,-0.02338439,-0.004584441,-0.4207775,0.4244594,-9.752496000000001,0,0,36.3761,1,1,7746,3872
12885,67966492,2,0.0307926,0.01858491,0.005554692,-0.2837614,0.4089786,-9.880814000000001,0,0,36.37621,1,1,7746,3872
12920,67969456,2,0.02844871,0.08579818,0.01791718,-0.1269655,0.3750207,-9.980898,0,0,36.37632,1,1,7746,3872
12923,67971850,2,0.01497658,0.08469591,0.01523555,0.1051024,0.3018625,-9.974133999999999,0,0,36.37643,1,1,7746,3872
12927,67974027,2,0.004597825,0.03538721,0.002355557,0.2265668,0.2348341,-9.895955000000001,0,0,36.3765,1,1,7746,3872
12930,67976813,2,-0.004483259,-0.05316662,-0.02563318,0.3303016,0.1217995,-9.775187000000001,0,0,36.37662,1,1,7746,3872
12965,67979797,2,-0.01456531,-0.07842576,-0.03801562,0.3387544,0.07202338,-9.731987,0,0,36.37672,1,1,7746,3872
12969,67982335,2,-0.01487889,-0.0682914,-0.03512697,0.2339435,0.05675136,-9.774625,0,0,36.3768,1,1,7746,3872
12978,67984416,2,0.01437702,-0.002275551,-0.01159656,0.003786175,0.09453540000000001,-9.930730000000001,0,0,36.37692,1,1,7746,3872
12981,67986810,2,0.01872511,0.05978792,0.007600022,-0.1764735,0.1466262,-9.996328,0,0,36.37701,1,1,7746,3872
13016,67989200,2,-0.0111929,0.09617592,0.0243157,-0.4301026,0.2446358,-9.916786999999999,0,0,36.37715,1,1,7746,3872
13019,67992302,2,-0.02705735,0.05774004,0.02067026,-0.5597877,0.299477,-9.771440999999999,0,0,36.37724,1,1,7746,3872
13022,67994461,2,-0.02134644,-0.002474453,0.007882523000000001,-0.6322108,0.3391029,-9.615987000000001,0,0,36.37731,1,1,7746,3872
13025,67996717,2,0.003980188,-0.06088198,-0.008672235,-0.6176454,0.3859822,-9.491151,0,0,36.37743,1,1,7746,3872
13060,67998963,2,0.01385164,-0.05739596,-0.009120115999999999,-0.5851359,0.4014278,-9.499107,0,0,36.37751,1,1,7746,3872
13064,68001884,2,0.03160903,0.00770549,0.005209006,-0.4339352,0.435891,-9.677963999999999,0,0,36.37762,1,1,7746,3872
13067,68004524,2,0.0364033,0.03894003,0.01164536,-0.2961742,0.4319544,-9.845174999999999,0,0,36.3777,1,1,7746,3872
13070,68007242,2,0.02188783,0.1071259,0.02336761,-0.05784577,0.3844951,-9.967950999999999,0,0,36.3778,1,1,7746,3872
13105,68010233,2,-0.007905166,0.06338365,0.0112711,0.1658707,0.294132,-9.863747,0,0,36.37791,1,1,7746,3872
13109,68012640,2,-0.00731841,-0.04688681,-0.02116284,0.3193391,0.1666427,-9.713200000000001,0,0,36.37801,1,1,7746,3872
13112,68014903,2,-0.006633663,-0.09077629,-0.03739116,0.3676026,0.09507096,-9.662081000000001,0,0,36.37808,1,1,7746,3872
13115,68018070,2,-0.01184838,-0.09801812,-0.04155272,0.3555435,0.05711009,-9.6753,0,0,36.37819,1,1,7746,3872
13150,68020414,2,0.006962526,-0.02228948,-0.01602471,0.1311927,0.06728054,-9.927662,0,0,36.37839,1,1,7746,3872
13153,68023859,2,0.01339631,0.04496462,0.003227345,-0.0415962,0.1042691,-10.04665,0,0,36.37849,1,1,7746,3872
13156,68025757,2,-0.01795378,0.09908363000000001,0.02385915,-0.3135687,0.19175,-10.0275,0,0,36.3786,1,1,7746,3872
13159,68029220,2,-0.03857495,0.06797639,0.02474594,-0.3960121,0.2210714,-9.965693,0,0,36.37865,1,1,7746,3872
13162,68030582,2,-0.03689107,0.000798467,0.01431568,-0.5761585,0.2885897,-9.728225999999999,0,0,36.37879,1,1,7746,3872
13198,68034288,2,-0.009986210000000001,-0.07702017,-0.003815677,-0.6205342,0.3231018,-9.607858999999999,0,0,36.3789,1,1,7746,3872
