LineNo,TimeUS,I,GyrX,GyrY,GyrZ,AccX,AccY,AccZ,EG,EA,T,GH,AH,GHz,AHz
183,64898149,1,-0.008191845,0.0136686,-0.01027485,-0.2877603,0.3885964,-9.794938999999999,0,0,44.32999,1,1,754,998
218,64900393,1,-0.00585794,0.01516503,-0.008887966000000001,-0.3201319,0.362228,-9.792611000000001,0,0,44.33065,1,1,754,998
288,64929248,1,-0.002255028,0.009410238,0.0009682486,-0.3026471,0.2212995,-9.844428000000001,0,0,44.33187,1,1,754,998
403,64958025,1,0.002933422,0.005261625,0.00500406,-0.3233833,0.2987609,-9.690723,0,0,44.33365,1,1,754,998
519,64986878,1,0.002478794,0.006710039,0.004815733,-0.1931611,0.2319903,-9.797038000000001,0,0,44.33482,1,1,754,998
522,64988452,1,0.001552705,0.007363873,0.006537772,-0.2102993,0.2382232,-9.801157999999999,0,0,44.3354,1,1,754,998
632,65008389,1,-0.002573699,0.01164357,-0.0009179292,-0.2199203,0.2956253,-9.752371999999999,0,0,44.33597,1,1,754,998
667,65011315,1,-0.003244697,0.008813230999999999,5.1615e-05,-0.2127718,0.2850882,-9.765333,0,0,44.33654,1,1,754,998
741,65029218,1,-0.006182655,0.007587865,0.003893435,-0.2229385,0.3101929,-9.645746000000001,0,0,44.33711,1,1,754,998
857,65049163,1,-0.0005947361,0.006074456,-0.001350883,-0.2732905,0.2924979,-9.648649000000001,0,0,44.33819,1,1,754,998
972,65092746,1,0.001763409,0.006772994,-0.0008441186,-0.2617709,0.2485225,-9.747374000000001,0,0,44.33998,1,1,754,998
1007,65095369,1,0.001673714,0.006369378,-4.640123e-07,-0.2900958,0.2452866,-9.724982000000001,0,0,44.33998,1,1,754,998
1081,65123911,1,-0.0009465742,0.002073186,0.000954043,-0.1978954,0.1984387,-9.740538000000001,0,0,44.34099,1,1,754,998
1197,65224772,1,-0.004961682,0.001450064,-0.005544049,-0.2615398,0.2195192,-9.711073000000001,0,0,44.34345,1,1,754,998
1307,65284323,1,-0.0006118812,0.01097069,-0.001279922,-0.2947779,0.206212,-9.741702999999999,0,0,44.34494,1,1,754,998
1387,65302269,1,0.005747235,0.007928086000000001,0.003262391,-0.2693837,0.2486289,-9.853675000000001,0,0,44.34563,1,1,754,998
1478,65328261,1,0.00614241,0.01285311,0.003869927,-0.2407011,0.1780662,-9.633516999999999,0,0,44.34637,1,1,754,998
1559,65333007,1,0.005679377,0.006499443,0.005866361,-0.2538758,0.1704747,-9.626403,0,0,44.34675,1,1,754,998
1563,65342444,1,-0.003384997,0.01104592,0.005234164,-0.247698,0.13218,-9.719426,0,0,44.34714,1,1,754,998
1566,65345446,1,-0.003749317,0.01060058,0.0007579568,-0.2511376,0.1292125,-9.763771999999999,0,0,44.34714,1,1,754,998
1603,65348644,1,-0.001212717,0.01380216,-0.006612982,-0.2582597,0.1492747,-9.77422,0,0,44.34714,1,1,754,998
1606,65350657,1,0.0009615719,0.01391489,-0.00651179,-0.2689458,0.1727096,-9.766121,0,0,44.34714,1,1,754,998
1609,65353142,1,0.005149707,0.01235838,-0.003196878,-0.2862005,0.196201,-9.743198,0,0,44.34753,1,1,754,998
1612,65355268,1,0.006575009,0.01130743,0.0004389928,-0.2898714,0.1975476,-9.736703,0,0,44.34753,1,1,754,998
1647,65358909,1,0.004065151,0.01063476,0.003098417,-0.2858036,0.197287,-9.715375,0,0,44.34753,1,1,754,998
1651,65360885,1,0.003035629,0.006208756,0.002826744,-0.2840384,0.2040124,-9.690773,0,0,44.34753,1,1,754,998
1654,65363398,1,0.002713545,0.00361327,0.002108061,-0.2839088,0.232409,-9.665067000000001,0,0,44.34792,1,1,754,998
1657,65365389,1,0.00142019,0.003477026,0.001656376,-0.2803749,0.253656,-9.656257,0,0,44.34792,1,1,754,998
1692,65368005,1,-0.0016016,0.004528171,-0.0007548552,-0.2874487,0.2754689,-9.659821000000001,0,0,44.34792,1,1,754,998
1696,65371434,1,-0.0008216253,0.005467676,-0.0006643151,-0.2925669,0.2857033,-9.668678,0,0,44.34792,1,1,754,998
1699,65374266,1,0.001177012,0.006936582,0.000124086,-0.3033544,0.2979034,-9.682912,0,0,44.34792,1,1,754,998
1702,65375671,1,0.00266581,0.009649891000000001,0.005068356,-0.2962759,0.2979957,-9.701582,0,0,44.34832,1,1,754,998
1737,65378495,1,0.00168638,0.009162010999999999,0.007370828,-0.2885412,0.3007104,-9.712467,0,0,44.34832,1,1,754,998
1740,65381159,1,-0.0006915778,0.006214635,0.009031516,-0.2747562,0.2970056,-9.740943,0,0,44.34832,1,1,754,998
1743,65384243,1,-0.0006434415,0.005202706,0.006829395,-0.261374,0.2930098,-9.753653999999999,0,0,44.34832,1,1,754,998
1746,65386240,1,-0.001069415,0.002702822,0.004425563,-0.2392459,0.289451,-9.77669,0,0,44.3487,1,1,754,998
1781,65388669,1,-0.002096131,0.002560268,0.0019679,-0.2241582,0.292141,-9.777253999999999,0,0,44.3487,1,1,754,998
1785,65391224,1,-0.000806948,0.004593657,-0.001050062,-0.2201484,0.3017888,-9.76843,0,0,44.3487,1,1,754,998
1788,65394369,1,0.001213288,0.004076732,-0.003215032,-0.2305335,0.3080525,-9.768936999999999,0,0,44.3487,1,1,754,998
1795,65397009,1,0.001676533,0.003344722,-0.004520027,-0.2490957,0.3077989,-9.776332,0,0,44.34909,1,1,754,998
1830,65399766,1,0.0002891399,0.002854093,-0.006821956,-0.2612289,0.3108374,-9.753774999999999,0,0,44.34909,1,1,754,998
1833,65402053,1,-0.001354759,0.001042145,-0.006859947,-0.2695583,0.3035742,-9.729881000000001,0,0,44.34909,1,1,754,998
1836,65404837,1,-0.004111889,-4.359375e-05,-0.002991467,-0.2744331,0.2880615,-9.726388999999999,0,0,44.34909,1,1,754,998
1839,65407476,1,-0.006911296,0.002312112,0.001360359,-0.2617541,0.2650421,-9.738503,0,0,44.34948,1,1,754,998
1874,65410784,1,-0.008255072,0.00757391,0.004270399,-0.2440418,0.2393233,-9.733884,0,0,44.34948,1,1,754,998
1878,65412745,1,-0.008494506000000001,0.008739484,0.004166971,-0.2420587,0.2298021,-9.713533999999999,0,0,44.34948,1,1,754,998
1881,65414951,1,-0.007323806,0.01029387,0.001387726,-0.2507772,0.2164648,-9.682636,0,0,44.34948,1,1,754,998
1884,65417740,1,-0.005267843,0.01220721,-0.002802254,-0.2610393,0.1998852,-9.677434,0,0,44.34948,1,1,754,998
1919,65420464,1,-0.002392022,0.013783,-0.005403104,-0.2697021,0.1858254,-9.677553,0,0,44.34986,1,1,754,998
1923,65423259,1,0.0001729097,0.01436514,-0.004824076,-0.2721189,0.1965106,-9.674581999999999,0,0,44.34986,1,1,754,998
1926,65425216,1,0.00121728,0.01322583,-0.002879424,-0.2738423,0.21443,-9.666797000000001,0,0,44.34986,1,1,754,998
1930,65428021,1,0.0009960787999999999,0.01288661,-0.002077771,-0.2794392,0.2208619,-9.680761,0,0,44.34986,1,1,754,998
1965,65430180,1,0.0001291733,0.01260594,0.002862822,-0.2851136,0.2369066,-9.703671999999999,0,0,44.35025,1,1,754,998
1969,65433780,1,0.0004961647,0.01145459,0.003934529,-0.2969192,0.2714381,-9.719336999999999,0,0,44.35025,1,1,754,998
1972,65435386,1,0.0003876257,0.01049555,0.003031934,-0.3043971,0.2986448,-9.738575000000001,0,0,44.35025,1,1,754,998
1975,65438811,1,-0.002388947,0.009044320999999999,-0.00129169,-0.307311,0.3187668,-9.769951000000001,0,0,44.35025,1,1,754,998
2010,65441095,1,-0.004827903,0.009733086,-0.002766592,-0.2916167,0.313223,-9.808313999999999,0,0,44.35062,1,1,754,998
2014,65444749,1,-0.004849997,0.009780593000000001,-0.00275814,-0.2750666,0.3053355,-9.809623999999999,0,0,44.35062,1,1,754,998
2017,65446272,1,-0.001973631,0.008742138,-0.0007096513,-0.2581123,0.2791454,-9.806808,0,0,44.35062,1,1,754,998
2020,65449141,1,-0.0001911292,0.008317036,0.0002627293,-0.2493618,0.2523305,-9.800414,0,0,44.35062,1,1,754,998
2055,65452310,1,0.001515756,0.005389569,0.004173339,-0.2508132,0.2295487,-9.778812,0,0,44.351,1,1,754,998
2058,65453816,1,0.001048854,0.004553252,0.008880496999999999,-0.2555608,0.2155807,-9.763531,0,0,44.351,1,1,754,998
2061,65457161,1,-5.665284e-05,0.006337159,0.00885768,-0.2596811,0.2125646,-9.753221,0,0,44.351,1,1,754,998
2064,65459211,1,-0.002915091,0.007428433,0.006063551,-0.2727614,0.2341726,-9.749957,0,0,44.351,1,1,754,998
2099,65462326,1,-0.002930877,0.00752036,0.002110834,-0.2814271,0.2452649,-9.754459000000001,0,0,44.351,1,1,754,998
2103,65463982,1,-0.00386761,0.005480962,-0.0008321379,-0.2899512,0.2796251,-9.749063,0,0,44.35139,1,1,754,998
2106,65466546,1,-0.004392891,0.005334616,-0.002655776,-0.2851971,0.3044835,-9.738110000000001,0,0,44.35139,1,1,754,998
2109,65469862,1,-0.001975665,0.008218372,-0.003441002,-0.2675013,0.3131078,-9.731959,0,0,44.35139,1,1,754,998
2146,65473420,1,0.0004509672,0.01046296,-0.002309622,-0.2531874,0.3017251,-9.717983,0,0,44.35139,1,1,754,998
2149,65474996,1,0.003410675,0.009210718999999999,0.001232908,-0.2341489,0.2902755,-9.707487,0,0,44.35176,1,1,754,998
2152,65477366,1,0.003805899,0.008423692999999999,0.001912101,-0.2281654,0.276616,-9.708392999999999,0,0,44.35176,1,1,754,998
2155,65485828,1,-0.000121377,0.001377005,0.0009099729,-0.2167805,0.2192843,-9.697611,0,0,44.35211,1,1,754,998
2191,65488732,1,0.0001919695,0.0024341,0.0002501267,-0.234423,0.205686,-9.701479000000001,0,0,44.35211,1,1,754,998
2195,65491826,1,-0.0003251632,0.006739049,-0.0006078543,-0.2403998,0.1937943,-9.694618,0,0,44.35211,1,1,754,998
2198,65494033,1,-0.001535436,0.007271949,-0.0006569297,-0.2377442,0.186417,-9.680934000000001,0,0,44.35211,1,1,754,998
2201,65496381,1,-0.003550039,0.008571792,-0.0009346553,-0.2222328,0.1787543,-9.665217999999999,0,0,44.35249,1,1,754,998
2237,65498766,1,-0.003430745,0.009443043999999999,4.408382e-05,-0.2081791,0.1926596,-9.674047,0,0,44.35249,1,1,754,998
2244,65501780,1,-0.002465036,0.009454222999999999,0.0005045836,-0.202001,0.2091969,-9.690466000000001,0,0,44.35249,1,1,754,998
2247,65504142,1,0.0001239173,0.009568194,0.001124831,-0.1867563,0.2244731,-9.707642999999999,0,0,44.35249,1,1,754,998
2250,65506798,1,0.0007759782,0.007764359,0.001418273,-0.1573192,0.234521,-9.731555,0,0,44.35288,1,1,754,998
2285,65509758,1,-0.002113279,0.006960021,0.002360093,-0.1584978,0.229056,-9.741961,0,0,44.35288,1,1,754,998
2288,65511844,1,-0.003056658,0.005891968,0.004301951,-0.1731634,0.2324644,-9.744126,0,0,44.35288,1,1,754,998
2291,65514799,1,-0.001023292,0.005837885,0.006818275,-0.1934929,0.2550895,-9.758148,0,0,44.35288,1,1,754,998
2294,65517361,1,0.00140977,0.006977154,0.006913989,-0.2030495,0.2785913,-9.758235000000001,0,0,44.35288,1,1,754,998
2329,65520222,1,0.001693746,0.004779125,0.001778298,-0.2154117,0.3274859,-9.751682000000001,0,0,44.35331,1,1,754,998
2333,65522638,1,0.001650267,0.00402415,0.0008161206,-0.2276358,0.3341586,-9.739489000000001,0,0,44.35331,1,1,754,998
2336,65524876,1,0.001570642,0.003802282,0.0004921079,-0.2524145,0.3291402,-9.729228000000001,0,0,44.35331,1,1,754,998
2339,65527478,1,0.001560911,0.006324521,-0.0005239469000000001,-0.2632749,0.3234671,-9.738218,0,0,44.35331,1,1,754,998
2374,65530379,1,0.001694512,0.006656059,0.0001567572,-0.2784909,0.3238592,-9.751982999999999,0,0,44.35375,1,1,754,998
2377,65533420,1,0.0001576367,0.004806497,0.002307159,-0.283722,0.3247283,-9.737897,0,0,44.35375,1,1,754,998
2380,65534820,1,-0.001219933,0.005316894,0.005013412,-0.2733488,0.3144627,-9.712051000000001,0,0,44.35375,1,1,754,998
2383,65537786,1,-0.0004360557,0.005072493,0.006675251,-0.2560523,0.3047065,-9.709970999999999,0,0,44.35375,1,1,754,998
2418,65539873,1,0.002119064,0.003197274,0.009584261,-0.222995,0.2755331,-9.707397,0,0,44.35423,1,1,754,998
2422,65542827,1,0.00172273,0.002398866,0.009061652,-0.2058465,0.2548546,-9.686347,0,0,44.35423,1,1,754,998
2425,65546056,1,1.03309e-05,0.00171524,0.004521111,-0.194026,0.2408679,-9.664666,0,0,44.35423,1,1,754,998
2428,65548362,1,-0.003574498,0.004182352,-0.001803968,-0.1826638,0.2306306,-9.655135,0,0,44.35423,1,1,754,998
2463,65550793,1,-0.005137841,0.006516504,-0.006045094,-0.1765997,0.2306141,-9.651424,0,0,44.35472,1,1,754,998
2466,65553537,1,-0.005791156,0.00657907,-0.007069961,-0.1808432,0.2257708,-9.627209000000001,0,0,44.35472,1,1,754,998
2472,65556411,1,-0.006567416,0.007267303,-0.008022891000000001,-0.1869884,0.2203579,-9.607457,0,0,44.35472,1,1,754,998
2475,65558417,1,-0.006852604,0.009755369,-0.008535971,-0.200223,0.2164928,-9.599892000000001,0,0,44.35472,1,1,754,998
2510,65561413,1,-0.002030194,0.01399262,-0.005681815,-0.2061779,0.2167279,-9.635180999999999,0,0,44.35521,1,1,754,998
2514,65563431,1,-0.0009916167000000001,0.01537661,-0.005100475,-0.2095484,0.2222445,-9.658996,0,0,44.35521,1,1,754,998
2518,65565621,1,0.0004874864,0.01538669,-0.00299409,-0.2132196,0.226929,-9.67151,0,0,44.35521,1,1,754,998
2521,65569022,1,0.00109596,0.01373158,0.0005812164,-0.2247671,0.2211039,-9.675034,0,0,44.35521,1,1,754,998
2556,65571399,1,-0.0003448369,0.01114187,0.0001752393,-0.2392249,0.22462,-9.699524,0,0,44.35521,1,1,754,998
2560,65574667,1,-0.001739869,0.01061916,-0.002201579,-0.2526079,0.2324078,-9.734405000000001,0,0,44.3557,1,1,754,998
2563,65576409,1,-0.004446771,0.01174907,-0.003397962,-0.264202,0.2446173,-9.751324,0,0,44.3557,1,1,754,998
2567,65579442,1,-0.006577551,0.01298655,-0.002110209,-0.2879388,0.2661029,-9.739908,0,0,44.3557,1,1,754,998
2602,65582383,1,-0.005081899,0.01441331,0.002010302,-0.298218,0.2685073,-9.707134,0,0,44.3557,1,1,754,998
2605,65585155,1,-0.002994679,0.01340478,0.003930714,-0.2945733,0.2614676,-9.691456000000001,0,0,44.35618,1,1,754,998
2608,65586752,1,-0.001768699,0.01123268,0.003275213,-0.2924445,0.2629885,-9.672890000000001,0,0,44.35618,1,1,754,998
2611,65589540,1,-0.002079062,0.007097303,0.004389753,-0.2913885,0.2640389,-9.655149,0,0,44.35618,1,1,754,998
2646,65592694,1,-0.00216317,0.003679339,0.005446539,-0.2987395,0.261144,-9.638628000000001,0,0,44.35618,1,1,754,998
2650,65594575,1,-0.003103903,0.003224323,0.002782802,-0.3025613,0.2569222,-9.649387000000001,0,0,44.35666,1,1,754,998
2653,65597295,1,-0.003980898,0.003483629,-0.001449445,-0.3047143,0.2538566,-9.673914999999999,0,0,44.35666,1,1,754,998
2656,65599615,1,-0.003058987,0.004552483,-0.002972136,-0.3061197,0.2534439,-9.712187999999999,0,0,44.35666,1,1,754,998
2691,65601789,1,-0.001913423,0.01022997,-0.001235965,-0.30476,0.2572945,-9.733587999999999,0,0,44.35666,1,1,754,998
2698,65605410,1,-0.003288106,0.01147476,-0.001692374,-0.2994553,0.2614429,-9.740978,0,0,44.35666,1,1,754,998
2701,65606978,1,-0.006503601,0.01173846,-0.00665069,-0.2760304,0.2652761,-9.743767,0,0,44.35712,1,1,754,998
2704,65610051,1,-0.008391753,0.009486388,-0.0103007,-0.2610104,0.2595026,-9.738859,0,0,44.35712,1,1,754,998
2739,65612247,1,-0.008097557,0.008209988,-0.009408338,-0.2522872,0.2385615,-9.735276000000001,0,0,44.35712,1,1,754,998
2743,65615662,1,-0.006311508,0.008371843,-0.004533732,-0.2468108,0.2247015,-9.716488,0,0,44.35712,1,1,754,998
2746,65617286,1,-0.005484778,0.007404603,-0.0009806544,-0.2460234,0.222694,-9.705768000000001,0,0,44.35757,1,1,754,998
2749,65620637,1,-0.003811933,0.005592448,0.0007188329,-0.2449298,0.2221622,-9.699612999999999,0,0,44.35757,1,1,754,998
2784,65623011,1,-0.003953584,0.005834651,0.0006148858,-0.2332849,0.2228739,-9.655804,0,0,44.35757,1,1,754,998
2788,65625484,1,-0.004646247,0.007054437,3.052255e-05,-0.2260832,0.2115082,-9.63017,0,0,44.35757,1,1,754,998
2791,65628784,1,-0.006342535,0.009044883,-0.0003973489,-0.2305799,0.2080423,-9.610497000000001,0,0,44.35803,1,1,754,998
2795,65630669,1,-0.005763716,0.007520691,-0.000133915,-0.2397429,0.2123903,-9.600728,0,0,44.35803,1,1,754,998
2830,65633161,1,-0.002210205,0.007686808,-0.0005198484,-0.2548856,0.2131806,-9.607464999999999,0,0,44.35803,1,1,754,998
2833,65636180,1,-5.449386e-05,0.008827857999999999,-0.0008157741,-0.2631381,0.2174373,-9.618204,0,0,44.35803,1,1,754,998
2836,65638149,1,0.002249308,0.01109084,-0.0005474789,-0.2820188,0.2295533,-9.654035,0,0,44.35848,1,1,754,998
2839,65641399,1,0.001702951,0.01155512,-0.0004402384,-0.2905656,0.2434231,-9.676871,0,0,44.35848,1,1,754,998
2874,65643850,1,0.001190399,0.009524624000000001,0.0004780167,-0.2903263,0.2715259,-9.722604,0,0,44.35848,1,1,754,998
2879,65647762,1,0.003719622,0.00646313,0.001179392,-0.2759062,0.2750908,-9.738849,0,0,44.35848,1,1,754,998
2882,65649294,1,0.00747828,0.004090616,0.002364977,-0.2676764,0.2770295,-9.754575000000001,0,0,44.35894,1,1,754,998
2885,65652464,1,0.009074805,0.003907158,0.001746766,-0.2664665,0.2785367,-9.766978,0,0,44.35894,1,1,754,998
2920,65654662,1,0.008241666999999999,0.003886502,0.002344778,-0.2693532,0.2965851,-9.780115,0,0,44.35894,1,1,754,998
2923,65658066,1,0.008250222,0.0009074535,0.003392471,-0.2711569,0.3000481,-9.783367,0,0,44.35894,1,1,754,998
2928,65660244,1,0.005347411,-0.003501664,0.002287756,-0.2723109,0.3016407,-9.787533,0,0,44.35894,1,1,754,998
2931,65665138,1,-0.003156901,0.001413452,-0.003756081,-0.2771323,0.2756123,-9.767414,0,0,44.35941,1,1,754,998
2967,65667936,1,-0.004326339,0.00656423,-0.003829991,-0.2766674,0.2484375,-9.770236000000001,0,0,44.35941,1,1,754,998
2970,65670426,1,-0.001852785,0.01017457,-0.003814027,-0.2818357,0.2236236,-9.793868,0,0,44.35941,1,1,754,998
2973,65673871,1,-0.0008556283,0.009945747,-0.003405959,-0.2778938,0.2175943,-9.814412000000001,0,0,44.35987,1,1,754,998
2976,65678742,1,0.0006674002,0.003215909,-0.0008522285,-0.2375782,0.2079494,-9.878100999999999,0,0,44.35987,1,1,754,998
3012,65681168,1,0.002071451,0.002693959,0.0004924381,-0.2284184,0.2141797,-9.899297000000001,0,0,44.35987,1,1,754,998
3015,65683467,1,0.002110398,0.003656894,0.0003833283,-0.230686,0.2192274,-9.906250999999999,0,0,44.36035,1,1,754,998
3021,65686607,1,0.001718198,0.004506483,-0.002196233,-0.2319596,0.2311173,-9.912353,0,0,44.36035,1,1,754,998
3024,65688752,1,0.001780157,0.007754019,-0.004460516,-0.2352984,0.2482298,-9.904063000000001,0,0,44.36035,1,1,754,998
3059,65691752,1,0.0003270815,0.0102315,-0.002421739,-0.2316163,0.2724988,-9.866856,0,0,44.36035,1,1,754,998
3062,65693749,1,-0.001507923,0.01140223,-0.002050759,-0.2345475,0.275506,-9.842060999999999,0,0,44.36085,1,1,754,998
3065,65695889,1,-0.00892773,0.01557915,-0.004785766,-0.2583815,0.2642308,-9.805505,0,0,44.36085,1,1,754,998
3068,65699167,1,-0.0096556,0.01575948,-0.006345163,-0.2674488,0.257277,-9.777723999999999,0,0,44.36085,1,1,754,998
3103,65701270,1,-0.008571748000000001,0.01425734,-0.007857222000000001,-0.2751408,0.2498995,-9.754334999999999,0,0,44.36085,1,1,754,998
3107,65704253,1,-0.005851808,0.01107062,-0.002217999,-0.2731757,0.2458275,-9.759041,0,0,44.36137,1,1,754,998
3110,65706654,1,-0.004870517,0.01005863,0.0006359894,-0.2721412,0.2470723,-9.760911,0,0,44.36137,1,1,754,998
3117,65710174,1,-0.003797377,0.00633113,0.003968559,-0.2715063,0.2498652,-9.753712999999999,0,0,44.36137,1,1,754,998
3120,65711585,1,-0.002267313,0.002928169,0.004873694,-0.2815896,0.2601559,-9.756945,0,0,44.36137,1,1,754,998
3155,65714484,1,-0.0002568123,0.004301559,0.006360346,-0.2996694,0.2881529,-9.790514,0,0,44.36137,1,1,754,998
3158,65717365,1,0.001206795,0.007194467,0.006657293,-0.3333572,0.3212892,-9.840719,0,0,44.36192,1,1,754,998
3161,65719253,1,-0.0003644473,0.00994373,0.004842778,-0.3482074,0.3324312,-9.866406,0,0,44.36192,1,1,754,998
3164,65722614,1,-0.002408775,0.01206726,0.001454891,-0.3527255,0.3313845,-9.884293,0,0,44.36192,1,1,754,998
3199,65725165,1,-0.002853177,0.01112816,-0.001544609,-0.3398759,0.3129332,-9.912689,0,0,44.36192,1,1,754,998
3203,65728140,1,-0.003231823,0.01079704,-0.001638502,-0.3269748,0.3005682,-9.919218000000001,0,0,44.36248,1,1,754,998
3206,65729989,1,-0.00457664,0.01055164,-0.003081094,-0.2988169,0.2780093,-9.9353,0,0,44.36248,1,1,754,998
3210,65732298,1,-0.004167377,0.008183602999999999,-0.005195122,-0.2790689,0.2492054,-9.951805999999999,0,0,44.36248,1,1,754,998
3245,65735373,1,-0.001497572,0.003381082,-0.003319049,-0.2631646,0.2131241,-9.979937,0,0,44.36248,1,1,754,998
3249,65737593,1,3.779557e-05,0.004255267,0.0004103736,-0.2635487,0.1976687,-9.995659,0,0,44.36307,1,1,754,998
3252,65740594,1,-0.000517707,0.008187342,0.001855296,-0.2512535,0.1834458,-10.00034,0,0,44.36307,1,1,754,998
3255,65742751,1,-0.001366993,0.009188754,-8.180506e-05,-0.2309282,0.1825594,-9.989366,0,0,44.36307,1,1,754,998
3290,65744895,1,-0.002528978,0.009542212,-0.005667692,-0.214989,0.1816412,-9.960575,0,0,44.36307,1,1,754,998
3293,65748312,1,-0.004390625,0.009017888,-0.006015719,-0.2260027,0.1791425,-9.934823,0,0,44.36307,1,1,754,998
3296,65749768,1,-0.008970169,0.00717883,-0.005897756,-0.2476751,0.1818058,-9.892188000000001,0,0,44.36369,1,1,754,998
3299,65753203,1,-0.01143015,0.00836189,-0.005047904,-0.2618832,0.1900556,-9.885694000000001,0,0,44.36369,1,1,754,998
3334,65755596,1,-0.01010415,0.01351739,-0.004957007,-0.2694272,0.2136479,-9.879493,0,0,44.36369,1,1,754,998
3339,65759071,1,-0.007834578,0.01580686,-0.003086866,-0.2715527,0.242061,-9.852755999999999,0,0,44.36369,1,1,754,998
3342,65760601,1,-0.005531103,0.01491479,0.0008653235,-0.2688851,0.2563874,-9.845001,0,0,44.36432,1,1,754,998
3345,65763441,1,-0.004779098,0.01354989,0.002951033,-0.2620059,0.2557594,-9.855565,0,0,44.36432,1,1,754,998
3380,65766608,1,-0.007396623,0.01282308,0.001943415,-0.2449905,0.2588801,-9.847676999999999,0,0,44.36432,1,1,754,998
3383,65768640,1,-0.01233762,0.01101016,-0.0007078635,-0.2359969,0.2578786,-9.830653,0,0,44.36432,1,1,754,998
3387,65771256,1,-0.01273037,0.009032785999999999,-0.004140795,-0.2215666,0.2587071,-9.818422999999999,0,0,44.36497,1,1,754,998
3390,65773608,1,-0.01132829,0.009343792,-0.005284821,-0.2113456,0.2607473,-9.81414,0,0,44.36497,1,1,754,998
3425,65776652,1,-0.008825771,0.009341474000000001,-0.004047196,-0.1930375,0.2578969,-9.812825999999999,0,0,44.36497,1,1,754,998
3429,65778289,1,-0.005677725,0.006260125,-0.001808924,-0.1814163,0.2522535,-9.806397,0,0,44.36497,1,1,754,998
3432,65781032,1,-0.004031011,0.002608011,-0.0008305384000000001,-0.180224,0.2632947,-9.801786999999999,0,0,44.36564,1,1,754,998
3435,65783806,1,-0.003090583,0.002963127,-0.001048161,-0.1901023,0.2847431,-9.787018,0,0,44.36564,1,1,754,998
3470,65786616,1,-0.00021342,0.006679642,-0.0007334327,-0.2136591,0.3134013,-9.763247,0,0,44.36564,1,1,754,998
3474,65788810,1,0.0004353992,0.006250537,-1.029144e-05,-0.2242367,0.3143961,-9.729671,0,0,44.36564,1,1,754,998
3477,65791620,1,2.875876e-05,0.004726494,0.001548944,-0.2274781,0.3105181,-9.675751999999999,0,0,44.36564,1,1,754,998
3480,65793430,1,-0.00170947,0.004056311,0.002116041,-0.2245577,0.3158143,-9.648866999999999,0,0,44.36631,1,1,754,998
3515,65795752,1,-0.002090572,0.002254887,0.002467443,-0.220709,0.3203489,-9.630140000000001,0,0,44.36631,1,1,754,998
3518,65798874,1,-0.001973833,0.0008191699,0.001969887,-0.2169837,0.326152,-9.622769999999999,0,0,44.36631,1,1,754,998
3522,65801773,1,-0.002009616,0.002292013,0.0006310855,-0.2083231,0.3264487,-9.602484,0,0,44.36631,1,1,754,998
3525,65803624,1,-0.001669975,0.004717471,-0.00045244,-0.2137913,0.32193,-9.592809000000001,0,0,44.36695,1,1,754,998
3560,65805986,1,-0.0009021993,0.01305534,-0.001536204,-0.2279872,0.341601,-9.585582,0,0,44.36695,1,1,754,998
3564,65808656,1,-0.0006436128,0.01408476,-0.0005086204999999999,-0.234914,0.3574846,-9.577614000000001,0,0,44.36695,1,1,754,998
3571,65811832,1,-0.000528752,0.01147892,0.005692688,-0.2472317,0.3540964,-9.582285000000001,0,0,44.36695,1,1,754,998
3574,65813806,1,-7.818248e-05,0.01074323,0.007588676,-0.2459046,0.3313908,-9.593847999999999,0,0,44.36695,1,1,754,998
3609,65816654,1,0.001412605,0.01045897,0.008024335,-0.2455927,0.2939141,-9.639874000000001,0,0,44.36758,1,1,754,998
3612,65818305,1,0.001469198,0.01108046,0.002862698,-0.2503764,0.2743144,-9.680122000000001,0,0,44.36758,1,1,754,998
3615,65821030,1,-0.0001978031,0.01294823,0.0006461395,-0.2622593,0.2454701,-9.749904000000001,0,0,44.36758,1,1,754,998
3618,65824159,1,-0.0008430617,0.01564296,0.003919899,-0.2770482,0.2287704,-9.786182999999999,0,0,44.36758,1,1,754,998
3653,65826920,1,0.001084345,0.01697806,0.007057749,-0.2992054,0.2025777,-9.808165000000001,0,0,44.36822,1,1,754,998
3657,65829325,1,0.001992671,0.01581553,0.007709003,-0.2998209,0.1812567,-9.796201,0,0,44.36822,1,1,754,998
3660,65831282,1,0.001168733,0.01291681,0.006969126,-0.296221,0.1727702,-9.777355,0,0,44.36822,1,1,754,998
3663,65834667,1,-6.678829e-05,0.01161425,0.003097138,-0.298124,0.1594813,-9.779137,0,0,44.36822,1,1,754,998
3698,65837386,1,-0.0007215079,0.01130037,0.001052566,-0.2957568,0.1610224,-9.772387999999999,0,0,44.36885,1,1,754,998
3701,65839495,1,-0.0002269931,0.01083802,0.002991533,-0.284754,0.1747765,-9.765712000000001,0,0,44.36885,1,1,754,998
3704,65841970,1,0.002790743,0.009076084999999999,0.004430584,-0.2647922,0.1971467,-9.763297,0,0,44.36885,1,1,754,998
3707,65844422,1,0.00360999,0.008167684,0.004539269,-0.246446,0.2125497,-9.762105999999999,0,0,44.36885,1,1,754,998
3744,65847867,1,-0.0004811654,0.004693935,0.004466262,-0.2259516,0.243546,-9.791905,0,0,44.36947,1,1,754,998
3748,65850648,1,-0.002047082,0.0041843,0.002619139,-0.2269614,0.2554271,-9.82765,0,0,44.36947,1,1,754,998
3751,65852291,1,-0.002170706,0.004530619,-0.00311322,-0.2472496,0.2614874,-9.892626,0,0,44.36947,1,1,754,998
3754,65854755,1,-0.001227958,0.004895199,-0.003502011,-0.2622412,0.2529265,-9.91832,0,0,44.36947,1,1,754,998
3789,65856982,1,-0.0009726617,0.004268887,-0.000215979,-0.2793543,0.2320383,-9.947476,0,0,44.36947,1,1,754,998
3792,65860287,1,-0.001575736,0.002678982,0.00269385,-0.2777762,0.222982,-9.950695,0,0,44.37008,1,1,754,998
3795,65862739,1,-0.001633972,0.001416023,0.002428733,-0.2619406,0.2117558,-9.941395,0,0,44.37008,1,1,754,998
3800,65864835,1,-0.002995713,0.002717591,-0.002489936,-0.2472026,0.1945217,-9.925138,0,0,44.37008,1,1,754,998
3835,65867401,1,-0.003032884,0.003698184,-0.008120707,-0.2311471,0.1885937,-9.899495999999999,0,0,44.37008,1,1,754,998
3838,65869486,1,-0.002956232,0.004592348,-0.009793133000000001,-0.2222492,0.1940858,-9.878050999999999,0,0,44.37068,1,1,754,998
3841,65877932,1,0.00107894,0.009532374,0.003679745,-0.1984374,0.225009,-9.817712999999999,0,0,44.37068,1,1,754,998
3876,65880211,1,0.0006184426,0.009223003,0.008640752999999999,-0.2035499,0.23732,-9.824068,0,0,44.37127,1,1,754,998
3879,65883234,1,-0.0004478361,0.009450803000000001,0.009222347000000001,-0.2199432,0.2531839,-9.832750000000001,0,0,44.37127,1,1,754,998
3882,65885982,1,-0.002837919,0.008778396000000001,0.006137109,-0.2417019,0.2676508,-9.840191000000001,0,0,44.37127,1,1,754,998
3885,65888433,1,-0.004139994,0.006880125,-0.001183666,-0.2494754,0.2745291,-9.841286999999999,0,0,44.37127,1,1,754,998
3920,65890867,1,-0.002629594,0.006006192,-0.005104697,-0.2429771,0.2605783,-9.822248,0,0,44.37187,1,1,754,998
3923,65893623,1,-0.002206257,0.001681512,-0.006605605,-0.2412381,0.2600755,-9.805923999999999,0,0,44.37187,1,1,754,998
3927,65896502,1,-0.002164511,-0.001147201,-0.008132202999999999,-0.2550851,0.2613543,-9.795147999999999,0,0,44.37187,1,1,754,998
3930,65898766,1,-0.002083072,-0.0007563587,-0.007688322,-0.2695309,0.2667349,-9.79834,0,0,44.37187,1,1,754,998
3965,65901473,1,-0.004316306,0.003726756,-0.005765479,-0.295306,0.2897359,-9.806008,0,0,44.37187,1,1,754,998
3969,65903672,1,-0.004362566,0.005730002,-0.005717156,-0.3103731,0.303912,-9.809298,0,0,44.37247,1,1,754,998
3973,65905896,1,-0.00365546,0.009820495,-0.005239998,-0.3306525,0.3206951,-9.811875000000001,0,0,44.37247,1,1,754,998
3976,65909072,1,-0.002452618,0.008782603999999999,-0.003709408,-0.3478535,0.3193534,-9.814169,0,0,44.37247,1,1,754,998
4011,65911295,1,-0.002202798,0.007008816,-0.00293914,-0.3694583,0.312444,-9.805052,0,0,44.37247,1,1,754,998
4019,65914838,1,-0.001852031,0.006035899,-0.002465875,-0.3758132,0.317774,-9.800250999999999,0,0,44.3731,1,1,754,998
4024,65916397,1,-0.001895917,0.005912468,-0.002437728,-0.3636729,0.3192913,-9.806069000000001,0,0,44.3731,1,1,754,998
4027,65920029,1,-0.004029713,0.009101013999999999,-0.003560778,-0.3292961,0.3077549,-9.807423999999999,0,0,44.3731,1,1,754,998
4062,65922328,1,-0.007172525,0.01363378,-0.005017103,-0.2838982,0.2988603,-9.784022999999999,0,0,44.3731,1,1,754,998
4065,65925375,1,-0.01170791,0.01694167,-0.005190643,-0.252394,0.2973415,-9.779849,0,0,44.37372,1,1,754,998
4068,65927404,1,-0.01243957,0.01615769,-0.004534966,-0.2206239,0.2978958,-9.806149,0,0,44.37372,1,1,754,998
4071,65930237,1,-0.008614123,0.01325054,-0.002855129,-0.2125693,0.2906955,-9.829164,0,0,44.37372,1,1,754,998
4106,65932621,1,-0.00769835,0.01039719,-0.001964444,-0.2063303,0.2849622,-9.865223,0,0,44.37372,1,1,754,998
4110,65935826,1,-0.009916609999999999,0.006725629,-0.004259449,-0.193105,0.2940105,-9.884429000000001,0,0,44.3743,1,1,754,998
4113,65937449,1,-0.01303256,0.007141258,-0.01112642,-0.1864492,0.297891,-9.881891,0,0,44.3743,1,1,754,998
4116,65940254,1,-0.01340624,0.008133715,-0.01827919,-0.1847067,0.2886947,-9.849679999999999,0,0,44.3743,1,1,754,998
4151,65943272,1,-0.009946307,0.006623054,-0.02023557,-0.181967,0.2771163,-9.81725,0,0,44.3743,1,1,754,998
4154,65945385,1,-0.007610129,0.006812123,-0.01512325,-0.1752271,0.2594582,-9.764438,0,0,44.3743,1,1,754,998
4157,65948703,1,-0.006747962,0.008594595999999999,-0.01100502,-0.1759494,0.2491216,-9.73025,0,0,44.37485,1,1,754,998
4160,65949977,1,-0.006663614,0.01231017,-0.004479903,-0.1876034,0.2363783,-9.693747999999999,0,0,44.37485,1,1,754,998
4195,65952870,1,-0.007880359999999999,0.01173309,-0.003372939,-0.2028874,0.2369903,-9.682881,0,0,44.37485,1,1,754,998
4199,65956315,1,-0.009647049,0.008825157,-0.0002886092,-0.2143623,0.2414887,-9.662798,0,0,44.37485,1,1,754,998
4202,65958497,1,-0.01136852,0.005773652,0.001563867,-0.2198571,0.241923,-9.647171999999999,0,0,44.37537,1,1,754,998
4205,65959882,1,-0.01190567,0.001457364,0.0002299801,-0.2145199,0.2417809,-9.642594000000001,0,0,44.37537,1,1,754,998
4240,65962947,1,-0.01070413,-6.08164e-05,-0.001960705,-0.2087361,0.2403723,-9.647169,0,0,44.37537,1,1,754,998
4245,65965235,1,-0.008787633,0.00160127,-0.0001665308,-0.1952529,0.2553059,-9.646357,0,0,44.37537,1,1,754,998
4249,65968293,1,-0.007359512,0.002245906,0.001204956,-0.1862672,0.2701861,-9.634092000000001,0,0,44.37537,1,1,754,998
4252,65970460,1,-0.003629276,0.005716978,0.004019767,-0.1759974,0.2923191,-9.643985000000001,0,0,44.37589,1,1,754,998
4287,65973145,1,-0.002106324,0.007460064,0.007462917,-0.1807413,0.2944694,-9.700003000000001,0,0,44.37589,1,1,754,998
4290,65975155,1,-0.002152854,0.007647768,0.008749441,-0.1758742,0.2849729,-9.732695,0,0,44.37589,1,1,754,998
4294,65977932,1,-0.003936168,0.007165724,0.008390003,-0.1667626,0.2766229,-9.760774,0,0,44.37589,1,1,754,998
4297,65980756,1,-0.004667862,0.007412299,0.003235223,-0.1589995,0.2789047,-9.791895,0,0,44.37639,1,1,754,998
4332,65983449,1,-0.000588498,0.007877977,-0.000234072,-0.1517208,0.2923095,-9.796851,0,0,44.37639,1,1,754,998
4336,65986018,1,0.0003725855,0.007652736,-0.0002212897,-0.1517408,0.289624,-9.776802,0,0,44.37639,1,1,754,998
4339,65988272,1,0.0001219145,0.005559236,0.0004431827,-0.1575018,0.2763806,-9.751778,0,0,44.37639,1,1,754,998
4342,65990768,1,-0.0005694359,0.004318612,0.0008852492,-0.1549908,0.2682321,-9.743909,0,0,44.37688,1,1,754,998
4377,65993632,1,-0.001393855,0.001692223,0.001267226,-0.1485697,0.2730971,-9.732013999999999,0,0,44.37688,1,1,754,998
4380,65996041,1,-0.001010709,-0.0005747702,-0.0006555967,-0.1540214,0.2817079,-9.719364000000001,0,0,44.37688,1,1,754,998
4383,65998194,1,0.0002970525,0.001579508,-0.001566548,-0.1611187,0.2846228,-9.71157,0,0,44.37688,1,1,754,998
4386,66000669,1,0.0008216937,0.002829712,-0.0008732548,-0.1662835,0.2860737,-9.714781,0,0,44.37688,1,1,754,998
4421,66003097,1,0.002809269,0.004609095,0.001625114,-0.1806598,0.2940965,-9.729037,0,0,44.37735,1,1,754,998
4425,66006134,1,0.003589903,0.004748856,0.002165959,-0.1992411,0.2948112,-9.715052,0,0,44.37735,1,1,754,998
4428,66008866,1,0.002992331,0.004091115,0.003474608,-0.2319669,0.2969618,-9.690784000000001,0,0,44.37735,1,1,754,998
4431,66010853,1,0.0006417028,0.001742723,0.005074527,-0.2512695,0.3020668,-9.694485,0,0,44.37735,1,1,754,998
4466,66013194,1,-0.0006647938,0.0004965631,0.007731142,-0.274478,0.3294819,-9.703689000000001,0,0,44.37783,1,1,754,998
4473,66015847,1,-0.001518912,0.002402074,0.01002943,-0.2832892,0.3533085,-9.710525000000001,0,0,44.37783,1,1,754,998
4476,66018583,1,-0.002423621,0.007320322,0.007325232,-0.2910576,0.3620291,-9.736769000000001,0,0,44.37783,1,1,754,998
4479,66021248,1,-0.002295005,0.009616715,0.004932508,-0.2921497,0.3522406,-9.764276000000001,0,0,44.37783,1,1,754,998
4514,66023776,1,-0.0005260591,0.01394698,0.0006434927,-0.2870211,0.3245318,-9.809030999999999,0,0,44.37828,1,1,754,998
4518,66026204,1,0.000441811,0.01377575,0.00063909,-0.2791661,0.3118877,-9.825525000000001,0,0,44.37828,1,1,754,998
4521,66029378,1,0.003018429,0.011827,-0.0002278069,-0.2717808,0.2935458,-9.826931999999999,0,0,44.37828,1,1,754,998
4524,66031468,1,0.003074872,0.01008069,-0.0008453735,-0.2687185,0.2664099,-9.818425,0,0,44.37828,1,1,754,998
4559,66034445,1,0.003098021,0.008707816,0.0007340518000000001,-0.2704323,0.2498492,-9.833477999999999,0,0,44.37873,1,1,754,998
4562,66036755,1,0.00243112,0.008074678,0.003428156,-0.2762574,0.2438087,-9.853967000000001,0,0,44.37873,1,1,754,998
4565,66039236,1,0.001054537,0.007980510999999999,0.004091815,-0.2764531,0.2264073,-9.868009000000001,0,0,44.37873,1,1,754,998
4568,66042194,1,0.001432719,0.007953805,0.003663194,-0.2680773,0.216122,-9.874108,0,0,44.37873,1,1,754,998
4603,66044670,1,0.004497827,0.008097554999999999,0.001578076,-0.2412971,0.220858,-9.846470999999999,0,0,44.37873,1,1,754,998
4607,66047893,1,0.004111452,0.008474844,0.001685306,-0.2169793,0.2403568,-9.784578,0,0,44.37917,1,1,754,998
4610,66049957,1,0.003474513,0.009043559,0.001617368,-0.2072229,0.2526117,-9.751322999999999,0,0,44.37917,1,1,754,998
4613,66052455,1,0.001235329,0.01184996,-0.001477089,-0.2020358,0.2616089,-9.721318,0,0,44.37917,1,1,754,998
4648,66055848,1,0.0009564218,0.0138421,-0.004125299,-0.2066599,0.2681775,-9.702145,0,0,44.37917,1,1,754,998
4651,66057609,1,0.0001855438,0.01458693,-0.005700274,-0.2129994,0.2721002,-9.712465999999999,0,0,44.3796,1,1,754,998
4654,66060861,1,-0.0001603447,0.01167831,-0.007405589,-0.2163067,0.2774294,-9.735111,0,0,44.3796,1,1,754,998
4657,66062246,1,0.0009449528,0.008240038999999999,-0.006562029,-0.202079,0.2922513,-9.765323,0,0,44.3796,1,1,754,998
4692,66064910,1,-0.0003549312,0.009431696,-0.003750005,-0.1913108,0.3022578,-9.780169000000001,0,0,44.3796,1,1,754,998
4695,66067985,1,-0.002964291,0.01029412,-0.002973385,-0.1876968,0.3057844,-9.783006,0,0,44.38004,1,1,754,998
4700,66069983,1,-0.004114503,0.01025798,-0.003401721,-0.1812343,0.3103916,-9.776719999999999,0,0,44.38004,1,1,754,998
4703,66075302,1,-0.004087831,0.008599378,-0.007479811,-0.1920262,0.3112016,-9.699032000000001,0,0,44.38004,1,1,754,998
4739,66080812,1,-0.00206885,0.006345659,-0.004344468,-0.196686,0.3195507,-9.590444,0,0,44.38047,1,1,754,998
4742,66083446,1,-0.001392772,0.00818048,-0.00418964,-0.2027691,0.3233739,-9.570565999999999,0,0,44.38047,1,1,754,998
4746,66086138,1,-0.0002544541,0.01150691,-0.003833676,-0.2236503,0.3281851,-9.567741,0,0,44.38047,1,1,754,998
4781,66088772,1,0.001170583,0.01371357,-0.00453999,-0.2319622,0.320415,-9.573268000000001,0,0,44.38047,1,1,754,998
4784,66091795,1,0.003631831,0.01187347,-0.00469174,-0.2383796,0.3025922,-9.577647000000001,0,0,44.38093,1,1,754,998
4787,66094067,1,0.002278467,0.007500473,-0.002138504,-0.2397072,0.2959852,-9.585467,0,0,44.38093,1,1,754,998
4790,66096156,1,-0.00133802,0.005848702,-0.001978368,-0.2328922,0.2962229,-9.630229,0,0,44.38093,1,1,754,998
4826,66098654,1,-0.002064091,0.006215086,-0.002548755,-0.2329917,0.3103294,-9.666698,0,0,44.38093,1,1,754,998
4829,66101009,1,-0.001042097,0.005555498,-0.002956081,-0.2335313,0.3272588,-9.717883,0,0,44.38139,1,1,754,998
4833,66104218,1,-0.001966518,0.005371521,-0.002165436,-0.225221,0.3285868,-9.748787999999999,0,0,44.38139,1,1,754,998
4836,66106426,1,-0.003850843,0.005352681,-0.001182749,-0.2119012,0.3129869,-9.795707,0,0,44.38139,1,1,754,998
4871,66109071,1,-0.002927976,0.003848865,0.003064875,-0.2130792,0.2782086,-9.813457,0,0,44.38139,1,1,754,998
4875,66111612,1,-0.003087456,0.002670256,0.004471242,-0.2340789,0.2669579,-9.809462999999999,0,0,44.38187,1,1,754,998
4878,66114290,1,-0.001910561,0.002681471,0.005013832,-0.2565872,0.2616129,-9.787117,0,0,44.38187,1,1,754,998
4881,66117026,1,-0.001075396,0.003180954,0.00496199,-0.2632157,0.2598015,-9.757605,0,0,44.38187,1,1,754,998
4920,66119880,1,-0.000135631,0.003051897,0.004815748,-0.2682645,0.2566927,-9.716666999999999,0,0,44.38187,1,1,754,998
4923,66122253,1,-0.004328664,0.002305712,-0.0006786367,-0.2662035,0.2690778,-9.708282000000001,0,0,44.38234,1,1,754,998
4926,66124269,1,-0.00515165,0.002638474,-0.003460412,-0.2601916,0.2746197,-9.705268,0,0,44.38234,1,1,754,998
4929,66127779,1,-0.004421022,0.005463433,-0.007678553,-0.2469588,0.2663652,-9.717535,0,0,44.38234,1,1,754,998
4964,66130613,1,-0.006088391,0.01278869,-0.008862877999999999,-0.2307993,0.2541958,-9.733738000000001,0,0,44.38234,1,1,754,998
4968,66132670,1,-0.007559134,0.013909,-0.008665686000000001,-0.2163921,0.2473682,-9.751150000000001,0,0,44.38234,1,1,754,998
4971,66135062,1,-0.009351559000000001,0.01296796,-0.008284702,-0.1916712,0.2476902,-9.777054,0,0,44.3828,1,1,754,998
4974,66137586,1,-0.008479228,0.008889483,-0.005818006,-0.1813683,0.2441254,-9.793570000000001,0,0,44.3828,1,1,754,998
5009,66140643,1,-0.008328830000000001,0.006185217,-0.001963351,-0.1759844,0.2406732,-9.817291000000001,0,0,44.3828,1,1,754,998
5012,66143797,1,-0.006779756,0.006825111,0.0005390631,-0.1820496,0.2426012,-9.817349,0,0,44.3828,1,1,754,998
5015,66144995,1,-0.005540807,0.006859606,0.00265082,-0.2115922,0.255897,-9.807143,0,0,44.38326,1,1,754,998
5018,66147816,1,-0.008025368999999999,0.004250767,0.003608326,-0.2408188,0.2694918,-9.802733,0,0,44.38326,1,1,754,998
5053,66150072,1,-0.009303908,0.0004046909,0.001534725,-0.2734321,0.2892373,-9.792583,0,0,44.38326,1,1,754,998
5056,66153851,1,-0.009047761,-0.001433223,-0.0003875569,-0.2840919,0.3003514,-9.779745,0,0,44.38326,1,1,754,998
5059,66155796,1,-0.003621867,-0.001196343,-0.003254756,-0.2784858,0.3121135,-9.751662,0,0,44.3837,1,1,754,998
5062,66157887,1,-0.001833464,0.0007014409,-0.001973246,-0.2736416,0.3183726,-9.736053999999999,0,0,44.3837,1,1,754,998
5097,66160024,1,-0.0002057401,0.003326105,0.001273088,-0.2837606,0.30912,-9.703002,0,0,44.3837,1,1,754,998
5100,66162859,1,-0.0009678337,0.004348038,0.002611281,-0.2942842,0.2910292,-9.668894999999999,0,0,44.3837,1,1,754,998
5103,66165388,1,-0.00164354,0.00570269,0.001805298,-0.2920686,0.2603355,-9.640416,0,0,44.3837,1,1,754,998
5106,66168739,1,-0.002007887,0.005638158,-0.001017537,-0.280393,0.2551597,-9.640855999999999,0,0,44.38413,1,1,754,998
5141,66171622,1,0.001130279,0.007951984,-0.002963055,-0.2730438,0.2552678,-9.675890000000001,0,0,44.38413,1,1,754,998
5145,66173798,1,0.002560516,0.009177039,-0.001856821,-0.2677886,0.2642664,-9.690922,0,0,44.38413,1,1,754,998
5148,66176036,1,0.004830895,0.01184533,0.000269413,-0.268542,0.2891547,-9.702662,0,0,44.38413,1,1,754,998
5151,66179159,1,0.004736114,0.0153837,0.0006869399,-0.2809805,0.3000116,-9.714627999999999,0,0,44.38454,1,1,754,998
5186,66181267,1,0.003000649,0.01674117,0.0008780817,-0.3030839,0.3024552,-9.736435,0,0,44.38454,1,1,754,998
5191,66184833,1,0.001636535,0.01646789,-0.001685312,-0.3149537,0.2928541,-9.759990999999999,0,0,44.38454,1,1,754,998
5194,66187004,1,0.002469584,0.01515872,-0.004751501,-0.3195505,0.2747433,-9.760135,0,0,44.38454,1,1,754,998
5197,66189624,1,0.002811273,0.01150812,-0.003376504,-0.322955,0.2494524,-9.737971,0,0,44.38495,1,1,754,998
5232,66191861,1,0.0008046106,0.01040732,0.0004173416,-0.3183261,0.2475505,-9.721781999999999,0,0,44.38495,1,1,754,998
5235,66194795,1,-6.709591e-06,0.01197902,0.001392763,-0.3091129,0.261468,-9.719359000000001,0,0,44.38495,1,1,754,998
5238,66197615,1,0.001205073,0.01065296,-0.0007613153,-0.3026831,0.2753555,-9.709903000000001,0,0,44.38495,1,1,754,998
5241,66199201,1,0.002308052,0.006317705,-0.0006245551,-0.2959148,0.2786862,-9.704171000000001,0,0,44.38535,1,1,754,998
5276,66202736,1,0.002553842,0.002239518,0.00177006,-0.2845031,0.274743,-9.702669,0,0,44.38535,1,1,754,998
5280,66204209,1,0.0008090207000000001,0.00278453,0.003511832,-0.2827975,0.2694243,-9.712107,0,0,44.38535,1,1,754,998
5283,66207437,1,0.001348923,0.005826557,0.003820744,-0.2811576,0.2715038,-9.732305,0,0,44.38535,1,1,754,998
5286,66209773,1,0.002574859,0.007902011,0.003102696,-0.2770533,0.2734696,-9.741669999999999,0,0,44.38535,1,1,754,998
5321,66211933,1,0.003008089,0.01052182,0.002816259,-0.2592036,0.264103,-9.738223,0,0,44.38576,1,1,754,998
5324,66215016,1,0.001297041,0.009791965999999999,0.002872081,-0.2451429,0.2577865,-9.747864999999999,0,0,44.38576,1,1,754,998
5327,66216858,1,-0.002806435,0.00879721,0.002652513,-0.2401673,0.2619564,-9.787584000000001,0,0,44.38576,1,1,754,998
5330,66219466,1,-0.002960231,0.00638402,0.003612705,-0.2467345,0.2665424,-9.810843,0,0,44.38576,1,1,754,998
5369,66222875,1,4.878642e-05,0.005159215,0.005415705,-0.2492517,0.2608757,-9.811560999999999,0,0,44.38619,1,1,754,998
5373,66224414,1,0.002779675,0.007132882,0.006235304,-0.2429027,0.2439178,-9.810758999999999,0,0,44.38619,1,1,754,998
5376,66227429,1,0.002222912,0.009459225999999999,0.006156175,-0.232709,0.2201094,-9.797278,0,0,44.38619,1,1,754,998
5379,66229360,1,0.001346915,0.01006132,0.005644404,-0.2296069,0.2040656,-9.762976999999999,0,0,44.38619,1,1,754,998
5414,66232268,1,0.001351136,0.005527726,0.0023979,-0.2440901,0.2013677,-9.719239,0,0,44.38664,1,1,754,998
5417,66234911,1,0.002007932,0.004347349,0.001493975,-0.27123,0.1931226,-9.699121,0,0,44.38664,1,1,754,998
5420,66236839,1,0.001205035,0.001234753,-0.0006499953,-0.2950174,0.1857985,-9.682667,0,0,44.38664,1,1,754,998
5424,66239980,1,-0.0003683316,0.001242212,-0.001530807,-0.3240669,0.1820874,-9.673199,0,0,44.38664,1,1,754,998
5459,66242467,1,-0.002535573,0.001721108,-0.002999871,-0.3469057,0.2048371,-9.667752999999999,0,0,44.38664,1,1,754,998
5463,66245240,1,-0.0007493036,-0.0007134092,-0.002306391,-0.358373,0.2256352,-9.662190000000001,0,0,44.38711,1,1,754,998
5466,66247439,1,0.0001826311,-0.001534816,-0.0004622657,-0.3575208,0.2270125,-9.646307999999999,0,0,44.38711,1,1,754,998
5469,66250361,1,0.001784815,-0.001716648,0.002595303,-0.3275276,0.2162422,-9.655365,0,0,44.38711,1,1,754,998
5504,66253245,1,0.002000217,0.0002343016,0.001267147,-0.2808215,0.210458,-9.691043000000001,0,0,44.38711,1,1,754,998
5510,66255870,1,0.001200679,0.0009842534,-0.000509423,-0.2543602,0.2105162,-9.706191,0,0,44.38759,1,1,754,998
5513,66264202,1,-0.006988322,0.006605808,-0.01024397,-0.183271,0.2239206,-9.644978999999999,0,0,44.38759,1,1,754,998
5548,66267058,1,-0.006686947,0.004280605,-0.007835994000000001,-0.1827225,0.2050745,-9.648911999999999,0,0,44.38809,1,1,754,998
5551,66270595,1,-0.006955904,0.003569581,-0.004610894,-0.1823457,0.1951914,-9.666864,0,0,44.38809,1,1,754,998
5554,66272621,1,-0.006319977,0.003295686,-0.001005162,-0.1833392,0.2075779,-9.700869000000001,0,0,44.38809,1,1,754,998
5557,66274821,1,-0.00512148,0.002923201,3.174825e-05,-0.1800521,0.2209966,-9.726445,0,0,44.38809,1,1,754,998
5593,66277038,1,0.001254504,0.005196699,-0.002151961,-0.1810425,0.2388434,-9.753272000000001,0,0,44.38861,1,1,754,998
5596,66280157,1,0.003152415,0.006057356,-0.003659175,-0.1891346,0.2491409,-9.752223000000001,0,0,44.38861,1,1,754,998
5599,66282986,1,0.005603808,0.008728908,-0.007823613,-0.2118477,0.2638118,-9.741699000000001,0,0,44.38861,1,1,754,998
5602,66285615,1,0.004586943,0.0118076,-0.01021298,-0.2253958,0.2616337,-9.727147,0,0,44.38861,1,1,754,998
5637,66288247,1,-0.001526854,0.01615914,-0.008867539000000001,-0.2451603,0.2542266,-9.693491,0,0,44.38913,1,1,754,998
5642,66290350,1,-0.003600685,0.01783721,-0.005941262,-0.25933,0.2524466,-9.677068,0,0,44.38913,1,1,754,998
5645,66293643,1,-0.006715347,0.01582052,-0.00485713,-0.2683593,0.2484721,-9.632866999999999,0,0,44.38913,1,1,754,998
5648,66295425,1,-0.008008684,0.01460568,-0.006633874,-0.2750089,0.2567164,-9.611025,0,0,44.38913,1,1,754,998
5683,66298760,1,-0.008379918,0.009490145,-0.01096674,-0.2718219,0.2921914,-9.610887,0,0,44.38967,1,1,754,998
5686,66300554,1,-0.007165337,0.007736352,-0.01013258,-0.2672193,0.3102529,-9.617620000000001,0,0,44.38967,1,1,754,998
5689,66303134,1,-0.003523053,0.006051038,-0.004140115,-0.2628238,0.3222592,-9.630087,0,0,44.38967,1,1,754,998
5692,66305836,1,-0.002663573,0.005239676,0.003217321,-0.2632891,0.3255608,-9.637301000000001,0,0,44.38967,1,1,754,998
5727,66308436,1,-0.003517299,0.007716133,0.005111351,-0.2829182,0.3274836,-9.678554999999999,0,0,44.38967,1,1,754,998
5732,66311274,1,-0.00341418,0.01080138,0.002767462,-0.3070525,0.3214972,-9.715370999999999,0,0,44.39019,1,1,754,998
5735,66313627,1,-0.002962901,0.01262166,0.0003866054,-0.3385359,0.3080014,-9.757925,0,0,44.39019,1,1,754,998
5738,66316010,1,-0.003363544,0.01245406,8.56515e-05,-0.3510238,0.2978088,-9.781442999999999,0,0,44.39019,1,1,754,998
5773,66319028,1,-0.003960656,0.01045866,0.0009121294,-0.3469518,0.2822966,-9.802633999999999,0,0,44.39019,1,1,754,998
5776,66320955,1,-0.00512503,0.01037405,0.001501513,-0.3334573,0.2660359,-9.799852,0,0,44.3907,1,1,754,998
5779,66324017,1,-0.008329951,0.008709669,0.001747158,-0.3079628,0.2477392,-9.788798,0,0,44.3907,1,1,754,998
5786,66326180,1,-0.009456892,0.005635008,0.001666585,-0.2924502,0.2501647,-9.782688,0,0,44.3907,1,1,754,998
5821,66328734,1,-0.01033269,0.003099005,0.00163199,-0.2767648,0.251972,-9.789268,0,0,44.3907,1,1,754,998
5825,66331219,1,-0.01078608,0.002309158,-2.051298e-05,-0.2685409,0.2458427,-9.80462,0,0,44.3907,1,1,754,998
5828,66333625,1,-0.009099968999999999,0.004439973,-0.001117316,-0.2593934,0.2223439,-9.804321,0,0,44.39119,1,1,754,998
5831,66336277,1,-0.005583576,0.007521737,0.001598853,-0.2485618,0.2056457,-9.796723999999999,0,0,44.39119,1,1,754,998
5868,66338898,1,-0.002205219,0.007538691,0.004875405,-0.2337068,0.1958264,-9.772921999999999,0,0,44.39119,1,1,754,998
5871,66341824,1,0.0002758388,0.007669793,0.00545848,-0.2178027,0.1874843,-9.784145000000001,0,0,44.39119,1,1,754,998
5874,66343920,1,0.0008158213,0.008349048,0.003158951,-0.2100667,0.1922638,-9.820422000000001,0,0,44.3917,1,1,754,998
5877,66346379,1,-0.001620053,0.009729875000000001,0.001596311,-0.192804,0.2114831,-9.857075999999999,0,0,44.3917,1,1,754,998
5912,66349285,1,-0.003321192,0.01131372,0.0008916953,-0.1784434,0.2248711,-9.863384999999999,0,0,44.3917,1,1,754,998
5916,66351393,1,-0.006604335,0.01217415,0.001883012,-0.1654473,0.232355,-9.849066000000001,0,0,44.3917,1,1,754,998
5919,66353970,1,-0.007460255,0.01131191,0.002550669,-0.1627565,0.2317415,-9.81859,0,0,44.39221,1,1,754,998
5922,66356812,1,-0.009326696000000001,0.01055581,0.001444882,-0.1684307,0.2407504,-9.778693000000001,0,0,44.39221,1,1,754,998
5957,66359054,1,-0.009364473999999999,0.01134541,-0.001180467,-0.1880194,0.2630642,-9.751836000000001,0,0,44.39221,1,1,754,998
5961,66362523,1,-0.008801985,0.01216391,-0.00201653,-0.1943919,0.2825154,-9.743914,0,0,44.39221,1,1,754,998
5964,66364064,1,-0.00446579,0.01245261,-0.0001580836,-0.1908459,0.2966265,-9.724653,0,0,44.39274,1,1,754,998
5967,66368205,1,-0.003473861,0.01168246,0.0007188925,-0.1878692,0.2865636,-9.714321,0,0,44.39274,1,1,754,998
5970,66369404,1,-0.00175067,0.01083039,0.002821715,-0.1742374,0.2724452,-9.731035,0,0,44.39274,1,1,754,998
6005,66371844,1,-0.001162637,0.009845247,0.001769135,-0.1571666,0.2627432,-9.746919999999999,0,0,44.39274,1,1,754,998
6008,66375761,1,-0.002139947,0.008659706,0.0007252512,-0.1556771,0.2653109,-9.737829,0,0,44.39274,1,1,754,998
6011,66377184,1,-0.004176702,0.007082269,-0.0002052229,-0.1636505,0.2843446,-9.701632,0,0,44.39326,1,1,754,998
6014,66379802,1,-0.003028744,0.005569638,-3.531845e-05,-0.1671601,0.2928775,-9.688173000000001,0,0,44.39326,1,1,754,998
6050,66382812,1,-0.002373799,0.004129722,8.671536999999999e-06,-0.1687102,0.2962655,-9.672283999999999,0,0,44.39326,1,1,754,998
6053,66384742,1,-0.00475808,0.004267121,0.0003744308,-0.1717184,0.2916687,-9.660518,0,0,44.39326,1,1,754,998
6056,66387469,1,-0.006776092,0.007016215,0.001448636,-0.1888907,0.2811254,-9.654709,0,0,44.39378,1,1,754,998
6059,66390178,1,-0.005879321,0.008734927,0.002613813,-0.2015892,0.2725695,-9.661864,0,0,44.39378,1,1,754,998
6094,66392513,1,0.00101361,0.01039165,0.004935201,-0.2212743,0.2769421,-9.68491,0,0,44.39378,1,1,754,998
6097,66395810,1,0.0034181,0.01059532,0.003063672,-0.2454478,0.2942506,-9.701663999999999,0,0,44.39378,1,1,754,998
6100,66397298,1,0.003312812,0.009298713,0.001482416,-0.2527167,0.303459,-9.711973,0,0,44.39431,1,1,754,998
6103,66400275,1,0.0004949751,0.009327703,0.001355014,-0.2579984,0.3115872,-9.722284,0,0,44.39431,1,1,754,998
6138,66403006,1,-0.0004274573,0.008666676,0.001861917,-0.2763991,0.3041103,-9.731413,0,0,44.39431,1,1,754,998
6142,66405477,1,-0.0006022223,0.008079129000000001,0.001523935,-0.2992522,0.2894033,-9.742646000000001,0,0,44.39431,1,1,754,998
6146,66408203,1,-0.001745927,0.008209965,0.001362906,-0.3194026,0.2755248,-9.766806000000001,0,0,44.39431,1,1,754,998
6149,66410575,1,-0.002394737,0.008379439000000001,0.0009288052,-0.3323809,0.2667062,-9.802681,0,0,44.39484,1,1,754,998
6184,66413765,1,-0.0009343618,0.01094267,-0.000227723,-0.3266107,0.2717714,-9.826817,0,0,44.39484,1,1,754,998
6188,66415986,1,-0.0006500643,0.01233737,-0.0005443576,-0.3245308,0.2815061,-9.830532,0,0,44.39484,1,1,754,998
6191,66418157,1,-0.001556104,0.01291919,-0.001152433,-0.3227938,0.2984095,-9.816019000000001,0,0,44.39484,1,1,754,998
6194,66420427,1,-0.002580086,0.01104553,-0.0003800195,-0.3133427,0.3092566,-9.798952999999999,0,0,44.39537,1,1,754,998
6229,66422954,1,-0.003304721,0.01004716,0.0003911546,-0.2802415,0.3038263,-9.765793,0,0,44.39537,1,1,754,998
6232,66426000,1,-0.00505948,0.008758517,-0.0004361716,-0.2570023,0.2861869,-9.743489,0,0,44.39537,1,1,754,998
6239,66429026,1,-0.004564871,0.009210776,-0.000839331,-0.2368282,0.2717683,-9.726286,0,0,44.39537,1,1,754,998
6242,66430274,1,-0.004177093,0.009803375,-0.001263003,-0.2094251,0.2648835,-9.708097,0,0,44.39592,1,1,754,998
6277,66433000,1,-0.00398316,0.01037465,-0.0002476765,-0.1989942,0.2536271,-9.712218999999999,0,0,44.39592,1,1,754,998
6281,66435492,1,-0.003845215,0.01079916,0.001702309,-0.2051543,0.2540246,-9.726475000000001,0,0,44.39592,1,1,754,998
6285,66438613,1,-0.003889492,0.01065783,0.003299023,-0.216378,0.2687448,-9.737314,0,0,44.39592,1,1,754,998
6288,66440826,1,-0.004798869,0.009194266,0.001004943,-0.2417959,0.2970081,-9.761920999999999,0,0,44.39592,1,1,754,998
6323,66443414,1,-0.004761918,0.01103231,-0.0001067683,-0.253906,0.3291574,-9.77896,0,0,44.39648,1,1,754,998
6326,66445669,1,-0.002598248,0.01391504,0.0004926112,-0.2530479,0.335931,-9.78158,0,0,44.39648,1,1,754,998
6329,66448442,1,0.0001411642,0.0155995,0.001790189,-0.2439738,0.3305184,-9.770693,0,0,44.39648,1,1,754,998
6332,66451313,1,0.0004551269,0.01542665,0.002776881,-0.2337891,0.3172541,-9.765222,0,0,44.39648,1,1,754,998
6367,66454238,1,-0.001787313,0.01470148,0.002335259,-0.2280563,0.2808868,-9.777702,0,0,44.39705,1,1,754,998
6371,66456213,1,-0.003405647,0.01449704,0.001757801,-0.2292594,0.2578852,-9.774421999999999,0,0,44.39705,1,1,754,998
6374,66459205,1,-0.006842906,0.01315821,0.0008664145,-0.2340105,0.2374924,-9.762473,0,0,44.39705,1,1,754,998
6379,66461952,1,-0.007061271,0.01004058,0.002337637,-0.2420303,0.2144031,-9.751268,0,0,44.39705,1,1,754,998
6414,66470236,1,-0.002317993,0.003234199,0.003456512,-0.2236549,0.2432787,-9.699589,0,0,44.39762,1,1,754,998
6418,66473259,1,-0.002185139,0.001194508,-0.0006493094,-0.221148,0.2502565,-9.701632,0,0,44.39762,1,1,754,998
6453,66476783,1,-0.001715773,-0.0001433498,-0.001489266,-0.226995,0.2517231,-9.716063999999999,0,0,44.39815,1,1,754,998
6456,66479010,1,0.002857874,0.0005495359,-0.0009880186,-0.2325548,0.2561827,-9.736821000000001,0,0,44.39815,1,1,754,998
6459,66480851,1,0.004483892,0.002754791,-0.0001482398,-0.233829,0.2545919,-9.745839,0,0,44.39815,1,1,754,998
6462,66483369,1,0.004878331,0.007345243,-7.59466e-05,-0.2435245,0.248957,-9.762316,0,0,44.39815,1,1,754,998
6497,66485746,1,0.002899729,0.009048710999999999,-0.002104661,-0.2590929,0.2520121,-9.778544,0,0,44.39866,1,1,754,998
6500,66488753,1,0.001761462,0.009221955,-0.001582337,-0.267782,0.2552631,-9.789472,0,0,44.39866,1,1,754,998
6503,66491410,1,-0.001925225,0.009182998,-0.0005875674,-0.2812302,0.2536138,-9.788781999999999,0,0,44.39866,1,1,754,998
6507,66493033,1,-0.005187658,0.01007237,-0.002512621,-0.3066669,0.2571068,-9.752108,0,0,44.39866,1,1,754,998
6542,66495860,1,-0.006460832,0.009327521,-0.0009564708,-0.3196246,0.2749636,-9.719441,0,0,44.39866,1,1,754,998
6545,66498220,1,-0.005645101,0.0107665,0.003227441,-0.3213131,0.3014351,-9.703728999999999,0,0,44.39917,1,1,754,998
6548,66501162,1,-0.005052041,0.01208468,0.005544421,-0.3135867,0.3187259,-9.714724,0,0,44.39917,1,1,754,998
6552,66503806,1,-0.00430204,0.0109231,0.009437543,-0.2829422,0.3447201,-9.739108999999999,0,0,44.39917,1,1,754,998
6587,66506147,1,-0.002579417,0.00734407,0.006123089,-0.246929,0.3525473,-9.749181999999999,0,0,44.39917,1,1,754,998
6590,66509012,1,-0.001568346,0.004938728,0.004382271,-0.2274803,0.3472083,-9.73601,0,0,44.39965,1,1,754,998
6595,66511850,1,-0.00038086,-0.0004822913,0.001207146,-0.2133312,0.3477558,-9.714226999999999,0,0,44.39965,1,1,754,998
6598,66513866,1,8.02214e-05,-0.001732721,0.002003265,-0.2131254,0.356309,-9.708105,0,0,44.39965,1,1,754,998
6633,66516851,1,0.0009824734999999999,-0.002908786,0.00464201,-0.2207209,0.37247,-9.693530000000001,0,0,44.39965,1,1,754,998
6636,66518960,1,0.001630775,-0.001515662,0.005455127,-0.2371015,0.3687976,-9.689489999999999,0,0,44.40009,1,1,754,998
6639,66521273,1,0.001696603,-1.843705e-05,0.0046129,-0.2658483,0.3719673,-9.685318000000001,0,0,44.40009,1,1,754,998
6643,66524387,1,0.001089834,0.001991143,0.004333537,-0.2807783,0.3740121,-9.696301,0,0,44.40009,1,1,754,998
6678,66527294,1,0.001543181,0.007420355,0.003596923,-0.3099245,0.3827896,-9.711258000000001,0,0,44.40009,1,1,754,998
6681,66529438,1,0.001581363,0.006651073,0.003482876,-0.3202555,0.3831773,-9.711148,0,0,44.40049,1,1,754,998
6688,66532205,1,0.0003455701,0.001891734,0.003734109,-0.3245687,0.3769749,-9.705042000000001,0,0,44.40049,1,1,754,998
6691,66534357,1,-0.002443704,-0.002406405,0.003255117,-0.3131493,0.3925293,-9.686206,0,0,44.40049,1,1,754,998
6726,66537209,1,-0.003326523,-0.004262171,0.003241539,-0.2945107,0.4126163,-9.681279999999999,0,0,44.40049,1,1,754,998
6729,66539961,1,-0.004950308,-0.0007951301,0.002285954,-0.2646105,0.429883,-9.66934,0,0,44.40049,1,1,754,998
6732,66541881,1,-0.004511633,0.00291861,0.002080421,-0.2489969,0.4345081,-9.658068999999999,0,0,44.40089,1,1,754,998
6736,66544187,1,-0.00207638,0.01006042,0.003146874,-0.2329447,0.4417601,-9.640489000000001,0,0,44.40089,1,1,754,998
6771,66546946,1,-0.00154469,0.01062151,0.003424458,-0.2274796,0.4425749,-9.635892,0,0,44.40089,1,1,754,998
6774,66550046,1,-0.001081848,0.009842198999999999,0.002788183,-0.2371822,0.4227578,-9.615360000000001,0,0,44.40089,1,1,754,998
6777,66552291,1,0.0009065514,0.00868125,0.001962028,-0.2499117,0.3938584,-9.602461,0,0,44.40129,1,1,754,998
6781,66554282,1,0.0004256788,0.009305555,0.0001779475,-0.2665193,0.3417709,-9.616073,0,0,44.40129,1,1,754,998
6816,66556623,1,-0.0002256783,0.01036981,0.0001872774,-0.2748603,0.3065082,-9.640345,0,0,44.40129,1,1,754,998
6819,66559264,1,0.0005791523,0.0103398,0.0005995347,-0.2845335,0.2853281,-9.671946999999999,0,0,44.40129,1,1,754,998
6822,66562650,1,0.001599199,0.01048126,0.0001485114,-0.2893976,0.2915944,-9.698232000000001,0,0,44.40129,1,1,754,998
6825,66565054,1,0.004767973,0.01128876,0.001009859,-0.2936541,0.2926747,-9.724461,0,0,44.4017,1,1,754,998
6860,66567395,1,0.005679635,0.01211855,0.00269137,-0.2913262,0.2863953,-9.732423000000001,0,0,44.4017,1,1,754,998
6863,66570167,1,0.004441215,0.01276409,0.001932555,-0.2840616,0.2719856,-9.730221,0,0,44.4017,1,1,754,998
6866,66572815,1,0.001030112,0.01077518,-0.001336494,-0.2867988,0.2595348,-9.73617,0,0,44.4017,1,1,754,998
6870,66576057,1,-0.001639638,0.005811589,-0.00566437,-0.2847332,0.2392341,-9.747292,0,0,44.40212,1,1,754,998
6905,66579166,1,-0.002658325,0.004452651,-0.008311394,-0.2828534,0.2225966,-9.780255,0,0,44.40212,1,1,754,998
6908,66580815,1,-0.005830577,0.01028978,-0.009826270999999999,-0.2856477,0.2339346,-9.800307999999999,0,0,44.40212,1,1,754,998
6911,66583736,1,-0.006256047,0.01163103,-0.009842996,-0.2873533,0.2533549,-9.796881000000001,0,0,44.40212,1,1,754,998
6914,66586408,1,-0.006653296,0.01258111,-0.008409664000000001,-0.2793956,0.26511,-9.794366999999999,0,0,44.40256,1,1,754,998
6949,66589415,1,-0.004979675,0.01450446,-0.006266048,-0.2754552,0.2772594,-9.794340999999999,0,0,44.40256,1,1,754,998
6952,66591851,1,-0.004382217,0.01415784,-0.005985555,-0.2724598,0.2774787,-9.79649,0,0,44.40256,1,1,754,998
6955,66594168,1,-0.003119573,0.01348376,-0.003918845,-0.2502976,0.2667549,-9.793219000000001,0,0,44.40256,1,1,754,998
6960,66596275,1,-0.002083663,0.01067784,0.0005989139000000001,-0.2288257,0.2619039,-9.784416999999999,0,0,44.40301,1,1,754,998
6995,66599484,1,6.339153e-05,0.008044825,0.003396472,-0.2044768,0.2491455,-9.764851,0,0,44.40301,1,1,754,998
6999,66602009,1,0.0007954401,0.006129939,0.003865953,-0.200381,0.2343822,-9.765623,0,0,44.40301,1,1,754,998
7002,66604352,1,0.0003536905,0.004532785,0.003792203,-0.2124723,0.2168415,-9.766641999999999,0,0,44.40301,1,1,754,998
7005,66606400,1,-0.001598431,8.933182000000001e-05,0.002572463,-0.234976,0.2024749,-9.764498,0,0,44.40347,1,1,754,998
7040,66609037,1,-0.005691851,-0.00342355,0.0002787165,-0.240216,0.1931472,-9.742957000000001,0,0,44.40347,1,1,754,998
7043,66612147,1,-0.005408656,-0.001477139,0.0004296764,-0.2477174,0.1888148,-9.721499,0,0,44.40347,1,1,754,998
7047,66614234,1,-0.00222289,0.006310419,0.00036416,-0.2612641,0.1953445,-9.685544,0,0,44.40347,1,1,754,998
7051,66617036,1,-0.001579278,0.008222607999999999,0.0005419329000000001,-0.2718593,0.2051705,-9.668566,0,0,44.40347,1,1,754,998
7086,66619454,1,-0.001764062,0.009772360000000001,0.002729117,-0.2728522,0.2205568,-9.678159000000001,0,0,44.40395,1,1,754,998
7089,66622748,1,-0.003276045,0.007990232,0.006239881,-0.2686791,0.2334775,-9.692857999999999,0,0,44.40395,1,1,754,998
7092,66624695,1,-0.004968201,0.005586391,0.008110267000000001,-0.2647119,0.2391397,-9.688133000000001,0,0,44.40395,1,1,754,998
7096,66627167,1,-0.00497245,0.004974589,0.005713382,-0.2704648,0.2532795,-9.674047,0,0,44.40395,1,1,754,998
7131,66630059,1,-0.004568635,0.005687962,0.002250519,-0.2868227,0.2640198,-9.680923,0,0,44.40443,1,1,754,998
7134,66631914,1,-0.003544837,0.006965336,0.001628197,-0.30122,0.2599537,-9.713179999999999,0,0,44.40443,1,1,754,998
7141,66635188,1,-0.001815704,0.006022569,0.000684323,-0.3077172,0.25152,-9.740724,0,0,44.40443,1,1,754,998
7144,66637217,1,-0.001047946,0.005973163,0.0004753569,-0.3075531,0.2527149,-9.754578,0,0,44.40443,1,1,754,998
7179,66639648,1,-0.001564125,0.006221728,0.0005423524,-0.3115202,0.2517413,-9.746829,0,0,44.40493,1,1,754,998
7182,66642751,1,-0.003306996,0.004387514,-0.002748981,-0.318076,0.2466078,-9.746899000000001,0,0,44.40493,1,1,754,998
7185,66644700,1,-0.003281648,0.00342582,-0.004668628,-0.3219007,0.2542706,-9.746468,0,0,44.40493,1,1,754,998
7189,66647451,1,-0.002452695,0.002084079,-0.00704621,-0.32058,0.2673762,-9.752789,0,0,44.40493,1,1,754,998
7224,66650054,1,-0.00101357,0.003445321,-0.0006715439,-0.3212558,0.2626328,-9.759197,0,0,44.40544,1,1,754,998
7228,66652876,1,-0.001586586,0.004641538,0.002697021,-0.3224978,0.2615417,-9.767590999999999,0,0,44.40544,1,1,754,998
7231,66655301,1,-0.005796504,0.006801213,0.006227575,-0.3098585,0.2793772,-9.790196999999999,0,0,44.40544,1,1,754,998
7234,66658359,1,-0.00935449,0.00775214,0.002662201,-0.2959369,0.2861322,-9.79734,0,0,44.40544,1,1,754,998
7269,66660881,1,-0.008645207,0.008402241,-0.004564291,-0.2832025,0.2735839,-9.801584,0,0,44.40544,1,1,754,998
7272,66663655,1,-0.004540318,0.007740658,-0.00442029,-0.2650273,0.2782009,-9.762361,0,0,44.40596,1,1,754,998
7275,66666397,1,-0.003241252,0.007002316,-0.00185503,-0.2580739,0.3038889,-9.723822,0,0,44.40596,1,1,754,998
7281,66668974,1,-0.001286397,0.00678851,0.002366165,-0.2464075,0.3430433,-9.682897000000001,0,0,44.40596,1,1,754,998
7316,66674295,1,0.002312747,0.003417534,0.006412996,-0.2460589,0.3524227,-9.659722,0,0,44.40649,1,1,754,998
7319,66679825,1,-0.002520947,0.004301454,0.004488821,-0.2164983,0.33959,-9.675656,0,0,44.40649,1,1,754,998
7354,66683822,1,-0.004793138,0.006949836,0.001125397,-0.2236285,0.3256295,-9.683446,0,0,44.40649,1,1,754,998
7357,66685026,1,-0.005062217,0.008992132,-0.003656034,-0.2483718,0.301746,-9.691413000000001,0,0,44.40702,1,1,754,998
7360,66687822,1,-0.006423813,0.01049917,-0.007586082,-0.2544652,0.2801847,-9.695391000000001,0,0,44.40702,1,1,754,998
7363,66691034,1,-0.00752834,0.01196668,-0.00969134,-0.2527379,0.2417329,-9.698043999999999,0,0,44.40702,1,1,754,998
7399,66693750,1,-0.007560463,0.01025553,-0.008202038,-0.2543172,0.1936816,-9.712968,0,0,44.40702,1,1,754,998
7403,66696443,1,-0.008406969,0.008664,-0.007295826,-0.2502908,0.1800458,-9.746961000000001,0,0,44.40758,1,1,754,998
7406,66698555,1,-0.006472689,0.01319961,-0.007100494,-0.2437692,0.1800666,-9.758108999999999,0,0,44.40758,1,1,754,998
7410,66701021,1,-0.003542368,0.01752466,-0.004746587,-0.2388089,0.1633933,-9.737560999999999,0,0,44.40758,1,1,754,998
7445,66703790,1,-0.003348418,0.01711391,-0.001718051,-0.2525133,0.1514652,-9.730904000000001,0,0,44.40758,1,1,754,998
7449,66706776,1,-0.003075013,0.0148874,0.0004356119,-0.2778423,0.1449763,-9.75048,0,0,44.40813,1,1,754,998
7453,66709226,1,-0.002752278,0.013669,0.001313195,-0.2810224,0.1450148,-9.764711999999999,0,0,44.40813,1,1,754,998
7456,66710844,1,-0.003548367,0.0141947,0.00218397,-0.2792272,0.1471663,-9.779608,0,0,44.40813,1,1,754,998
7491,66713427,1,-0.004571545,0.01514931,0.001812161,-0.2838585,0.1459664,-9.772959,0,0,44.40813,1,1,754,998
7495,66715831,1,-0.004666922,0.01346419,-0.001480614,-0.2965109,0.1494942,-9.756201000000001,0,0,44.40813,1,1,754,998
7498,66719000,1,-0.004221429,0.01087592,-0.002197305,-0.3009246,0.1676458,-9.742328000000001,0,0,44.4087,1,1,754,998
7501,66721847,1,-0.004482112,0.007671835,-0.001861711,-0.3056225,0.2156991,-9.732488999999999,0,0,44.4087,1,1,754,998
7536,66724188,1,-0.002585974,0.008560468999999999,0.003881509,-0.3095047,0.2545938,-9.741930999999999,0,0,44.4087,1,1,754,998
7540,66727218,1,0.00148372,0.009112531,0.002596479,-0.3254779,0.271412,-9.756371,0,0,44.4087,1,1,754,998
7543,66729668,1,0.003006921,0.008689845,0.0002824614,-0.335367,0.2784337,-9.758468000000001,0,0,44.40929,1,1,754,998
7546,66732747,1,0.006391975,0.007006978,-0.006651513,-0.3455443,0.2810344,-9.745502999999999,0,0,44.40929,1,1,754,998
7581,66735418,1,0.007126762,0.007592783,-0.007860238,-0.3412492,0.2652561,-9.742827,0,0,44.40929,1,1,754,998
7585,66737653,1,0.006523436,0.00825243,-0.008016522999999999,-0.3230225,0.2603175,-9.747780000000001,0,0,44.40929,1,1,754,998
7592,66740203,1,-0.005837567,0.009812727,-0.007038003,-0.2912745,0.265406,-9.742998999999999,0,0,44.40988,1,1,754,998
7595,66742950,1,-0.008987212,0.009503457,-0.007335555,-0.2809696,0.2719657,-9.731657,0,0,44.40988,1,1,754,998
7630,66745771,1,-0.004969886,0.007004205,-0.007904814,-0.2684949,0.2646005,-9.728376000000001,0,0,44.40988,1,1,754,998
7633,66748055,1,0.003889938,0.005960294,-0.006160571,-0.2591293,0.2345954,-9.729468000000001,0,0,44.40988,1,1,754,998
7636,66750211,1,0.004888114,0.007918234,-0.001515964,-0.2544675,0.1884241,-9.723915,0,0,44.41047,1,1,754,998
7639,66753249,1,-0.002880171,0.01074743,-0.0003263112,-0.2520056,0.1759976,-9.724034,0,0,44.41047,1,1,754,998
7674,66756199,1,-0.004662815,0.01144332,-0.002412979,-0.2362691,0.1842719,-9.739163,0,0,44.41047,1,1,754,998
7678,66758485,1,0.001831836,0.009662096,-0.003657491,-0.217461,0.1924453,-9.75263,0,0,44.41047,1,1,754,998
7681,66760751,1,0.007043123,0.009097228000000001,-0.001524644,-0.2114747,0.1855914,-9.754110000000001,0,0,44.41108,1,1,754,998
7684,66763399,1,0.00165844,0.01048331,-0.0003878886,-0.2128307,0.1689564,-9.752048,0,0,44.41108,1,1,754,998
7719,66766184,1,-0.008515748,0.01187084,-0.000884881,-0.2082161,0.1662652,-9.727281,0,0,44.41108,1,1,754,998
7722,66768905,1,-0.008559993,0.004452936,-0.002156252,-0.2007762,0.1858749,-9.709823999999999,0,0,44.41108,1,1,754,998
7726,66770836,1,-0.001377674,-0.001396992,-0.002527023,-0.2076001,0.2153971,-9.724695000000001,0,0,44.41108,1,1,754,998
7730,66773640,1,0.01599996,-0.0009486104,-0.000371213,-0.2611862,0.2307007,-9.78872,0,0,44.41169,1,1,754,998
7765,66776420,1,-0.008565665,0.01542835,0.006716027,-0.28058,0.236573,-9.791463,0,0,44.41169,1,1,754,998
7769,66778926,1,-0.02254743,0.01982082,0.0104692,-0.2656548,0.2828237,-9.766337999999999,0,0,44.41169,1,1,754,998
7772,66782255,1,-0.000576283,0.001381098,0.007647671,-0.2683618,0.3279797,-9.786547000000001,0,0,44.41169,1,1,754,998
7775,66783831,1,0.01764568,-0.004823739,0.004646813,-0.305562,0.2792516,-9.834669999999999,0,0,44.41231,1,1,754,998
7810,66786157,1,0.01935172,0.004262787,0.004973185,-0.3357351,0.2143875,-9.887456,0,0,44.41231,1,1,754,998
7813,66788905,1,-0.01654392,0.02698609,0.009925274,-0.3138534,0.2508056,-9.889939999999999,0,0,44.41231,1,1,754,998
7816,66791255,1,-0.01909077,0.02425263,0.008546227999999999,-0.2943538,0.2733126,-9.872605,0,0,44.41231,1,1,754,998
7819,66794429,1,0.01071601,-0.001108353,0.005370625,-0.3108725,0.209511,-9.855574000000001,0,0,44.4129,1,1,754,998
7854,66797606,1,-0.002539607,0.003978657,0.006077398,-0.3573435,0.1297305,-9.863375,0,0,44.4129,1,1,754,998
7858,66799270,1,-0.01659334,0.01781151,0.00649407,-0.3546279,0.161352,-9.896265,0,0,44.4129,1,1,754,998
7861,66802022,1,-0.006864435,0.02166574,0.003929058,-0.3280421,0.195301,-9.891265000000001,0,0,44.4129,1,1,754,998
7864,66804284,1,0.003023877,0.009553803,0.002360543,-0.316085,0.187968,-9.83634,0,0,44.4129,1,1,754,998
7899,66807266,1,-0.0002572055,-0.006380488,-0.001927005,-0.3477299,0.1978946,-9.756738,0,0,44.41348,1,1,754,998
7903,66810260,1,-0.01828282,0.001482529,-0.002211313,-0.3570808,0.2594964,-9.731721,0,0,44.41348,1,1,754,998
7906,66811960,1,-0.01231364,0.01166475,-0.002825761,-0.3374918,0.3064066,-9.731184000000001,0,0,44.41348,1,1,754,998
7909,66814419,1,0.01038138,0.009276006999999999,-0.003488956,-0.3112012,0.2841901,-9.755595,0,0,44.41348,1,1,754,998
7944,66816761,1,0.008584028,0.004873286,-0.003901406,-0.3114747,0.2412923,-9.747363,0,0,44.41404,1,1,754,998
7947,66820238,1,-0.001580019,0.004768242,-0.002767882,-0.3079755,0.2389048,-9.75141,0,0,44.41404,1,1,754,998
7950,66822630,1,-0.01451809,0.009602658,0.001829444,-0.3172611,0.2312544,-9.764188000000001,0,0,44.41404,1,1,754,998
7953,66824495,1,-0.009577504000000001,0.01291462,0.00394107,-0.3362409,0.1961753,-9.74957,0,0,44.41404,1,1,754,998
7988,66827029,1,-0.001176275,0.01710121,0.008485698999999999,-0.3134149,0.1621239,-9.725103000000001,0,0,44.4146,1,1,754,998
7992,66829427,1,-0.00193396,0.01005682,0.008555383,-0.2734776,0.1779256,-9.712661000000001,0,0,44.4146,1,1,754,998
7996,66832742,1,-0.0009831598,-0.006663036,0.003353257,-0.2581928,0.2053735,-9.712083,0,0,44.4146,1,1,754,998
7999,66835015,1,-4.642257e-06,-0.008747540999999999,-0.0009757731,-0.2762064,0.2034353,-9.712698,0,0,44.4146,1,1,754,998
8036,66837223,1,-0.008359834999999999,0.01423115,-0.001266654,-0.2568399,0.2188388,-9.697421,0,0,44.4146,1,1,754,998
8039,66839966,1,-0.01251758,0.02458487,0.001512951,-0.1929296,0.2714701,-9.678596000000001,0,0,44.41517,1,1,754,998
8046,66843164,1,0.002669591,0.001234876,-0.001432371,-0.1986614,0.2979427,-9.678101,0,0,44.41517,1,1,754,998
8049,66845582,1,0.01096876,-0.009590468,-0.004433448,-0.2475271,0.300211,-9.699603,0,0,44.41517,1,1,754,998
8084,66848647,1,-0.004175168,0.0126696,-0.000632073,-0.2615317,0.3165557,-9.751226000000001,0,0,44.41517,1,1,754,998
8088,66850484,1,-0.02487814,0.03430258,0.005511743,-0.2207538,0.371575,-9.761646000000001,0,0,44.41574,1,1,754,998
8092,66853184,1,-0.01207341,0.01594385,0.002768782,-0.2170015,0.4131706,-9.735379999999999,0,0,44.41574,1,1,754,998
8097,66855790,1,0.01581408,-0.005163671,-0.002524343,-0.262087,0.3942939,-9.731983,0,0,44.41574,1,1,754,998
8132,66864400,1,-0.02374434,0.01997989,-0.000248175,-0.264727,0.3490073,-9.776586999999999,0,0,44.41629,1,1,754,998
8136,66866851,1,0.001320506,0.002009758,-0.005389285,-0.284475,0.3187667,-9.750477999999999,0,0,44.41629,1,1,754,998
8171,66869869,1,0.01573026,0.003954318,-0.008269486,-0.2735859,0.2537097,-9.741846000000001,0,0,44.41629,1,1,754,998
8174,66871813,1,-0.002094969,0.01810002,-0.01110869,-0.2421731,0.242919,-9.756617,0,0,44.41683,1,1,754,998
8177,66874804,1,-0.01983558,0.02015396,-0.01611252,-0.2283758,0.2644546,-9.78778,0,0,44.41683,1,1,754,998
8180,66876780,1,-0.009108288000000001,0.01371982,-0.01997632,-0.2453737,0.2715528,-9.792149999999999,0,0,44.41683,1,1,754,998
8215,66879431,1,0.01053615,0.01235635,-0.02065066,-0.2604995,0.2585175,-9.781383,0,0,44.41683,1,1,754,998
8218,66883001,1,0.01432828,0.01379341,-0.01882396,-0.2543038,0.2406128,-9.773167000000001,0,0,44.41683,1,1,754,998
8221,66884272,1,-0.005694426,0.01760606,-0.007575641,-0.2534662,0.2424183,-9.776437,0,0,44.41735,1,1,754,998
8225,66886884,1,-0.01424874,0.01778126,-0.004115242,-0.2650862,0.2674108,-9.781048999999999,0,0,44.41735,1,1,754,998
8260,66889913,1,-0.01303469,0.01718239,7.319862e-06,-0.2697222,0.3086788,-9.762575999999999,0,0,44.41735,1,1,754,998
8263,66891832,1,0.008687662000000001,0.01242472,0.00116281,-0.2573097,0.3061247,-9.736934,0,0,44.41735,1,1,754,998
8266,66894852,1,0.01972376,0.005583993,0.0006380467,-0.2403367,0.2576736,-9.716521,0,0,44.41786,1,1,754,998
8270,66896804,1,0.0007712655,0.004548592,-0.004233454,-0.231033,0.2261969,-9.727050999999999,0,0,44.41786,1,1,754,998
8305,66900143,1,-0.02147137,0.008364398,-0.008044261,-0.2280497,0.23831,-9.735163,0,0,44.41786,1,1,754,998
8309,66901793,1,-0.01155754,0.01016764,-0.01094085,-0.2437762,0.2859986,-9.708413999999999,0,0,44.41786,1,1,754,998
8312,66904139,1,0.01388603,0.007497913,-0.008837139000000001,-0.2443683,0.2764399,-9.689935,0,0,44.41836,1,1,754,998
8316,66907281,1,0.01996502,0.002595848,-0.006159614,-0.2383838,0.2476958,-9.688224999999999,0,0,44.41836,1,1,754,998
8351,66910494,1,-0.003897227,-0.008125344,0.0005795669,-0.2697274,0.237106,-9.724539,0,0,44.41836,1,1,754,998
8354,66912918,1,-0.01724,0.005017934,0.0007430154,-0.2911314,0.2614109,-9.753387999999999,0,0,44.41836,1,1,754,998
8357,66914997,1,-0.004275858,0.02047803,-0.000563816,-0.279586,0.2672703,-9.782971,0,0,44.41884,1,1,754,998
8361,66917432,1,0.006362041,0.0215562,-0.002203798,-0.2594411,0.2411325,-9.78576,0,0,44.41884,1,1,754,998
8396,66920271,1,0.01154617,0.01251926,-0.004047822,-0.2900086,0.1900145,-9.772014,0,0,44.41884,1,1,754,998
8399,66923263,1,0.00250804,0.01109925,-0.002718558,-0.3271637,0.1776057,-9.760042,0,0,44.41884,1,1,754,998
8402,66924668,1,-0.0208402,0.02393654,0.004477126,-0.3121341,0.1920083,-9.755171000000001,0,0,44.41884,1,1,754,998
8405,66927495,1,-0.01518863,0.02162339,0.006269285,-0.283997,0.2072604,-9.748901999999999,0,0,44.4193,1,1,754,998
8440,66930060,1,0.008536342000000001,0.004735108,0.008817119999999999,-0.304897,0.2149279,-9.724394999999999,0,0,44.4193,1,1,754,998
8443,66933222,1,0.01772422,-0.004108226,0.01104171,-0.3474233,0.2082534,-9.709431,0,0,44.4193,1,1,754,998
8446,66935776,1,-0.001618921,0.009104902,0.01380441,-0.3622437,0.2250598,-9.716905000000001,0,0,44.4193,1,1,754,998
8450,66937378,1,-0.01659971,0.0192981,0.01427731,-0.3435396,0.2658917,-9.731685000000001,0,0,44.41975,1,1,754,998
8485,66939783,1,-0.003795936,0.006626264,0.01156405,-0.3262642,0.3219454,-9.732711999999999,0,0,44.41975,1,1,754,998
8488,66942465,1,0.007216033,-0.004293907,0.01019485,-0.3194049,0.3161514,-9.710633,0,0,44.41975,1,1,754,998
8495,66945880,1,0.008665533,-0.01293273,0.01291703,-0.3038279,0.2875189,-9.675777999999999,0,0,44.41975,1,1,754,998
8500,66948241,1,-0.002699778,-0.006496801,0.01517734,-0.2762108,0.2790514,-9.649336,0,0,44.41975,1,1,754,998
8535,66950449,1,-0.01808496,0.00633079,0.01571593,-0.2740986,0.3352233,-9.672836999999999,0,0,44.42019,1,1,754,998
8538,66953316,1,0.01112294,0.01056855,0.009298496999999999,-0.2993015,0.3527276,-9.732055000000001,0,0,44.42019,1,1,754,998
8542,66956074,1,0.02350742,0.01234279,0.007344175,-0.3110246,0.332608,-9.767956,0,0,44.42019,1,1,754,998
8546,66958890,1,0.02569827,0.02025612,0.003201623,-0.3139888,0.2868928,-9.775043,0,0,44.42019,1,1,754,998
8581,66961620,1,-0.01085739,0.01983,-0.004372383,-0.306338,0.2917936,-9.752399,0,0,44.42065,1,1,754,998
8584,66964001,1,-0.01610224,0.01634581,-0.006972441,-0.3056918,0.3229384,-9.750245,0,0,44.42065,1,1,754,998
8587,66966186,1,0.009369238,0.007427367,-0.006413897,-0.2927354,0.3405685,-9.765426,0,0,44.42065,1,1,754,998
8591,66969430,1,0.01747124,0.007832835999999999,-0.003484236,-0.2693355,0.3156286,-9.794107,0,0,44.42065,1,1,754,998
8626,66971646,1,0.009901811999999999,0.01284687,0.005312526,-0.2384221,0.291167,-9.855948,0,0,44.42111,1,1,754,998
8629,66974773,1,-0.02035008,0.01307975,0.01192963,-0.2182258,0.3063889,-9.882726999999999,0,0,44.42111,1,1,754,998
8632,66976848,1,-0.02014699,0.01040411,0.01052879,-0.2005095,0.3147953,-9.883713,0,0,44.42111,1,1,754,998
8636,66979753,1,-0.005372386,0.001400489,0.004065303,-0.1505439,0.3235848,-9.857759,0,0,44.42111,1,1,754,998
8671,66983073,1,0.01119209,-0.01511846,-0.006054124,-0.1062702,0.3156176,-9.800458000000001,0,0,44.42156,1,1,754,998
8674,66984447,1,0.009040998,-0.0153904,-0.008627469,-0.09753878000000001,0.3037144,-9.783690999999999,0,0,44.42156,1,1,754,998
8677,66988621,1,-0.003014168,0.001496825,-0.01310339,-0.1195375,0.3075788,-9.770333000000001,0,0,44.42156,1,1,754,998
8680,66989865,1,-0.002935602,0.03408055,-0.01894739,-0.1400129,0.3334376,-9.752081,0,0,44.42156,1,1,754,998
8716,66992829,1,0.005469398,0.03465302,-0.01905415,-0.1629855,0.3263526,-9.723288999999999,0,0,44.42202,1,1,754,998
8719,66995962,1,0.01794428,0.02289481,-0.01975024,-0.2368973,0.2464663,-9.673043,0,0,44.42202,1,1,754,998
8722,66998183,1,0.005489648,0.01668886,-0.01921863,-0.2760433,0.1983747,-9.64659,0,0,44.42202,1,1,754,998
8725,67000423,1,-0.01487945,0.0179532,-0.01259621,-0.2815317,0.1871202,-9.613130999999999,0,0,44.42202,1,1,754,998
8760,67002899,1,-0.01032236,0.009600638,-0.004241956,-0.2643852,0.1642178,-9.60201,0,0,44.42248,1,1,754,998
8763,67005172,1,0.005279106,-0.002843723,0.004896884,-0.273234,0.1290638,-9.619908000000001,0,0,44.42248,1,1,754,998
8766,67008278,1,0.006303489,-0.004222988,0.008382934,-0.2850031,0.110883,-9.638795,0,0,44.42248,1,1,754,998
8769,67010488,1,-0.0106152,0.006237866,0.01042363,-0.2552162,0.158996,-9.659466,0,0,44.42248,1,1,754,998
8804,67013164,1,-0.007182775,-0.001943443,0.004708448,-0.2065411,0.1973429,-9.672333,0,0,44.42248,1,1,754,998
8808,67015490,1,-0.0005371026,-0.01750148,-0.001638889,-0.2053496,0.2058648,-9.664930999999999,0,0,44.42294,1,1,754,998
8811,67018612,1,-0.006408393,-0.01154456,-0.007615658,-0.2218002,0.257104,-9.630633,0,0,44.42294,1,1,754,998
8814,67020831,1,-0.008871692,0.0003622169,-0.009944405999999999,-0.2075325,0.3201247,-9.618083,0,0,44.42294,1,1,754,998
8849,67023646,1,-0.001770305,0.02571541,-0.01374869,-0.179394,0.3544187,-9.579516,0,0,44.42294,1,1,754,998
8853,67025946,1,-0.0001568225,0.02551418,-0.01592616,-0.1918696,0.3420398,-9.545465,0,0,44.42339,1,1,754,998
8856,67028761,1,-0.001156264,0.02355785,-0.02379771,-0.2340868,0.342636,-9.511293,0,0,44.42339,1,1,754,998
8859,67031068,1,0.006741817,0.02497863,-0.03195433,-0.2447836,0.3316504,-9.509115,0,0,44.42339,1,1,754,998
8894,67033983,1,0.01744157,0.01954642,-0.03372794,-0.2391236,0.2488126,-9.546576,0,0,44.42339,1,1,754,998
8897,67036174,1,0.01014893,0.01072409,-0.02819454,-0.2416691,0.1971572,-9.627761,0,0,44.42382,1,1,754,998
8902,67039030,1,0.0003602713,0.005293404,-0.02270962,-0.2454849,0.2077961,-9.694879999999999,0,0,44.42382,1,1,754,998
8905,67041650,1,0.008904888,-0.005097245,-0.01561495,-0.2173644,0.1629557,-9.771531,0,0,44.42382,1,1,754,998
8940,67044222,1,0.01218876,-0.01602704,-0.007909944,-0.199437,0.05720302,-9.796595,0,0,44.42382,1,1,754,998
8944,67046956,1,-0.009098735,-0.01216686,-0.004628472,-0.2159094,0.03824088,-9.809487000000001,0,0,44.42382,1,1,754,998
8951,67049868,1,-0.02440302,0.009197665000000001,-0.007093406,-0.2330445,0.06855430999999999,-9.799453,0,0,44.42425,1,1,754,998
8954,67052223,1,-0.01263272,0.02660744,-0.01155226,-0.2265185,0.07559209,-9.776019,0,0,44.42425,1,1,754,998
8989,67055286,1,-0.0002319913,0.02275443,-0.01549711,-0.2406483,0.08143828,-9.749382000000001,0,0,44.42425,1,1,754,998
8992,67057195,1,-0.006595253,0.005975931,-0.01615191,-0.2858859,0.1567014,-9.739243999999999,0,0,44.42425,1,1,754,998
8995,67059790,1,-0.01824598,-0.008728942,-0.007393223,-0.3100572,0.2192994,-9.735410999999999,0,0,44.42468,1,1,754,998
9000,67063048,1,-0.01695111,-0.01368936,0.003155218,-0.3434776,0.3158662,-9.752378,0,0,44.42468,1,1,754,998
9035,67065250,1,0.004397012,-0.01465196,0.01161423,-0.3561346,0.4186256,-9.766522999999999,0,0,44.42468,1,1,754,998
9039,67068223,1,0.02854624,-0.01437393,0.01850979,-0.3439543,0.4469284,-9.744604000000001,0,0,44.42468,1,1,754,998
9042,67070630,1,0.02675158,-0.002236159,0.02071118,-0.3219434,0.4351306,-9.696666,0,0,44.42511,1,1,754,998
9045,67078960,1,0.02869716,0.03202735,-0.01475163,-0.1751007,0.3960708,-9.71325,0,0,44.42511,1,1,754,998
9080,67081751,1,0.03303448,0.02564882,-0.01976808,-0.1496701,0.3323501,-9.756123000000001,0,0,44.42552,1,1,754,998
9083,67085043,1,0.01732705,0.004106607,-0.01923689,-0.09606281999999999,0.2566895,-9.823518,0,0,44.42552,1,1,754,998
9086,67086801,1,0.01187278,-0.004269294,-0.01448718,-0.07245231000000001,0.2135358,-9.850771,0,0,44.42552,1,1,754,998
9089,67089647,1,0.006851614,-0.01936765,0.004738126,-0.06803872,0.1569667,-9.839560000000001,0,0,44.42552,1,1,754,998
9124,67092252,1,0.002834013,-0.01228605,0.01792814,-0.0873063,0.09494217000000001,-9.767051,0,0,44.42593,1,1,754,998
9128,67094868,1,-0.002117778,-0.003726396,0.02198016,-0.1235549,0.06244949,-9.712432,0,0,44.42593,1,1,754,998
9131,67097315,1,-0.01727635,0.03028999,0.01422096,-0.2131927,0.08658849,-9.685067,0,0,44.42593,1,1,754,998
9134,67099927,1,-0.01500011,0.0356103,0.007010582,-0.2725335,0.1264847,-9.684908,0,0,44.42593,1,1,754,998
9169,67103071,1,-0.00612314,0.02779085,-0.006440645,-0.3747121,0.153642,-9.655589000000001,0,0,44.42636,1,1,754,998
9173,67104738,1,-0.01436537,0.005592845,-0.01294125,-0.485499,0.223807,-9.672361,0,0,44.42636,1,1,754,998
9176,67107025,1,-0.01216974,0.001500184,-0.009312074,-0.5184445,0.3434348,-9.7356,0,0,44.42636,1,1,754,998
9179,67110261,1,0.01207524,-0.01151111,0.00270591,-0.5126468,0.4381332,-9.804632,0,0,44.42636,1,1,754,998
9214,67113443,1,0.02764557,-0.02319971,0.01943019,-0.506282,0.4908102,-9.824241000000001,0,0,44.42636,1,1,754,998
9217,67115368,1,0.001905374,-0.0037707,0.0367933,-0.5066009,0.5770707,-9.736729,0,0,44.42679,1,1,754,998
9220,67117801,1,-0.01876773,0.04227723,0.04575633,-0.4634343,0.6664883,-9.646216000000001,0,0,44.42679,1,1,754,998
9224,67120795,1,0.007968216,0.06624207999999999,0.0346361,-0.3254605,0.6571804999999999,-9.513147,0,0,44.42679,1,1,754,998
9259,67123244,1,0.03828302,0.04721077,0.006648119,-0.2033839,0.4638398,-9.45434,0,0,44.42679,1,1,754,998
9263,67126061,1,0.02767795,0.01871512,-0.02354046,-0.1431689,0.3464774,-9.471613,0,0,44.42723,1,1,754,998
9266,67128333,1,0.009994421999999999,0.004209123,-0.04452442,-0.03195509,0.2686318,-9.571334,0,0,44.42723,1,1,754,998
9269,67131266,1,0.02643391,-0.01455049,-0.04829478,0.04090092,0.2228489,-9.648367,0,0,44.42723,1,1,754,998
9304,67133756,1,0.03940067,-0.0364272,-0.03206426,0.06940126000000001,0.08805351,-9.726569,0,0,44.42723,1,1,754,998
9308,67136981,1,0.01222408,-0.02442137,-0.00247328,-0.03612853,0.06069823,-9.766634,0,0,44.42768,1,1,754,998
9311,67138983,1,-0.02248129,0.02084686,0.02558017,-0.1221197,0.1081747,-9.779584,0,0,44.42768,1,1,754,998
9315,67141352,1,-0.02975452,0.04547359,0.03504296,-0.1916831,0.1444518,-9.719018999999999,0,0,44.42768,1,1,754,998
9350,67144406,1,-0.0339606,0.02010684,0.02259827,-0.2707547,0.1013108,-9.582656999999999,0,0,44.42768,1,1,754,998
9353,67146253,1,-0.04894042,-0.01611559,-0.001523518,-0.3773729,0.1106057,-9.525492,0,0,44.42812,1,1,754,998
9356,67149589,1,-0.04969723,-0.02318181,-0.0116727,-0.4777622,0.1710595,-9.524347000000001,0,0,44.42812,1,1,754,998
9359,67151343,1,-0.02346208,-0.01554599,-0.01965809,-0.5132924,0.2416625,-9.603415999999999,0,0,44.42812,1,1,754,998
9398,67154241,1,0.008630162,-0.00341915,-0.003204457,-0.4852633,0.277948,-9.66657,0,0,44.42812,1,1,754,998
9402,67156835,1,0.003989188,0.002612317,0.005760627,-0.5079361999999999,0.3668551,-9.685521,0,0,44.42812,1,1,754,998
9405,67159028,1,-0.003834418,0.03401861,0.02321726,-0.5230238,0.4831289,-9.672958,0,0,44.42856,1,1,754,998
9408,67161824,1,0.005556028,0.06628499,0.03529383,-0.3765046,0.5462283999999999,-9.608506,0,0,44.42856,1,1,754,998
9443,67164292,1,0.008140029999999999,0.04689648,0.02948793,-0.1430977,0.4574686,-9.527514,0,0,44.42856,1,1,754,998
9446,67167263,1,-0.007442971,-0.01007546,0.002777848,-0.03032237,0.3588628,-9.521758999999999,0,0,44.42856,1,1,754,998
9449,67169459,1,-0.006410078,-0.03975646,-0.02863013,0.009730028999999999,0.3008519,-9.575288,0,0,44.42897,1,1,754,998
9452,67172196,1,0.004912085,-0.03667797,-0.04074056,0.07371791,0.2158424,-9.657674999999999,0,0,44.42897,1,1,754,998
9487,67175008,1,0.02749218,-0.01614891,-0.0545982,0.1491632,0.07897311,-9.809101,0,0,44.42897,1,1,754,998
9491,67177010,1,0.01104315,-0.007324274,-0.04365283,-0.008127227000000001,0.0378481,-9.974050999999999,0,0,44.42897,1,1,754,998
9495,67179951,1,-0.008465396,0.02394849,-0.02069476,-0.1987037,0.03750128,-10.05634,0,0,44.42936,1,1,754,998
9498,67182212,1,-0.0261637,0.04672575,0.004170561,-0.3318781,0.02544699,-10.0941,0,0,44.42936,1,1,754,998
9533,67184434,1,-0.03711819,0.0363197,0.01343998,-0.4124945,0.006572781,-10.03061,0,0,44.42936,1,1,754,998
9536,67188182,1,-0.0592957,-0.05430616,0.01624765,-0.5057212,0.03050686,-9.922108,0,0,44.42936,1,1,754,998
9539,67189423,1,-0.05592512,-0.06696572000000001,0.01190612,-0.7315688,0.08715576,-9.757068,0,0,44.42936,1,1,754,998
9542,67193176,1,-0.03623026,-0.03532473,0.006822659,-0.7797316,0.1340005,-9.677536999999999,0,0,44.42973,1,1,754,998
9545,67194644,1,-0.01555042,0.01973723,0.006632758,-0.6879148,0.1995632,-9.684687,0,0,44.42973,1,1,754,998
9581,67197065,1,0.006201684,0.0450871,0.003523974,-0.6473133,0.3402634,-9.746672,0,0,44.42973,1,1,754,998
9584,67199876,1,0.02149752,0.07002711,0.002004135,-0.6730618,0.4013685,-9.781076000000001,0,0,44.42973,1,1,754,998
9587,67203210,1,0.007724318,0.09433258,0.004062515,-0.4658919,0.4322259,-9.800503000000001,0,0,44.43011,1,1,754,998
9590,67205406,1,-0.00851615,0.08235115,0.004364086,-0.1942329,0.4232917,-9.778036,0,0,44.43011,1,1,754,998
9625,67208249,1,-0.03039062,-0.04482773,-0.006658006,0.02054308,0.351334,-9.708035000000001,0,0,44.43011,1,1,754,998
9629,67210365,1,-0.005877665,-0.06898363,-0.0162103,0.04603031,0.2820323,-9.727983,0,0,44.43011,1,1,754,998
9632,67213589,1,0.0187977,-0.0199997,-0.01972858,0.2363797,0.1382182,-9.815395000000001,0,0,44.4305,1,1,754,998
9635,67215263,1,0.02841563,0.01402264,-0.02344322,0.300419,0.05661307,-9.878436000000001,0,0,44.4305,1,1,754,998
9670,67218442,1,0.02403187,0.02538421,-0.02980956,0.08977562,-0.03448829,-9.92618,0,0,44.4305,1,1,754,998
9673,67220454,1,0.0143455,0.04019658,-0.03186605,-0.09083199,-0.06097418,-9.922917,0,0,44.4305,1,1,754,998
9676,67223223,1,-0.03140043,0.06083775,-0.02452881,-0.1800124,-0.04502581,-9.877295,0,0,44.4305,1,1,754,998
9679,67225954,1,-0.04174428,0.03107033,-0.02049615,-0.2516758,-0.03001288,-9.833169,0,0,44.4309,1,1,754,998
9714,67228598,1,-0.04881642,-0.07326356000000001,-0.005029477,-0.573738,0.004183789,-9.737539,0,0,44.4309,1,1,754,998
9718,67231601,1,-0.04720353,-0.04486239,0.01222242,-0.7589445,0.07044679,-9.661868999999999,0,0,44.4309,1,1,754,998
9721,67233780,1,-0.04238217,-0.01333992,0.02173551,-0.7501678000000001,0.226641,-9.572741000000001,0,0,44.4309,1,1,754,998
9724,67235951,1,-0.015272,0.02857974,0.03304844,-0.7258601,0.350208,-9.551126,0,0,44.4313,1,1,754,998
9759,67238840,1,0.01627756,0.05443023,0.03122284,-0.8616131,0.4864254,-9.564672,0,0,44.4313,1,1,754,998
9762,67240947,1,0.0206612,0.102988,0.02578162,-0.8316152999999999,0.5356436,-9.587339,0,0,44.4313,1,1,754,998
9767,67244071,1,0.00093221,0.1033562,0.0133896,-0.4659315,0.5433167,-9.618849000000001,0,0,44.4313,1,1,754,998
9770,67245968,1,-0.008829419,0.06503577000000001,0.001489457,-0.2528088,0.4994293,-9.622642000000001,0,0,44.43172,1,1,754,998
9805,67248430,1,-0.01200879,-0.05629881,-0.03374393,-0.1676285,0.4298248,-9.637810999999999,0,0,44.43172,1,1,754,998
9809,67251097,1,0.01511953,-0.0383148,-0.03433223,-0.05968875,0.3973217,-9.668604999999999,0,0,44.43172,1,1,754,998
9812,67253864,1,0.03219406,-0.01948385,-0.02905793,0.2049839,0.2869625,-9.766473,0,0,44.43172,1,1,754,998
9819,67256220,1,0.04481137,-0.004696028,-0.02309768,0.1914758,0.2048108,-9.856602000000001,0,0,44.43172,1,1,754,998
9854,67259268,1,0.03762778,0.03303605,-0.009795003,-0.0858496,0.1296394,-9.907496,0,0,44.43214,1,1,754,998
9858,67261758,1,0.0001218989,0.08158564,0.004717615,-0.1858023,0.07806923,-9.839791999999999,0,0,44.43214,1,1,754,998
9861,67263864,1,-0.02839361,0.06303081000000001,0.003780008,-0.192913,0.03760959,-9.752687999999999,0,0,44.43214,1,1,754,998
9864,67266268,1,-0.0307391,-0.02141679,-0.01326254,-0.4493168,0.02642306,-9.631969,0,0,44.43214,1,1,754,998
9901,67269199,1,-0.01938668,-0.06391197,-0.01710297,-0.6564,0.05938835,-9.578711999999999,0,0,44.43257,1,1,754,998
9904,67277917,1,0.02465557,0.06087643,0.04732292,-0.8199937,0.4322178,-9.720903,0,0,44.43257,1,1,754,998
9939,67280389,1,0.013235,0.1121938,0.05107226,-0.6250289999999999,0.5002641,-9.699949999999999,0,0,44.43301,1,1,754,998
9942,67283835,1,-0.003107969,0.08148529,0.02949885,-0.2535436,0.4781598,-9.679549,0,0,44.43301,1,1,754,998
9945,67286186,1,-0.00993521,-0.003413546,-0.01033486,-0.1226204,0.4631846,-9.647475,0,0,44.43301,1,1,754,998
9948,67288368,1,0.01015244,-0.04597665,-0.03826435,0.06495693,0.445172,-9.60777,0,0,44.43301,1,1,754,998
9983,67290790,1,0.02891896,-0.04706801,-0.04301154,0.2687255,0.4017834,-9.649015,0,0,44.43344,1,1,754,998
9987,67293380,1,0.06864728,-0.03550807,-0.03544771,0.4153852,0.3100172,-9.812535,0,0,44.43344,1,1,754,998
9990,67296179,1,0.06538065999999999,-0.02313757,-0.02974291,0.2832162,0.2725415,-9.922235000000001,0,0,44.43344,1,1,754,998
9993,67298375,1,0.03337419,0.03631848,-0.01274925,0.03836848,0.2267612,-9.976698000000001,0,0,44.43344,1,1,754,998
10028,67301425,1,-0.0277539,0.06883686,0.001215717,0.01062759,0.183547,-9.915763999999999,0,0,44.43388,1,1,754,998
10032,67303816,1,-0.03539205,0.0291087,-0.003678284,-0.09287979,0.1642417,-9.804608,0,0,44.43388,1,1,754,998
10036,67305851,1,-0.02908764,-0.06884348999999999,-0.01781296,-0.3282444,0.1412746,-9.64767,0,0,44.43388,1,1,754,998
10039,67308467,1,-0.01571275,-0.09135347000000001,-0.01547574,-0.6267602,0.135221,-9.496193999999999,0,0,44.43388,1,1,754,998
10074,67310862,1,-0.007657247,-0.04408541,0.002500827,-0.6819595000000001,0.216848,-9.546277,0,0,44.43431,1,1,754,998
10078,67314596,1,0.010118,0.006545078,0.02064629,-0.7502325,0.3213035,-9.654024,0,0,44.43431,1,1,754,998
10081,67317051,1,0.031776,0.06117145,0.03525918,-0.8930769,0.4246854,-9.759672999999999,0,0,44.43431,1,1,754,998
10084,67318906,1,0.02004437,0.1124551,0.04112553,-0.8042956999999999,0.438158,-9.779445000000001,0,0,44.43431,1,1,754,998
10119,67321417,1,-0.01881254,0.08920032,0.02801299,-0.4229067,0.4524835,-9.760755,0,0,44.43431,1,1,754,998
10122,67323770,1,-0.03263891,0.04388899,0.01472707,-0.2259317,0.4553184,-9.697183000000001,0,0,44.43471,1,1,754,998
10125,67326630,1,-0.01462836,-0.07340164,-0.01726387,-0.05129211,0.4087036,-9.591491,0,0,44.43471,1,1,754,998
10128,67328846,1,0.003801435,-0.07524013,-0.01867571,0.1122024,0.3555063,-9.597121,0,0,44.43471,1,1,754,998
10165,67331839,1,0.03462958,-0.04602401,-0.0121484,0.3185161,0.2655548,-9.761393999999999,0,0,44.43471,1,1,754,998
10169,67333794,1,0.04694509,-0.007898324999999999,-0.00337131,0.2891984,0.2127356,-9.890159000000001,0,0,44.43512,1,1,754,998
10172,67335893,1,0.03173064,0.04454362,0.001872289,0.08111893000000001,0.1177154,-9.987202,0,0,44.43512,1,1,754,998
10175,67339054,1,-0.01148913,0.0800299,-0.002722096,0.01336879,0.05253461,-9.989298,0,0,44.43512,1,1,754,998
10210,67342253,1,-0.04743274,0.03182359,-0.01866775,-0.04636349,0.0381134,-9.880499,0,0,44.43512,1,1,754,998
10213,67343948,1,-0.0417492,-0.06841648,-0.03379718,-0.3204818,0.03720029,-9.647225000000001,0,0,44.43553,1,1,754,998
10217,67346384,1,-0.0210168,-0.1077653,-0.02766946,-0.5280679,0.02376044,-9.521882,0,0,44.43553,1,1,754,998
10220,67349654,1,-0.01764257,-0.06077418,-0.001811171,-0.7052202,0.09471412999999999,-9.528797000000001,0,0,44.43553,1,1,754,998
10255,67352817,1,-0.01090914,0.01526966,0.02507458,-0.8101262,0.197235,-9.609064999999999,0,0,44.43553,1,1,754,998
10259,67354686,1,0.009900579,0.08692418,0.03931898,-0.8937913,0.2580695,-9.657819,0,0,44.43553,1,1,754,998
10262,67357001,1,0.002144761,0.1243209,0.03740659,-0.7664246,0.2563053,-9.674371000000001,0,0,44.43595,1,1,754,998
10269,67360066,1,-0.03408082,0.08612482,0.01612525,-0.547185,0.2755395,-9.667361,0,0,44.43595,1,1,754,998
10304,67363149,1,-0.04263799,-0.01117673,-0.01512055,-0.2695174,0.2845318,-9.602641999999999,0,0,44.43595,1,1,754,998
10307,67365774,1,-0.01662515,-0.07281126,-0.0356153,-0.06760102,0.2027154,-9.598625,0,0,44.43595,1,1,754,998
10310,67367428,1,0.005976004,-0.05152184,-0.03288323,0.08906882000000001,0.159577,-9.691897000000001,0,0,44.43638,1,1,754,998
10314,67370074,1,0.02061431,0.003130433,-0.01594646,0.2608692,0.1706493,-9.913417000000001,0,0,44.43638,1,1,754,998
10349,67372852,1,0.02785618,0.02750346,-0.007089027,0.2476526,0.1629675,-10.00287,0,0,44.43638,1,1,754,998
10353,67375640,1,0.005586622,0.07616576999999999,0.009079475,0.1305866,0.09946381,-9.993985,0,0,44.43638,1,1,754,998
10356,67378344,1,-0.0191841,0.07449161,0.008956408000000001,0.09032100999999999,0.09220573,-9.941462,0,0,44.43638,1,1,754,998
10359,67379816,1,-0.05435322,0.01585707,-0.005264856,-0.009798318,0.1225058,-9.812407,0,0,44.43681,1,1,754,998
10394,67382718,1,-0.03700141,-0.07867704,-0.02454811,-0.2014302,0.09404195999999999,-9.682376,0,0,44.43681,1,1,754,998
10397,67385211,1,-0.01196702,-0.1041016,-0.02279045,-0.5333106,0.06079302,-9.611068,0,0,44.43681,1,1,754,998
10400,67388227,1,-0.01293834,-0.03693879,0.003366007,-0.6796939,0.1325128,-9.675101,0,0,44.43681,1,1,754,998
10403,67390459,1,-0.001785206,0.05090036,0.03081608,-0.8248214,0.2888355,-9.831156999999999,0,0,44.43722,1,1,754,998
10438,67392996,1,0.02177455,0.1107407,0.04173747,-0.9260620000000001,0.3264833,-9.882671999999999,0,0,44.43722,1,1,754,998
10442,67395572,1,0.005336559,0.1307033,0.0360866,-0.8611365,0.3246636,-9.872598,0,0,44.43722,1,1,754,998
10445,67399185,1,-0.03300767,0.08037597,0.0165861,-0.5377956,0.3859197,-9.814669,0,0,44.43722,1,1,754,998
10448,67400424,1,-0.03199314,-0.02529579,-0.01009594,-0.3119595,0.3901326,-9.729927999999999,0,0,44.43761,1,1,754,998
10483,67403276,1,-0.003873946,-0.09147664,-0.02309835,-0.06947881,0.2752515,-9.643967,0,0,44.43761,1,1,754,998
10487,67405619,1,0.006146524,-0.08621342,-0.02089889,0.07262454,0.2230339,-9.707497,0,0,44.43761,1,1,754,998
10490,67409229,1,0.02522622,0.01567481,0.0001904641,0.2500963,0.2356754,-9.916829,0,0,44.43761,1,1,754,998
10493,67411300,1,0.03458006,0.04758998,0.005583541,0.2706727,0.2240708,-10.01654,0,0,44.43761,1,1,754,998
10528,67413858,1,0.008099619000000001,0.08518282000000001,0.006754917,0.1529687,0.1106737,-9.963414999999999,0,0,44.43797,1,1,754,998
10531,67416440,1,-0.04923593,0.03693087,-0.006533542,0.1194506,0.1481445,-9.858475,0,0,44.43797,1,1,754,998
10534,67419443,1,-0.05773015,-0.06561262,-0.02274318,-0.04471279,0.2038774,-9.638852999999999,0,0,44.43797,1,1,754,998
10537,67421434,1,-0.04209667,-0.1080997,-0.02461069,-0.2903711,0.1842823,-9.534342000000001,0,0,44.43797,1,1,754,998
10572,67424306,1,-0.0009368843,-0.0813991,0.001658939,-0.6395469,0.2570799,-9.57821,0,0,44.43833,1,1,754,998
10576,67426268,1,0.007313464,-0.03308247,0.01545188,-0.772661,0.3940324,-9.712605999999999,0,0,44.43833,1,1,754,998
10579,67429307,1,0.0328754,0.06048126,0.03826089,-0.8721854999999999,0.5052453,-9.835549,0,0,44.43833,1,1,754,998
10582,67431936,1,0.04215084,0.1162947,0.04529837,-0.9506790000000001,0.5498853,-9.872306,0,0,44.43833,1,1,754,998
10617,67434747,1,0.001133927,0.1181686,0.03676455,-0.7867373,0.6139662,-9.767431,0,0,44.43869,1,1,754,998
10620,67437431,1,-0.02798328,-0.001359068,-0.003094577,-0.4673274,0.6345763,-9.603087,0,0,44.43869,1,1,754,998
10623,67439357,1,-0.01273573,-0.04634138,-0.01529047,-0.2859667,0.5348464000000001,-9.507788,0,0,44.43869,1,1,754,998
10626,67441847,1,0.01897371,-0.08187166,-0.02308129,-0.04913585,0.3533732,-9.515264999999999,0,0,44.43869,1,1,754,998
10661,67444899,1,0.03783308,-0.04114025,-0.01223767,0.09996627,0.2944376,-9.643520000000001,0,0,44.43906,1,1,754,998
10665,67446981,1,0.05605455,0.02676052,0.004386299,0.2201737,0.1989829,-9.878829,0,0,44.43906,1,1,754,998
10670,67449965,1,0.04835356,0.07793522999999999,0.01545299,0.2215544,0.0840944,-9.939028,0,0,44.43906,1,1,754,998
10673,67452525,1,-0.01016638,0.08550985999999999,0.01300634,0.2066536,-0.01454225,-9.878450000000001,0,0,44.43906,1,1,754,998
10710,67455811,1,-0.05709639,0.02210628,-0.006566032,0.1337905,0.02580377,-9.687746000000001,0,0,44.43942,1,1,754,998
10714,67457846,1,-0.04240178,-0.0760265,-0.02642109,-0.02008921,0.01121165,-9.542707,0,0,44.43942,1,1,754,998
10721,67463609,1,-0.004680087,-0.05604562,-0.003835995,-0.6046055,0.1648838,-9.585091,0,0,44.43942,1,1,754,998
10756,67465854,1,0.0243353,0.03437087,0.0238494,-0.8113814,0.3240022,-9.774215,0,0,44.43978,1,1,754,998
10759,67468837,1,0.04507159,0.1078401,0.04243479,-0.8911604,0.3338634,-9.808541,0,0,44.43978,1,1,754,998
10762,67471588,1,0.007968095,0.1259512,0.04354445,-0.7836271,0.3582551,-9.735312,0,0,44.43978,1,1,754,998
10765,67473908,1,-0.03469891,0.06794121,0.02293815,-0.6055583,0.4035312,-9.647505000000001,0,0,44.43978,1,1,754,998
10800,67479737,1,0.009888239,-0.07087024,-0.01920141,-0.0813656,0.1600202,-9.549084000000001,0,0,44.44013,1,1,754,998
10804,67482878,1,0.0423928,-0.02251639,-0.01297492,0.145291,0.1394653,-9.733670999999999,0,0,44.44013,1,1,754,998
10807,67484637,1,0.05434054,0.005220474,-0.006512953,0.2111017,0.1109126,-9.890511999999999,0,0,44.44013,1,1,754,998
10842,67487068,1,0.05020335,0.05991708,0.007011452,0.1905132,0.0166357,-10.03234,0,0,44.44013,1,1,754,998
10845,67490045,1,-0.01107607,0.08356589,0.01072829,0.1576723,0.02518709,-10.03899,0,0,44.44048,1,1,754,998
10849,67492196,1,-0.06069968,0.0361649,-0.002891632,0.06057638,0.125861,-9.926517,0,0,44.44048,1,1,754,998
10852,67494994,1,-0.04772566,-0.05532253,-0.02264475,-0.08178148,0.1171946,-9.781566,0,0,44.44048,1,1,754,998
10887,67497271,1,-0.03076027,-0.1046574,-0.02677269,-0.3440179,0.05370818,-9.614011,0,0,44.44048,1,1,754,998
10890,67499996,1,-0.02852337,-0.07272694,-0.01026134,-0.4998767,0.1545216,-9.616426000000001,0,0,44.4408,1,1,754,998
10893,67502831,1,0.005377113,0.005095687,0.01245808,-0.7299744,0.3943141,-9.726157000000001,0,0,44.4408,1,1,754,998
10897,67506287,1,0.03883845,0.09308513,0.03307886,-0.8561531999999999,0.4713272,-9.790497999999999,0,0,44.4408,1,1,754,998
10900,67508285,1,0.03120679,0.1265947,0.03988514,-0.8578389,0.5284245,-9.787011,0,0,44.4408,1,1,754,998
10935,67510651,1,-0.04006685,0.09910457,0.02367752,-0.5415812,0.6475174,-9.627988,0,0,44.4411,1,1,754,998
10939,67513449,1,-0.03657949,0.005342875,-0.0140855,-0.3875831,0.5915624,-9.541769,0,0,44.4411,1,1,754,998
10942,67516359,1,-0.02323951,-0.03204584,-0.02949012,-0.220311,0.4796713,-9.481522,0,0,44.4411,1,1,754,998
10945,67519071,1,0.003637617,-0.04833373,-0.03970648,0.07216652,0.4008476,-9.534967,0,0,44.4411,1,1,754,998
10980,67521431,1,0.04132125,-0.006183722,-0.02801865,0.2362543,0.3330055,-9.786956,0,0,44.4414,1,1,754,998
10983,67524143,1,0.06231995,0.05000847,-0.007260637,0.254382,0.1054589,-9.99239,0,0,44.4414,1,1,754,998
10986,67526798,1,-0.000516844,0.08972207,0.0112923,0.2649214,0.005440742,-10.01809,0,0,44.4414,1,1,754,998
10989,67529779,1,-0.07765969,0.06209424,0.005070162,0.2521208,0.0787834,-9.937804,0,0,44.4414,1,1,754,998
11024,67533043,1,-0.07137907,-0.03005001,-0.020509,0.04831587,0.06511403,-9.750368999999999,0,0,44.44171,1,1,754,998
11028,67534894,1,-0.03637796,-0.09833825,-0.03427699,-0.1565956,-0.003152619,-9.639507,0,0,44.44171,1,1,754,998
11031,67537184,1,-0.03575482,-0.08664739,-0.02412012,-0.4469967,0.1096495,-9.642563000000001,0,0,44.44171,1,1,754,998
11034,67539874,1,-0.01860244,-0.020445,7.749025e-06,-0.6386924,0.2823097,-9.740541,0,0,44.44171,1,1,754,998
11069,67542858,1,0.02337512,0.05819977,0.027014,-0.8450431,0.3877215,-9.867331,0,0,44.44171,1,1,754,998
11072,67545096,1,0.02886421,0.09215116,0.03766116,-0.8515263,0.3983269,-9.881418999999999,0,0,44.44206,1,1,754,998
11075,67547168,1,-0.02696621,0.1010147,0.03564761,-0.6665831,0.5020862,-9.820288,0,0,44.44206,1,1,754,998
11078,67549904,1,-0.03712666,0.06664228,0.02287824,-0.5010173999999999,0.5343988,-9.759909,0,0,44.44206,1,1,754,998
11113,67552211,1,-0.02609833,-0.01348863,-0.007719865,-0.2475158,0.4034497,-9.659534000000001,0,0,44.44206,1,1,754,998
11117,67555060,1,-0.01302471,-0.04952857,-0.02657971,-0.05829751,0.3267148,-9.620005000000001,0,0,44.44244,1,1,754,998
11120,67557828,1,0.01504573,-0.03266724,-0.02639758,0.1877068,0.3115814,-9.716901999999999,0,0,44.44244,1,1,754,998
11123,67559642,1,0.06959466,0.008690056999999999,-0.01158883,0.2607625,0.2361992,-9.860357,0,0,44.44244,1,1,754,998
11158,67562064,1,0.06923894999999999,0.05483038,0.007502864,0.269705,0.03309481,-10.00511,0,0,44.44244,1,1,754,998
11163,67564433,1,-0.01222673,0.07248300000000001,0.01416063,0.2624321,0.001390947,-10.03828,0,0,44.44244,1,1,754,998
11170,67567953,1,-0.06489006999999999,0.01796091,0.0003817928,0.1716439,0.09745403,-10.00203,0,0,44.44281,1,1,754,998
11173,67570216,1,-0.05945138,-0.02815939,-0.01026817,0.02528096,0.07785146,-9.902758,0,0,44.44281,1,1,754,998
11208,67572755,1,-0.03320856,-0.1055709,-0.02072676,-0.2528968,0.007809869,-9.684153,0,0,44.44281,1,1,754,998
11211,67575178,1,-0.03323031,-0.06598107,-0.003891985,-0.5057774,0.2044736,-9.607796,0,0,44.44281,1,1,754,998
11214,67577494,1,-0.01693158,-0.03180315,0.007635566,-0.6647173,0.3646835,-9.677495,0,0,44.44316,1,1,754,998
11217,67580436,1,0.03845141,0.07396398999999999,0.04117437,-0.8262887,0.403281,-9.797666,0,0,44.44316,1,1,754,998
11252,67583452,1,0.001608979,0.109816,0.04691742,-0.7760277,0.4473687,-9.817466,0,0,44.44316,1,1,754,998
11257,67585260,1,-0.02098663,0.1008737,0.04041544,-0.6390424,0.5251637,-9.784857000000001,0,0,44.44316,1,1,754,998
11260,67588144,1,-0.01666197,-0.002940695,-0.0005731438,-0.3952318,0.4591902,-9.693215,0,0,44.44347,1,1,754,998
11263,67590417,1,-0.01032969,-0.0299876,-0.0109892,-0.2267451,0.3456892,-9.609301,0,0,44.44347,1,1,754,998
11298,67593603,1,-0.01179451,-0.03984356,-0.01728231,0.03398428,0.3191045,-9.568016,0,0,44.44347,1,1,754,998
11301,67595954,1,0.02081815,-0.0125144,-0.01093012,0.1667313,0.3255979,-9.676444,0,0,44.44347,1,1,754,998
11304,67598166,1,0.07614141000000001,0.02459932,0.00165121,0.247236,0.1609042,-9.897824,0,0,44.44347,1,1,754,998
11307,67600385,1,0.05396211,0.0548724,0.01337837,0.2541455,0.03882128,-9.981813000000001,0,0,44.44378,1,1,754,998
11342,67603041,1,-0.03176988,0.05068051,0.01188298,0.232805,0.07659638000000001,-9.972708000000001,0,0,44.44378,1,1,754,998
11346,67605443,1,-0.05735774,0.02901726,0.003430968,0.1684807,0.1308676,-9.912098,0,0,44.44378,1,1,754,998
11349,67609065,1,-0.03316771,-0.06043085,-0.02456366,0.04223418,0.09007099,-9.812759,0,0,44.44378,1,1,754,998
11352,67611654,1,-0.02772592,-0.07316209,-0.0262411,-0.2151582,0.07578631,-9.651989,0,0,44.44408,1,1,754,998
11355,67613251,1,-0.02261767,-0.02385554,-0.004666694,-0.4869866,0.3278373,-9.666174,0,0,44.44408,1,1,754,998
11391,67616018,1,0.02311143,0.04168992,0.01775785,-0.7337186,0.4900942,-9.827958000000001,0,0,44.44408,1,1,754,998
11394,67618670,1,0.03788523,0.0711273,0.02874576,-0.8107981,0.5062557,-9.899350999999999,0,0,44.44408,1,1,754,998
11397,67621776,1,-0.01060563,0.09508189,0.04001863,-0.7774349,0.5644965,-9.904877000000001,0,0,44.4444,1,1,754,998
11400,67623629,1,-0.02682355,0.07209551,0.0322689,-0.5845726999999999,0.6805707,-9.839689999999999,0,0,44.4444,1,1,754,998
11435,67626267,1,-0.01674369,0.003201603,0.005709042,-0.3485021,0.5637708,-9.702654000000001,0,0,44.4444,1,1,754,998
11438,67628557,1,0.0008392067,-0.03887127,-0.01581566,-0.1772284,0.4193785,-9.603567,0,0,44.4444,1,1,754,998
11441,67630877,1,0.005054046,-0.02725131,-0.02098476,-0.00981814,0.3706394,-9.5868,0,0,44.4444,1,1,754,998
11444,67633628,1,0.04742194,0.01399466,-0.01733044,0.1274994,0.3517326,-9.774383,0,0,44.44473,1,1,754,998
11480,67636406,1,0.08511941000000001,0.0560226,-0.008465139999999999,0.1671324,0.1185395,-9.991118,0,0,44.44473,1,1,754,998
11483,67639199,1,0.07008294,0.06981292,-0.002883187,0.191394,-0.0338727,-10.03624,0,0,44.44473,1,1,754,998
11487,67641040,1,-0.04547795,0.02549647,-0.008696578,0.1964769,-0.05441473,-10.01301,0,0,44.44473,1,1,754,998
11490,67643861,1,-0.05550846,-0.01225987,-0.01837837,0.08361869,-0.02134329,-9.894641999999999,0,0,44.44505,1,1,754,998
11525,67646012,1,-0.03048825,-0.07871757,-0.03320834,-0.1481658,-0.1306994,-9.703673999999999,0,0,44.44505,1,1,754,998
11528,67649566,1,-0.02425519,-0.08303586,-0.02974932,-0.3174177,-0.1236155,-9.604241999999999,0,0,44.44505,1,1,754,998
11531,67651515,1,-0.01869048,-0.02683746,-0.01357635,-0.5838468999999999,0.0892043,-9.646837,0,0,44.44505,1,1,754,998
11534,67653744,1,0.02715315,0.04293436,0.00675675,-0.7409901,0.1637361,-9.738094,0,0,44.44536,1,1,754,998
11570,67656046,1,0.03227371,0.08922789,0.02599352,-0.8268483,0.1472578,-9.758542,0,0,44.44536,1,1,754,998
11573,67659168,1,-0.02660348,0.09127863,0.0299132,-0.7800965,0.2462574,-9.706847,0,0,44.44536,1,1,754,998
11576,67661646,1,-0.04334981,0.03889523,0.01082289,-0.6205105,0.4312872,-9.6167,0,0,44.44536,1,1,754,998
11581,67664370,1,-0.02385763,0.004343535,-0.003477582,-0.4742644,0.3616927,-9.552051000000001,0,0,44.44536,1,1,754,998
11620,67673467,1,0.0709953,0.05226597,-0.001565481,0.140266,0.1815492,-9.903112999999999,0,0,44.44565,1,1,754,998
11624,67675800,1,0.06653381,0.05581393,0.003250205,0.1816931,0.0220507,-9.949678,0,0,44.4459,1,1,754,998
11659,67678611,1,-0.05268054,0.02469146,-0.002005058,0.1596994,0.06553172,-9.90067,0,0,44.4459,1,1,754,998
11663,67681373,1,-0.06721161,-0.003338998,-0.01164918,0.08983503,0.1350055,-9.832090000000001,0,0,44.4459,1,1,754,998
11666,67683469,1,-0.03808222,-0.06380397,-0.03162707,-0.0989048,0.01675514,-9.690884,0,0,44.4459,1,1,754,998
11670,67685815,1,-0.02614841,-0.07710953,-0.03377213,-0.2749889,-0.00116703,-9.614684,0,0,44.4459,1,1,754,998
11705,67688295,1,-0.03397401,-0.02767452,-0.01498843,-0.5586144,0.2648478,-9.64551,0,0,44.44614,1,1,754,998
11708,67691168,1,0.006689402,0.04153871,0.01112175,-0.701766,0.3726056,-9.726651,0,0,44.44614,1,1,754,998
11711,67694011,1,0.02545266,0.08387383,0.03089654,-0.783954,0.3212315,-9.758737999999999,0,0,44.44614,1,1,754,998
11714,67695444,1,-0.03207348,0.07891332,0.03262788,-0.7627614,0.3884651,-9.709248000000001,0,0,44.44614,1,1,754,998
11750,67698318,1,-0.05852999,0.03148048,0.01331973,-0.6271911999999999,0.5609599,-9.629937999999999,0,0,44.44635,1,1,754,998
11753,67700844,1,-0.0383613,0.0010342,0.0005239959,-0.4757022,0.4994385,-9.600275,0,0,44.44635,1,1,754,998
11756,67703829,1,0.009441928,-0.03932422,-0.02132572,-0.2491601,0.3245157,-9.600471000000001,0,0,44.44635,1,1,754,998
11760,67706575,1,0.00172018,-0.02466728,-0.02019961,-0.1297321,0.3479012,-9.651085999999999,0,0,44.44635,1,1,754,998
11795,67709029,1,0.03916761,0.05354309,-0.003142612,0.08965517000000001,0.3809362,-9.894920000000001,0,0,44.44654,1,1,754,998
11798,67711819,1,0.05661307,0.06551122,0.004625048,0.2012533,0.2151368,-9.960509,0,0,44.44654,1,1,754,998
11801,67714285,1,-0.0114031,0.03498245,0.0002648089,0.2369843,0.112153,-9.936869,0,0,44.44654,1,1,754,998
11804,67717410,1,-0.04916726,0.0120433,-0.008545397999999999,0.17149,0.1835749,-9.900961000000001,0,0,44.44654,1,1,754,998
11839,67720734,1,-0.04712768,-0.05616319,-0.03432824,-0.02138496,0.1325551,-9.798216999999999,0,0,44.44671,1,1,754,998
11842,67722637,1,-0.02685396,-0.06895359,-0.03090213,-0.1871105,0.08385782999999999,-9.731566000000001,0,0,44.44671,1,1,754,998
11845,67724854,1,-0.02816527,-0.02623359,-0.01194176,-0.5507699,0.2543413,-9.701919999999999,0,0,44.44671,1,1,754,998
11849,67728198,1,-0.001777653,0.04934841,0.01726253,-0.7410884,0.3479293,-9.735128,0,0,44.44671,1,1,754,998
11884,67731234,1,0.01592259,0.09288945999999999,0.03928501,-0.8197582,0.3293449,-9.736473999999999,0,0,44.44687,1,1,754,998
11887,67733229,1,-0.01644499,0.07561730999999999,0.04122626,-0.7931284,0.4059265,-9.64025,0,0,44.44687,1,1,754,998
11890,67735449,1,-0.03452155,0.03155456,0.0213563,-0.7362183,0.4935249,-9.580577999999999,0,0,44.44687,1,1,754,998
11893,67738695,1,-0.005938327,-0.007227534,0.0005943081999999999,-0.4886008,0.437975,-9.535289000000001,0,0,44.44687,1,1,754,998
11928,67740845,1,0.006836261,-0.02517985,-0.005671302,-0.2049822,0.3687514,-9.519292,0,0,44.44703,1,1,754,998
11931,67743789,1,0.00715574,-0.002086105,0.002320434,-0.10545,0.4363005,-9.580161,0,0,44.44703,1,1,754,998
11934,67746656,1,0.03816316,0.04756908,0.01648159,0.05259046,0.4133714,-9.783674,0,0,44.44703,1,1,754,998
11938,67748896,1,0.04885579,0.06846869999999999,0.02489334,0.2022268,0.2631139,-9.900403000000001,0,0,44.44703,1,1,754,998
11973,67751826,1,-0.001996538,0.03598616,0.01507528,0.2776486,0.09667195000000001,-9.90504,0,0,44.44703,1,1,754,998
11976,67753899,1,-0.0302746,0.009877318,0.002677988,0.1833623,0.08529363,-9.834182,0,0,44.44719,1,1,754,998
11979,67755866,1,-0.03321969,-0.04823767,-0.03309505,0.03726363,0.02547178,-9.751645999999999,0,0,44.44719,1,1,754,998
11983,67759202,1,-0.02064502,-0.05851176,-0.03563435,-0.05383332,-0.04195851,-9.700582000000001,0,0,44.44719,1,1,754,998
12018,67761299,1,-0.007122277,-0.0557447,-0.02661376,-0.3862526,0.02856124,-9.669479000000001,0,0,44.44719,1,1,754,998
12021,67764426,1,0.01836061,0.04267024,0.01427289,-0.7631132,0.2029176,-9.760536999999999,0,0,44.44734,1,1,754,998
12024,67766805,1,0.02270924,0.07861799999999999,0.02874778,-0.8303367,0.2495142,-9.807608999999999,0,0,44.44734,1,1,754,998
12027,67769004,1,0.004304964,0.09322154000000001,0.0453256,-0.7917747000000001,0.3074482,-9.746327000000001,0,0,44.44734,1,1,754,998
12063,67771965,1,-0.02134345,0.04267056,0.03722958,-0.7929839,0.4033919,-9.664961,0,0,44.44734,1,1,754,998
12066,67774226,1,-0.007974482999999999,-0.002312373,0.01670162,-0.687972,0.4780813,-9.603930999999999,0,0,44.44734,1,1,754,998
12073,67777279,1,0.01905644,-0.01593968,0.002430789,-0.4860441,0.4279802,-9.581537000000001,0,0,44.44746,1,1,754,998
12077,67778981,1,0.02702376,-0.01572398,-0.001131899,-0.2119326,0.3747149,-9.561242,0,0,44.44746,1,1,754,998
12112,67781277,1,0.0387472,0.01210363,0.005794176,-0.1256787,0.376233,-9.621739,0,0,44.44746,1,1,754,998
12115,67784441,1,0.04853801,0.05546996,0.01692852,-0.02458824,0.3173367,-9.739656,0,0,44.44746,1,1,754,998
12118,67786394,1,0.0407531,0.06176366,0.01946397,0.2219423,0.162584,-9.860528,0,0,44.44757,1,1,754,998
12121,67789454,1,-0.01036315,-0.008519000000000001,-0.003180742,0.2745839,0.08911165,-9.818856,0,0,44.44757,1,1,754,998
12156,67792049,1,-0.02076113,-0.05763447,-0.02968343,0.08496607,0.03216511,-9.755672000000001,0,0,44.44757,1,1,754,998
12159,67794288,1,-0.01956764,-0.06693196,-0.03869705,-0.0150858,-0.01452599,-9.735161,0,0,44.44757,1,1,754,998
12162,67797630,1,-0.01365119,-0.06226653,-0.03316284,-0.2105311,0.02073959,-9.662276,0,0,44.44767,1,1,754,998
12166,67799289,1,-0.004468944,-0.04714982,-0.02214941,-0.459147,0.1017436,-9.634335999999999,0,0,44.44767,1,1,754,998
12201,67802598,1,0.01603999,0.01302666,0.009203919,-0.7605548,0.1984002,-9.704788000000001,0,0,44.44767,1,1,754,998
12204,67804278,1,0.008241897999999999,0.06972734999999999,0.03711189,-0.7882046,0.2530817,-9.750158000000001,0,0,44.44767,1,1,754,998
12207,67807021,1,-0.01481638,0.06178296,0.03863494,-0.750074,0.3685894,-9.698739,0,0,44.44777,1,1,754,998
12211,67809883,1,-0.01106066,0.01171139,0.01399137,-0.7593504,0.4158503,-9.649361000000001,0,0,44.44777,1,1,754,998
12246,67812269,1,0.008155256,-0.01502521,-0.01019871,-0.6215903,0.389129,-9.656161000000001,0,0,44.44777,1,1,754,998
12249,67815645,1,0.01512275,-0.01322734,-0.01660766,-0.4066726,0.3640842,-9.665404000000001,0,0,44.44777,1,1,754,998
12252,67817345,1,0.02675186,0.001066461,-0.007759359,-0.1547867,0.3438408,-9.689612,0,0,44.44777,1,1,754,998
12257,67820234,1,0.03592399,0.01601462,5.868897e-05,-0.06248476,0.2971548,-9.777447,0,0,44.44788,1,1,754,998
12294,67823900,1,0.03005802,0.06042782,0.0152626,0.1511385,0.1891381,-9.949614,0,0,44.44788,1,1,754,998
12298,67825788,1,0.0008531295,0.03134546,-0.0006916483,0.3209001,0.1159468,-9.993092000000001,0,0,44.44788,1,1,754,998
12301,67829148,1,-0.01024832,-0.02141722,-0.03098755,0.2340168,0.02884367,-9.939716000000001,0,0,44.44788,1,1,754,998
12304,67830375,1,-0.01342014,-0.0461448,-0.05448118,0.1363009,-0.02860594,-9.920237999999999,0,0,44.448,1,1,754,998
12339,67833650,1,-0.01664362,-0.05501009,-0.05890456,0.005392427,-0.009610916000000001,-9.873805000000001,0,0,44.448,1,1,754,998
12342,67835659,1,-0.01080352,-0.05616021,-0.05251252,-0.1890858,0.05554393,-9.823489,0,0,44.448,1,1,754,998
12345,67837874,1,0.0108226,0.003916559,0.0004791726,-0.5976491,0.108565,-9.797271,0,0,44.448,1,1,754,998
12348,67841156,1,0.002135239,0.04104605,0.02158202,-0.7557753,0.1460112,-9.800399000000001,0,0,44.44813,1,1,754,998
12383,67843797,1,-0.03132441,0.08583583,0.04718636,-0.793269,0.2602201,-9.719682000000001,0,0,44.44813,1,1,754,998
12386,67846440,1,-0.02872236,0.0385469,0.02246304,-0.833203,0.3250008,-9.558208,0,0,44.44813,1,1,754,998
12389,67849049,1,-0.01532598,0.02223286,0.006288146,-0.8153704000000001,0.3047999,-9.514345,0,0,44.44813,1,1,754,998
12392,67851741,1,-0.001900782,0.01143819,-0.01709818,-0.5672249,0.2706337,-9.535436000000001,0,0,44.44828,1,1,754,998
12427,67854001,1,0.009796835,0.0007785268,-0.01238332,-0.3044296,0.2853263,-9.590083999999999,0,0,44.44828,1,1,754,998
12430,67856712,1,0.02082942,0.006931202,-0.002445543,-0.2104497,0.2700979,-9.670555999999999,0,0,44.44828,1,1,754,998
12433,67859858,1,0.02745786,0.04458534,0.01987313,0.0327499,0.2104324,-9.806721,0,0,44.44828,1,1,754,998
12436,67862235,1,-0.00158897,0.06129827,0.02786083,0.2577789,0.1728781,-9.84783,0,0,44.44828,1,1,754,998
12471,67864653,1,-0.02694762,0.01688389,0.008056278,0.3366661,0.1275504,-9.810504999999999,0,0,44.44843,1,1,754,998
12475,67867186,1,-0.03129618,-0.0321308,-0.04187619,0.1456458,0.05423066,-9.786621999999999,0,0,44.44843,1,1,754,998
12478,67869918,1,-0.03633585,-0.02754285,-0.05130509,0.04644454,0.03818907,-9.792482,0,0,44.44843,1,1,754,998
12485,67873010,1,-0.03702089,-0.02066523,-0.04867406,-0.1566171,0.1152422,-9.759936,0,0,44.44843,1,1,754,998
12520,67878882,1,-0.01455784,0.05816582,0.03201529,-0.8300936,0.2374053,-9.81626,0,0,44.44859,1,1,754,998
12527,67881278,1,-0.0511031,0.07700931,0.04478937,-0.8177366,0.3963787,-9.778337000000001,0,0,44.44859,1,1,754,998
12530,67883800,1,-0.0387301,0.03914764,0.02405315,-0.8267173,0.4795133,-9.711061000000001,0,0,44.44859,1,1,754,998
12565,67886619,1,-0.002091331,0.006697326,-0.004300224,-0.7795499,0.4577651,-9.658465,0,0,44.44875,1,1,754,998
12568,67889031,1,0.003790773,0.003309349,-0.01299925,-0.6011296,0.4191063,-9.664561000000001,0,0,44.44875,1,1,754,998
12571,67894354,1,0.02534493,0.01542861,0.004973115,-0.1287957,0.3464545,-9.776439,0,0,44.44875,1,1,754,998
12607,67897205,1,0.02937018,0.04781584,0.01973194,0.1417436,0.191933,-9.916359999999999,0,0,44.44892,1,1,754,998
12610,67899365,1,-0.001564127,0.04552398,0.01803954,0.331085,0.1272492,-9.953218,0,0,44.44892,1,1,754,998
12613,67902058,1,-0.01342979,0.02476634,0.007768193,0.3847311,0.07126059,-9.932485,0,0,44.44892,1,1,754,998
12616,67904667,1,-0.01535429,-0.02463506,-0.02114006,0.2450674,-0.04825604,-9.899559,0,0,44.44892,1,1,754,998
12652,67906867,1,-0.01813252,-0.04677164,-0.04062419,0.09489245,-0.08611191999999999,-9.878458999999999,0,0,44.4491,1,1,754,998
12655,67910235,1,-0.01720449,-0.0468216,-0.03652881,-0.0567995,-0.02101549,-9.838437000000001,0,0,44.4491,1,1,754,998
12658,67912046,1,0.01578756,-0.01748863,-0.0008713484,-0.4417777,0.07945903,-9.807872,0,0,44.4491,1,1,754,998
12661,67914860,1,0.01681686,0.008735692,0.01549323,-0.6496923999999999,0.1217542,-9.811631999999999,0,0,44.4491,1,1,754,998
12696,67917646,1,-0.01741567,0.05470746,0.04209747,-0.7206084,0.2187959,-9.767001,0,0,44.44934,1,1,754,998
12699,67919809,1,-0.0450377,0.04534031,0.04167107,-0.7130857,0.3149287,-9.699697,0,0,44.44934,1,1,754,998
12702,67923294,1,-0.02019505,0.002088306,0.01813342,-0.7063146,0.3720856,-9.60722,0,0,44.44934,1,1,754,998
12705,67924926,1,0.01271491,-0.01922294,-0.001772126,-0.6111691,0.3472353,-9.617924,0,0,44.44934,1,1,754,998
12741,67928190,1,0.0179037,-0.01361762,-0.007158788,-0.3419394,0.3678192,-9.741721,0,0,44.44934,1,1,754,998
12744,67929922,1,0.02462693,0.008193486,0.002000826,-0.153058,0.4186608,-9.891178,0,0,44.4496,1,1,754,998
12747,67932019,1,0.03542507,0.04581964,0.01747479,-0.03442963,0.3771081,-9.975911,0,0,44.4496,1,1,754,998
12750,67935370,1,0.03003186,0.05886557,0.02280993,0.1521176,0.30512,-10.02658,0,0,44.4496,1,1,754,998
12785,67937666,1,-0.0004527255,0.04216693,0.01840648,0.3829406,0.2331578,-9.967855999999999,0,0,44.4496,1,1,754,998
12789,67941064,1,-0.01565478,-0.04561536,-0.01949556,0.2928973,0.1563995,-9.836691,0,0,44.44991,1,1,754,998
12792,67942889,1,-0.01214052,-0.05879419,-0.0315748,0.1715553,0.114153,-9.802443999999999,0,0,44.44991,1,1,754,998
12795,67945819,1,-0.008848086,-0.05608237,-0.04342279,-0.01327707,0.1567469,-9.829072,0,0,44.44991,1,1,754,998
12830,67948225,1,0.01043296,-0.01791765,-0.02667913,-0.3685299,0.2595014,-9.850709,0,0,44.44991,1,1,754,998
12833,67950853,1,0.01733644,0.007674912,-0.01359397,-0.6378012,0.3185477,-9.859328,0,0,44.45022,1,1,754,998
12836,67953292,1,-0.01278767,0.0760792,0.02843861,-0.8134066,0.4038958,-9.841328000000001,0,0,44.45022,1,1,754,998
12839,67956246,1,-0.03028123,0.07157879,0.03317363,-0.8147358,0.4771722,-9.766038999999999,0,0,44.45022,1,1,754,998
12874,67959295,1,-0.03456915,0.02255584,0.02308951,-0.8448092,0.5432131,-9.599017999999999,0,0,44.45022,1,1,754,998
12878,67961040,1,0.01190549,-0.02663448,-0.004627437,-0.7526578,0.4820431,-9.526802,0,0,44.45055,1,1,754,998
12881,67963857,1,0.02086641,-0.02321718,-0.008348716000000001,-0.5671982,0.434777,-9.571142,0,0,44.45055,1,1,754,998
12884,67966492,1,0.02924448,0.0004656036,-0.004693075,-0.3400743,0.3724303,-9.697425000000001,0,0,44.45055,1,1,754,998
12919,67969456,1,0.03589017,0.07604184,0.01617385,-0.167223,0.2416791,-9.769898,0,0,44.45055,1,1,754,998
12922,67971850,1,0.0279376,0.09529833,0.02058768,0.03566681,0.1622838,-9.781563999999999,0,0,44.45055,1,1,754,998
12926,67974027,1,0.003090225,0.07554212,0.01327526,0.3138177,0.09414175,-9.747149,0,0,44.45087,1,1,754,998
12929,67976813,1,-0.004522069,-0.01086732,-0.01438305,0.3258201,0.02801727,-9.673947,0,0,44.45087,1,1,754,998
12964,67979797,1,-0.005474508,-0.07529474,-0.0380964,0.1809466,-0.06409657000000001,-9.619037000000001,0,0,44.45087,1,1,754,998
12968,67982335,1,-0.01577341,-0.07455647999999999,-0.0413337,0.08001286000000001,-0.0520862,-9.679608999999999,0,0,44.45087,1,1,754,998
12977,67984416,1,-0.004470815,-0.03749572,-0.03003462,-0.2043641,0.03900849,-9.82241,0,0,44.4512,1,1,754,998
12980,67986810,1,0.008969486,-0.009600587000000001,-0.0205844,-0.4995017,0.08254388999999999,-9.867516999999999,0,0,44.4512,1,1,754,998
13015,67989200,1,0.001703732,0.09026758,0.01540883,-0.809084,0.160217,-9.827128999999999,0,0,44.4512,1,1,754,998
13018,67992302,1,-0.01867021,0.1045188,0.02309948,-0.8508728,0.2704727,-9.770077000000001,0,0,44.4512,1,1,754,998
13021,67994461,1,-0.03447684,0.02588543,0.01206908,-0.853625,0.4324498,-9.625541999999999,0,0,44.45154,1,1,754,998
13024,67996717,1,-0.01811123,-0.01415635,0.002606245,-0.8630974,0.4597113,-9.535587,0,0,44.45154,1,1,754,998
13059,67998963,1,0.009518666,-0.05126523,-0.008568279,-0.734868,0.4344654,-9.55194,0,0,44.45154,1,1,754,998
13063,68001884,1,0.02091121,-0.02453947,-0.00513987,-0.576467,0.4402895,-9.704789,0,0,44.45154,1,1,754,998
13066,68004524,1,0.03735725,0.0367673,0.007611477,-0.3874969,0.3944573,-9.926582,0,0,44.45154,1,1,754,998
13069,68007242,1,0.03490136,0.09854478,0.02132159,-0.2539509,0.2919763,-9.950583,0,0,44.45188,1,1,754,998
13104,68010233,1,0.0006987031,0.1049243,0.02305225,0.06999097999999999,0.1841402,-9.872707999999999,0,0,44.45188,1,1,754,998
13108,68012640,1,-0.01713558,0.02784975,0.0003229636,0.3016773,0.1435982,-9.75712,0,0,44.45188,1,1,754,998
13111,68014903,1,-0.002629124,-0.06798725999999999,-0.02932223,0.2987856,0.05887779,-9.667266,0,0,44.45188,1,1,754,998
13114,68018070,1,-0.002329958,-0.09851770999999999,-0.04087975,0.196451,-0.04743503,-9.67356,0,0,44.45222,1,1,754,998
13149,68020414,1,-0.01115418,-0.06803890999999999,-0.03125627,-0.01014155,0.02851372,-9.852534,0,0,44.45222,1,1,754,998
13152,68023859,1,0.004919455,-0.005175157,-0.007354399,-0.3898651,0.08901468999999999,-9.936863000000001,0,0,44.45222,1,1,754,998
13155,68025757,1,0.002213661,0.07059169999999999,0.02008241,-0.5887563,0.1013469,-9.883993,0,0,44.45222,1,1,754,998
13158,68029220,1,-0.04074889,0.1017925,0.03519378,-0.6796576,0.2236982,-9.724121999999999,0,0,44.45257,1,1,754,998
13161,68030582,1,-0.05523709,0.04362291,0.02456276,-0.6963983,0.3270072,-9.613312000000001,0,0,44.45257,1,1,754,998
13197,68034288,1,-0.02012253,-0.04385692,0.0007222525,-0.7434239,0.3397035,-9.466426,0,0,44.45257,1,1,754,998
13200,68035751,1,0.00523975,-0.0731166,-0.009099306999999999,-0.6455374,0.3110467,-9.491776,0,0,44.45257,1,1,754,998
13203,68038431,1,0.01376027,-0.03557572,-0.002488561,-0.5108916999999999,0.350312,-9.662839,0,0,44.45292,1,1,754,998
13206,68041301,1,0.03087094,0.03855575,0.01157857,-0.3947542,0.381593,-9.846814999999999,0,0,44.45292,1,1,754,998
13241,68043818,1,0.02520802,0.1108657,0.02657133,-0.1966877,0.2973349,-9.932950999999999,0,0,44.45292,1,1,754,998
13244,68047168,1,-0.01096363,0.114863,0.02812056,0.1614833,0.2554345,-9.859735000000001,0,0,44.45292,1,1,754,998
13247,68049303,1,-0.02160552,0.02042442,0.00658892,0.3639979,0.2575875,-9.796863,0,0,44.45292,1,1,754,998
13250,68051543,1,-0.009079029000000001,-0.0898997,-0.02010799,0.4136862,0.1146261,-9.662635,0,0,44.45327,1,1,754,998
13285,68054579,1,-0.02149456,-0.1176016,-0.02870771,0.3216115,0.02446428,-9.633546000000001,0,0,44.45327,1,1,754,998
13289,68056560,1,-0.02980491,-0.100212,-0.02579087,0.217332,0.1076907,-9.754125999999999,0,0,44.45327,1,1,754,998
13294,68059633,1,0.00755086,-0.00247827,-0.003747897,-0.1125432,0.2100886,-9.942066000000001,0,0,44.45327,1,1,754,998
13297,68061402,1,0.01766345,0.03707607,0.005851647,-0.3763327,0.1937373,-9.929338,0,0,44.4536,1,1,754,998
13332,68063812,1,-0.0141613,0.09978934,0.02415625,-0.5854961,0.2820832,-9.785759000000001,0,0,44.4536,1,1,754,998
13335,68069202,1,-0.03669837,-0.007138615,0.01236939,-0.6735449,0.5017258999999999,-9.544575,0,0,44.4536,1,1,754,998
13338,68071978,1,-0.001662422,-0.07738605,-0.0005168957,-0.6960859,0.4517046,-9.484254999999999,0,0,44.45393,1,1,754,998
13373,68078424,1,0.01605461,0.01794066,0.01264098,-0.5115111,0.586358,-9.850211,0,0,44.45393,1,1,754,998
13376,68080047,1,0.03756801,0.1163161,0.02878486,-0.297019,0.4538869,-9.921371000000001,0,0,44.45393,1,1,754,998
13379,68082983,1,0.01644716,0.1240951,0.02878327,-0.09129377,0.3661824,-9.872339999999999,0,0,44.45427,1,1,754,998
13398,68128430,1,0.02503865,-0.06184237,-0.0340713,0.3494678,0.05273946,-9.537492,0,0,44.45565,1,1,754,998
13401,68130965,1,0.005899772,-0.05622715,-0.03687043,0.1762283,0.03453048,-9.607944,0,0,44.45565,1,1,754,998
13404,68132961,1,-0.00579301,-0.007998873,-0.02666374,0.01027828,0.1393658,-9.769144000000001,0,0,44.45565,1,1,754,998
13439,68135180,1,0.0187915,0.03292832,-0.01076145,-0.2512766,0.147762,-9.905859,0,0,44.45565,1,1,754,998
13443,68137861,1,0.008936258000000001,0.04840496,0.001878054,-0.413015,0.09576134,-9.8553,0,0,44.45601,1,1,754,998
