LineNo,TimeUS,I,GyrX,GyrY,GyrZ,AccX,AccY,AccZ,EG,EA,T,GH,AH,GHz,AHz
182,64898149,0,-0.003296976,0.002398428,-0.001116418,-0.2166252,0.3417427,-9.757623000000001,0,0,43.7869,1,1,8009,4004
217,64900393,0,-0.003994625,0.002423076,-0.001006401,-0.2186465,0.341847,-9.750579,0,0,43.78696,1,1,8009,4004
287,64929248,0,0.001173316,-0.001398963,-0.0005343226,-0.2191289,0.350552,-9.747916,0,0,43.78787,1,1,8009,4004
402,64958025,0,0.0008442706,0.0008320353,0.0002886845,-0.2107821,0.3366057,-9.76376,0,0,43.78912,1,1,8009,4004
518,64986878,0,0.001428166,0.0007512489,0.0006415303,-0.2214512,0.339809,-9.762308000000001,0,0,43.79067,1,1,8009,4004
521,64988452,0,0.001558411,0.001410564,-7.643654e-06,-0.2202066,0.3359854,-9.761077,0,0,43.79075,1,1,8009,4004
631,65008389,0,0.001996279,0.002786478,0.001502411,-0.2057008,0.3350693,-9.739907000000001,0,0,43.791,1,1,8009,4004
666,65011315,0,0.0008154237,0.002109504,0.0006092796,-0.2029634,0.3333166,-9.741599000000001,0,0,43.79095,1,1,8009,4004
740,65029218,0,-0.0009824343,0.000315077,-0.001936624,-0.2104761,0.317974,-9.751766999999999,0,0,43.79089,1,1,8009,4004
856,65049163,0,-0.002485471,-0.0002917625,-0.001846348,-0.2189382,0.3295557,-9.766393000000001,0,0,43.79097,1,1,8009,4004
971,65092746,0,-0.001604228,0.0001974768,-0.0002011609,-0.2039556,0.3268152,-9.757439,0,0,43.79147,1,1,8009,4004
1006,65095369,0,-0.0004344731,-0.0002212999,-0.0009970592999999999,-0.2062212,0.3271999,-9.755876000000001,0,0,43.79152,1,1,8009,4004
1080,65123911,0,0.002284657,0.001421388,0.0001466138,-0.2212934,0.3363836,-9.746665,0,0,43.79211,1,1,8009,4004
1196,65224772,0,-0.003277458,0.0002413407,-0.001420473,-0.2229474,0.3340147,-9.748507999999999,0,0,43.79192,1,1,8009,4004
1306,65284323,0,0.001173904,0.0002450702,0.0002729656,-0.2188184,0.3528228,-9.768584000000001,0,0,43.792,1,1,8009,4004
1386,65302269,0,0.0008163852000000001,0.00051507,0.00131375,-0.2116949,0.3421262,-9.761870999999999,0,0,43.79184,1,1,8009,4004
1477,65328261,0,0.0007435361,0.0009638609,0.000288261,-0.2261672,0.3275085,-9.735224000000001,0,0,43.7925,1,1,8009,4004
1558,65333007,0,0.001073325,0.00141427,0.001118518,-0.2246426,0.3360858,-9.737780000000001,0,0,43.79262,1,1,8009,4004
1562,65342444,0,0.002800058,0.002344233,-0.0007324636,-0.2076186,0.3359998,-9.747788,0,0,43.79287,1,1,8009,4004
1565,65345446,0,0.002433279,0.001861988,-0.0003090652,-0.2023618,0.3345052,-9.75352,0,0,43.79299,1,1,8009,4004
1602,65348644,0,0.002059694,0.0009855142999999999,0.0008500461,-0.1981636,0.3338893,-9.761445,0,0,43.79315,1,1,8009,4004
1605,65350657,0,0.001813671,0.001326322,0.001978279,-0.1969551,0.3342625,-9.766368,0,0,43.79325,1,1,8009,4004
1608,65353142,0,0.001313878,0.00185509,0.002691395,-0.1960519,0.3341988,-9.771440999999999,0,0,43.79337,1,1,8009,4004
1611,65355268,0,0.0002984934,0.002121028,0.00111972,-0.1955649,0.3342314,-9.770092999999999,0,0,43.79343,1,1,8009,4004
1646,65358909,0,-0.0004857078,0.001940087,-0.0005062249,-0.1942106,0.3341286,-9.762898,0,0,43.79352,1,1,8009,4004
1650,65360885,0,-0.0003582409,0.001614984,-0.0006416736,-0.1936149,0.3344027,-9.756933999999999,0,0,43.79361,1,1,8009,4004
1653,65363398,0,0.0004668786,0.001272022,-0.0007784038000000001,-0.1936169,0.3346619,-9.753935999999999,0,0,43.7937,1,1,8009,4004
1656,65365389,0,0.0005473545,0.001530543,-0.0009552488,-0.1942791,0.3338045,-9.753201000000001,0,0,43.79377,1,1,8009,4004
1691,65368005,0,-0.000161155,9.548154e-05,-0.001347065,-0.1967083,0.3309477,-9.754429,0,0,43.79383,1,1,8009,4004
1695,65371434,0,-0.001110717,-0.0001642579,-0.00201353,-0.1987232,0.3308959,-9.755037,0,0,43.79387,1,1,8009,4004
1698,65374266,0,-0.000374164,-0.0001778746,-0.001199017,-0.201823,0.3337153,-9.755488,0,0,43.79393,1,1,8009,4004
1701,65375671,0,-0.0002477821,0.0002204228,-0.0003247168,-0.204031,0.333576,-9.755000000000001,0,0,43.79401,1,1,8009,4004
1736,65378495,0,-0.001225575,0.0004082221,0.0002476119,-0.2044769,0.3327424,-9.754586,0,0,43.79408,1,1,8009,4004
1739,65381159,0,-0.003106217,0.001156343,5.990015e-05,-0.2058723,0.3323706,-9.75766,0,0,43.79428,1,1,8009,4004
1742,65384243,0,-0.00381546,0.001343663,-0.0003710253,-0.2063556,0.3344278,-9.761616,0,0,43.79443,1,1,8009,4004
1745,65386240,0,-0.004141736,0.0003612117,-0.0007646507,-0.2083514,0.3371634,-9.770527,0,0,43.79457,1,1,8009,4004
1780,65388669,0,-0.003401726,-0.0004851891,6.446651e-06,-0.211882,0.3375466,-9.777531,0,0,43.79465,1,1,8009,4004
1784,65391224,0,-0.00291499,-0.0003244997,0.0005826426,-0.2132723,0.3388028,-9.778810999999999,0,0,43.79471,1,1,8009,4004
1787,65394369,0,-0.003012393,0.0004394161,0.0003990838,-0.2145478,0.3418577,-9.779040999999999,0,0,43.79483,1,1,8009,4004
1794,65397009,0,-0.003419558,9.500013e-05,0.0003422283,-0.2139464,0.3432406,-9.780288000000001,0,0,43.79489,1,1,8009,4004
1829,65399766,0,-0.002336027,-0.001112833,-0.0004181795,-0.2107096,0.3413768,-9.782845,0,0,43.79501,1,1,8009,4004
1832,65402053,0,-0.002395172,-0.001565179,-0.0003102747,-0.2065087,0.3377685,-9.780929,0,0,43.79514,1,1,8009,4004
1835,65404837,0,-0.003304246,-0.001612645,0.000538862,-0.2041561,0.335624,-9.779678000000001,0,0,43.79522,1,1,8009,4004
1838,65407476,0,-0.003872793,-0.001699992,0.001421939,-0.2028395,0.3335996,-9.775572,0,0,43.79534,1,1,8009,4004
1873,65410784,0,-0.002736018,-0.002344738,0.001316049,-0.2039544,0.332514,-9.772462000000001,0,0,43.79548,1,1,8009,4004
1877,65412745,0,-0.001997255,-0.00164899,0.0008268759,-0.2035541,0.330881,-9.77248,0,0,43.79556,1,1,8009,4004
1880,65414951,0,-0.002354801,0.0004488717,-4.315037e-05,-0.2027482,0.3278238,-9.773611000000001,0,0,43.79565,1,1,8009,4004
1883,65417740,0,-0.003681302,0.0009327882,-0.0002704615,-0.2037598,0.3273425,-9.774196,0,0,43.79572,1,1,8009,4004
1918,65420464,0,-0.00428959,0.0005234071,-0.0007622075000000001,-0.206627,0.3299563,-9.771238,0,0,43.79584,1,1,8009,4004
1922,65423259,0,-0.004170852,5.008512e-05,-0.0002964478,-0.2085594,0.3315398,-9.767666999999999,0,0,43.79592,1,1,8009,4004
1925,65425216,0,-0.003900373,-7.934646e-05,-5.215481e-05,-0.2111065,0.3325019,-9.766119,0,0,43.79603,1,1,8009,4004
1929,65428021,0,-0.003636914,0.0004523117,8.952273e-05,-0.2125536,0.334296,-9.767792,0,0,43.79611,1,1,8009,4004
1964,65430180,0,-0.003218713,0.0002623982,-5.253584e-05,-0.212984,0.3380687,-9.767659999999999,0,0,43.79623,1,1,8009,4004
1968,65433780,0,-0.003003806,4.037171e-05,0.0006864012,-0.2120775,0.3398703,-9.76333,0,0,43.79638,1,1,8009,4004
1971,65435386,0,-0.002119288,4.189351e-05,0.0008670812,-0.2116726,0.3399471,-9.760137,0,0,43.79649,1,1,8009,4004
1974,65438811,0,-0.0005890651,0.000183929,0.0003394837,-0.2124572,0.3397424,-9.754675000000001,0,0,43.79668,1,1,8009,4004
2009,65441095,0,8.041705e-05,-0.0002606749,-0.001054759,-0.2138485,0.3399416,-9.747486,0,0,43.79684,1,1,8009,4004
2013,65444749,0,-2.370209e-05,-0.0007009417,-0.002220902,-0.2143889,0.3387832,-9.742967,0,0,43.79696,1,1,8009,4004
2016,65446272,0,0.0003478975,-0.0002443373,-0.002112475,-0.2136542,0.3359452,-9.740411,0,0,43.79712,1,1,8009,4004
2019,65449141,0,0.0001200256,0.0007268505,-0.002065246,-0.2128013,0.3328529,-9.742281,0,0,43.79728,1,1,8009,4004
2054,65452310,0,-0.0004619211,0.0009646512,-0.001898606,-0.2136663,0.3318299,-9.744954999999999,0,0,43.79737,1,1,8009,4004
2057,65453816,0,-0.001203037,0.00153317,-0.0007030112,-0.2159935,0.3313367,-9.748734000000001,0,0,43.79754,1,1,8009,4004
2060,65457161,0,-0.001538141,0.002491414,-0.0001227015,-0.2176386,0.3308267,-9.751524,0,0,43.79765,1,1,8009,4004
2063,65459211,0,-0.001352903,0.003294882,-0.0001659932,-0.2177921,0.3298673,-9.754421000000001,0,0,43.79778,1,1,8009,4004
2098,65462326,0,-0.0004534193,0.002671698,0.0005883066,-0.2201398,0.3294152,-9.752731000000001,0,0,43.79788,1,1,8009,4004
2102,65463982,0,0.0008734694,0.001662707,0.0004969928,-0.2228557,0.3310206,-9.751143000000001,0,0,43.79794,1,1,8009,4004
2105,65466546,0,0.002241711,0.001176471,0.0001964174,-0.2250769,0.3333943,-9.749733000000001,0,0,43.79799,1,1,8009,4004
2108,65469862,0,0.003505983,2.996144e-05,-0.0001146338,-0.2265144,0.3369875,-9.748048000000001,0,0,43.79808,1,1,8009,4004
2145,65473420,0,0.00333737,0.0004685445,0.0006703215,-0.2253277,0.337914,-9.747367000000001,0,0,43.79818,1,1,8009,4004
2148,65474996,0,0.002630678,0.001900358,0.0004228639,-0.2229571,0.3383802,-9.748246999999999,0,0,43.79824,1,1,8009,4004
2151,65477366,0,0.001706891,0.0019569,-8.968067e-05,-0.2218664,0.3387731,-9.750933,0,0,43.79826,1,1,8009,4004
2154,65485828,0,-4.639018e-06,0.0007973321,-0.001629497,-0.2200699,0.3360943,-9.755198,0,0,43.79836,1,1,8009,4004
2190,65488732,0,0.0004182378,9.134866e-05,-0.001590227,-0.2186604,0.3356891,-9.753078,0,0,43.79838,1,1,8009,4004
2194,65491826,0,0.00067132,-0.0005367117,-0.001784503,-0.2172233,0.3369671,-9.750785,0,0,43.79842,1,1,8009,4004
2197,65494033,0,0.00101896,-0.001483226,-0.001766657,-0.216758,0.3376278,-9.752252,0,0,43.79851,1,1,8009,4004
2200,65496381,0,0.001667125,-0.001166142,-0.001729507,-0.2160041,0.3380334,-9.756316,0,0,43.79866,1,1,8009,4004
2236,65498766,0,0.001545476,0.0002323772,-0.001392887,-0.2145886,0.3393419,-9.761881000000001,0,0,43.79875,1,1,8009,4004
2243,65501780,0,0.002110531,0.0006529581,-0.000875103,-0.2137236,0.3400157,-9.765407,0,0,43.79885,1,1,8009,4004
2246,65504142,0,0.001412302,0.0002001394,-0.0001482407,-0.2148725,0.3387908,-9.767606000000001,0,0,43.79895,1,1,8009,4004
2249,65506798,0,0.0002616892,-0.0001360777,-0.000248346,-0.2155124,0.3377296,-9.764640999999999,0,0,43.79897,1,1,8009,4004
2284,65509758,0,-0.000544464,-3.452289e-05,-0.0003344821,-0.2163491,0.3380829,-9.758823,0,0,43.79901,1,1,8009,4004
2287,65511844,0,0.001124533,0.0004698145,-0.0005509563,-0.2166071,0.3384827,-9.757182999999999,0,0,43.79905,1,1,8009,4004
2290,65514799,0,0.0021235,0.0004646106,-0.0007139241,-0.2171308,0.3369388,-9.758573,0,0,43.79906,1,1,8009,4004
2293,65517361,0,0.001296976,-7.624479e-05,-0.001406802,-0.2204772,0.3334427,-9.762594,0,0,43.7991,1,1,8009,4004
2328,65520222,0,-4.889186e-05,-0.0011552,-0.0007323136,-0.2237925,0.3311224,-9.767184,0,0,43.79913,1,1,8009,4004
2332,65522638,0,-0.0001744932,-0.0007751457,0.0001693794,-0.2238231,0.3301872,-9.767953,0,0,43.79915,1,1,8009,4004
2335,65524876,0,0.0007521289,0.0009519742,0.0005383164,-0.2227592,0.3303712,-9.768960999999999,0,0,43.79918,1,1,8009,4004
2338,65527478,0,0.0005097364,0.001149642,-3.593128e-05,-0.222078,0.3302175,-9.769067,0,0,43.7992,1,1,8009,4004
2373,65530379,0,0.0002380585,9.319671e-05,-1.540371e-05,-0.2204899,0.3289082,-9.767008000000001,0,0,43.79922,1,1,8009,4004
2376,65533420,0,0.0003052232,-9.496549e-06,-0.0001267514,-0.219235,0.3269596,-9.765018,0,0,43.79922,1,1,8009,4004
2379,65534820,0,-6.776471000000001e-05,0.0002308098,-0.0002055437,-0.2162838,0.3259732,-9.76572,0,0,43.79922,1,1,8009,4004
2382,65537786,0,-0.0008111385,-0.0001351367,-0.0007001642,-0.2161328,0.3264046,-9.767189999999999,0,0,43.79922,1,1,8009,4004
2417,65539873,0,-0.002213636,0.0005549993,-0.001516386,-0.2179129,0.3289705,-9.769719,0,0,43.79922,1,1,8009,4004
2421,65542827,0,-0.002082839,0.001201413,-0.001628647,-0.2183561,0.3322305,-9.770292,0,0,43.79922,1,1,8009,4004
2424,65546056,0,-0.0005459741,0.001443717,-0.0009365029,-0.2172607,0.336045,-9.767232999999999,0,0,43.79922,1,1,8009,4004
2427,65548362,0,0.0002673932,0.001455028,-0.0004384624,-0.2155366,0.336867,-9.763146000000001,0,0,43.79922,1,1,8009,4004
2462,65550793,0,-0.0004659217,0.000636149,-0.0001292817,-0.2108306,0.3368198,-9.758050000000001,0,0,43.79922,1,1,8009,4004
2465,65553537,0,-0.0009277382,-0.0001345,1.604745e-05,-0.2089429,0.3360554,-9.757455,0,0,43.79922,1,1,8009,4004
2471,65556411,0,-0.0008562095,0.0001911073,-0.0002226203,-0.2083783,0.3351629,-9.753456999999999,0,0,43.7992,1,1,8009,4004
2474,65558417,0,-0.001026293,0.0003286905,-0.0008184903000000001,-0.2089645,0.334869,-9.750429,0,0,43.79918,1,1,8009,4004
2509,65561413,0,-0.0013755,0.0003232838,-0.002334832,-0.2097262,0.3318762,-9.748241999999999,0,0,43.79914,1,1,8009,4004
2513,65563431,0,-0.001878591,0.0004087102,-0.002749539,-0.2106816,0.3286272,-9.747102999999999,0,0,43.79913,1,1,8009,4004
2517,65565621,0,-0.003034572,0.0008522395,-0.003238834,-0.2102015,0.3251454,-9.744204999999999,0,0,43.7991,1,1,8009,4004
2520,65569022,0,-0.003289039,0.0005879462,-0.003603403,-0.2096202,0.324228,-9.742844,0,0,43.79908,1,1,8009,4004
2555,65571399,0,-0.003399744,-0.0004197156,-0.003059726,-0.2108626,0.3252985,-9.744572,0,0,43.79903,1,1,8009,4004
2559,65574667,0,-0.002830233,-0.0001214537,-0.001601863,-0.2133916,0.3269219,-9.749161000000001,0,0,43.79901,1,1,8009,4004
2562,65576409,0,-0.002710289,-2.760801e-05,-6.844873e-05,-0.2157063,0.3267657,-9.753143,0,0,43.79899,1,1,8009,4004
2566,65579442,0,-0.003330162,0.0007761251,0.002104661,-0.2213898,0.3282931,-9.759814,0,0,43.79897,1,1,8009,4004
2601,65582383,0,-0.004181315,0.0009366952,0.001506229,-0.2262674,0.3331605,-9.765454,0,0,43.79897,1,1,8009,4004
2604,65585155,0,-0.003600711,0.000910958,0.0002593824,-0.2273968,0.3361543,-9.765447999999999,0,0,43.79898,1,1,8009,4004
2607,65586752,0,-0.002715906,0.001173592,-0.0001699719,-0.2264095,0.3389598,-9.762980000000001,0,0,43.79902,1,1,8009,4004
2610,65589540,0,-0.003360351,0.002023236,-8.793842e-05,-0.224854,0.3383512,-9.759652000000001,0,0,43.79903,1,1,8009,4004
2645,65592694,0,-0.003535814,0.003748621,0.0006053138,-0.2219734,0.3363875,-9.752094,0,0,43.7991,1,1,8009,4004
2649,65594575,0,-0.002718166,0.003804685,0.0006086192,-0.2188216,0.3370274,-9.747444,0,0,43.79915,1,1,8009,4004
2652,65597295,0,-0.002140396,0.002491871,0.0006108245,-0.2126785,0.3376073,-9.743143999999999,0,0,43.79923,1,1,8009,4004
2655,65599615,0,-0.001881038,0.00159656,0.0005830827,-0.2090041,0.3365219,-9.741783,0,0,43.79927,1,1,8009,4004
2690,65601789,0,-0.002267916,0.0006168845,0.0002959189,-0.2041018,0.3331786,-9.742421999999999,0,0,43.79935,1,1,8009,4004
2697,65605410,0,-0.002231351,7.791491e-05,-0.0005850007,-0.2018902,0.3305913,-9.743683000000001,0,0,43.79941,1,1,8009,4004
2700,65606978,0,-0.00123043,-0.000314526,-0.001676924,-0.1987296,0.3266357,-9.747731,0,0,43.79947,1,1,8009,4004
2703,65610051,0,-0.0010234,0.0003268146,-0.00203961,-0.1963006,0.3242459,-9.750416,0,0,43.79949,1,1,8009,4004
2738,65612247,0,-0.000814542,0.001262563,-0.00218598,-0.1946999,0.3242363,-9.755610000000001,0,0,43.79953,1,1,8009,4004
2742,65615662,0,-0.0005532271,0.0005957838,-0.0005937938,-0.1945835,0.3245347,-9.762347,0,0,43.79959,1,1,8009,4004
2745,65617286,0,-0.0007137626,-0.0002321702,0.0005361401,-0.1947002,0.3248451,-9.767846,0,0,43.79963,1,1,8009,4004
2748,65620637,0,-0.0005528841,-0.001244474,0.0004502514,-0.1970424,0.3250901,-9.772712,0,0,43.79972,1,1,8009,4004
2783,65623011,0,-0.0004784048,-0.00151901,-0.0004809099,-0.2012502,0.3233157,-9.774518,0,0,43.79987,1,1,8009,4004
2787,65625484,0,-0.0007469091,-0.0009907703000000001,-0.001012854,-0.2028875,0.3225244,-9.774376999999999,0,0,43.79994,1,1,8009,4004
2790,65628784,0,-0.001013969,-0.001267539,-0.0009164651999999999,-0.2051165,0.3232191,-9.774397,0,0,43.8,1,1,8009,4004
2794,65630669,0,-0.0007459482,-0.001505531,-0.0003001495,-0.208304,0.3254824,-9.773789000000001,0,0,43.80001,1,1,8009,4004
2829,65633161,0,0.0003165564,-0.001534323,0.0008120091,-0.2130001,0.3317134,-9.773464000000001,0,0,43.8,1,1,8009,4004
2832,65636180,0,0.001213927,-0.001754592,0.0009045216999999999,-0.2156858,0.3354236,-9.771628,0,0,43.79996,1,1,8009,4004
2835,65638149,0,0.001642731,-0.001313964,0.0009826544,-0.2191468,0.3374491,-9.768583,0,0,43.7999,1,1,8009,4004
2838,65641399,0,0.001378563,-0.001062352,0.0006458206,-0.2220097,0.3368539,-9.766931,0,0,43.79983,1,1,8009,4004
2873,65643850,0,0.0007421093,-0.0004810322,-0.0002280848,-0.2259307,0.335028,-9.758734,0,0,43.79974,1,1,8009,4004
2878,65647762,0,0.00149811,-6.073868e-05,8.472713e-05,-0.2256051,0.3347794,-9.755204000000001,0,0,43.79972,1,1,8009,4004
2881,65649294,0,0.002472928,-6.317483000000001e-05,0.001232419,-0.2233597,0.3353222,-9.75184,0,0,43.79971,1,1,8009,4004
2884,65652464,0,0.002666633,8.003273000000001e-05,0.002005134,-0.2210444,0.3355964,-9.751272,0,0,43.7997,1,1,8009,4004
2919,65654662,0,0.003270565,0.0002619286,0.001941975,-0.2163964,0.3343324,-9.755782999999999,0,0,43.79967,1,1,8009,4004
2922,65658066,0,0.003377504,0.0003328887,0.001660426,-0.2153212,0.3326669,-9.758141,0,0,43.79966,1,1,8009,4004
2927,65660244,0,0.003175465,0.0002639019,0.0008797197,-0.2156832,0.3286305,-9.760598,0,0,43.79966,1,1,8009,4004
2930,65665138,0,0.002011463,0.0004540972,-0.0001906858,-0.2172352,0.3206122,-9.767593,0,0,43.79983,1,1,8009,4004
2966,65667936,0,0.001608356,-0.0003300165,0.0008113505,-0.2190045,0.3176506,-9.770585000000001,0,0,43.79995,1,1,8009,4004
2969,65670426,0,0.001649981,-0.001011612,0.0008900329,-0.2199427,0.3178214,-9.769310000000001,0,0,43.8,1,1,8009,4004
2972,65673871,0,0.001585236,-0.0009553695,0.00237096,-0.2207721,0.3194011,-9.762285,0,0,43.80005,1,1,8009,4004
2975,65678742,0,0.0005568502,0.0007852239999999999,0.002634838,-0.220808,0.3216859,-9.751477,0,0,43.80007,1,1,8009,4004
3011,65681168,0,0.001026984,0.001285221,0.000259854,-0.2224537,0.3235154,-9.747806000000001,0,0,43.80009,1,1,8009,4004
3014,65683467,0,0.000668195,0.001651121,-0.0009684017,-0.2234433,0.3249559,-9.746454,0,0,43.8001,1,1,8009,4004
3020,65686607,0,0.0004014805,0.00162677,-0.0007917021,-0.2208913,0.3274565,-9.745414999999999,0,0,43.80011,1,1,8009,4004
3023,65688752,0,0.0004060986,0.001765804,-0.00021716,-0.2173452,0.3292224,-9.744001000000001,0,0,43.80012,1,1,8009,4004
3058,65691752,0,0.00102723,0.001532213,0.000372685,-0.2125241,0.3330256,-9.741631,0,0,43.80014,1,1,8009,4004
3061,65693749,0,0.001454495,0.00151456,0.000966064,-0.2114589,0.3346357,-9.741267000000001,0,0,43.80014,1,1,8009,4004
3064,65695889,0,0.001875615,0.001982315,0.001702722,-0.2118511,0.3345633,-9.744648,0,0,43.80016,1,1,8009,4004
3067,65699167,0,0.001540456,0.001567216,0.001687085,-0.2123224,0.3345927,-9.748521,0,0,43.80017,1,1,8009,4004
3102,65701270,0,0.0007426658,0.0005498445,0.0002073922,-0.213135,0.3317015,-9.752164,0,0,43.80019,1,1,8009,4004
3106,65704253,0,-0.0008767321,9.782254e-05,-0.00159742,-0.2144448,0.3257331,-9.750431000000001,0,0,43.8002,1,1,8009,4004
3109,65706654,0,-0.002011117,2.118871e-05,-0.001375832,-0.2149556,0.322359,-9.750156,0,0,43.80021,1,1,8009,4004
3116,65710174,0,-0.001998198,0.001573114,-7.464839999999999e-05,-0.2154208,0.321502,-9.753511,0,0,43.80022,1,1,8009,4004
3119,65711585,0,-0.001323855,0.001466625,0.0001289084,-0.2146135,0.3227117,-9.758198,0,0,43.80024,1,1,8009,4004
3154,65714484,0,2.173822e-05,0.001033787,0.0001061849,-0.2152527,0.3221183,-9.765097000000001,0,0,43.80025,1,1,8009,4004
3157,65717365,0,-0.0003290008,-5.344098e-05,0.0006909711,-0.2175631,0.3201257,-9.766631,0,0,43.80027,1,1,8009,4004
3160,65719253,0,-0.001044726,-0.0002751339,0.0002720607,-0.2193819,0.3203917,-9.765320000000001,0,0,43.80029,1,1,8009,4004
3163,65722614,0,-0.002039366,0.0005083064,-0.0009765984999999999,-0.2199352,0.3245691,-9.763801000000001,0,0,43.8003,1,1,8009,4004
3198,65725165,0,-0.00152974,0.001466198,-0.002276554,-0.2163301,0.3300043,-9.759550000000001,0,0,43.80032,1,1,8009,4004
3202,65728140,0,-0.001167586,0.001736816,-0.002090655,-0.2130174,0.3330385,-9.755497,0,0,43.80034,1,1,8009,4004
3205,65729989,0,-0.001155649,0.001374226,-0.001252235,-0.2100152,0.3376815,-9.751042999999999,0,0,43.80035,1,1,8009,4004
3209,65732298,0,-0.001532644,0.0006841137,-0.0009947278,-0.2084821,0.3414156,-9.749072,0,0,43.80037,1,1,8009,4004
3244,65735373,0,-0.002169719,0.0003863757,-0.0008362057,-0.2057515,0.3458398,-9.746422000000001,0,0,43.80039,1,1,8009,4004
3248,65737593,0,-0.001288101,0.0006019793,-0.0007988428,-0.2039592,0.3474741,-9.745061,0,0,43.8004,1,1,8009,4004
3251,65740594,0,-0.001139207,0.001098702,-5.405472e-05,-0.2021471,0.3459783,-9.743067999999999,0,0,43.80041,1,1,8009,4004
3254,65742751,0,-0.001730777,0.001271288,-0.0001125062,-0.2018291,0.3434319,-9.742763999999999,0,0,43.80042,1,1,8009,4004
3289,65744895,0,-0.001939727,0.001067333,-0.0007688525000000001,-0.2018633,0.3398923,-9.746214,0,0,43.80043,1,1,8009,4004
3292,65748312,0,-0.002276922,0.001000343,-0.001598008,-0.2029567,0.3384848,-9.749537,0,0,43.80045,1,1,8009,4004
3295,65749768,0,-0.002787243,9.860924999999999e-05,-0.002111576,-0.2061921,0.3376446,-9.753489999999999,0,0,43.80046,1,1,8009,4004
3298,65753203,0,-0.002476187,-0.0002686939,-0.001033476,-0.2090802,0.3381727,-9.753743999999999,0,0,43.80047,1,1,8009,4004
3333,65755596,0,-0.001450399,-0.0007867111,0.001255097,-0.2147674,0.338686,-9.752587,0,0,43.80048,1,1,8009,4004
3338,65759071,0,-0.001163308,-0.00117689,0.001378493,-0.2215803,0.3381114,-9.748657,0,0,43.8005,1,1,8009,4004
3341,65760601,0,-0.0008349815,-0.001163883,0.001205587,-0.2258563,0.3372093,-9.747417,0,0,43.80051,1,1,8009,4004
3344,65763441,0,-0.0003262397,-0.001309333,-0.0001431279,-0.2287789,0.336683,-9.747863000000001,0,0,43.80053,1,1,8009,4004
3379,65766608,0,0.0002476313,-0.001695668,-0.0008199396,-0.229884,0.3375628,-9.747529999999999,0,0,43.80054,1,1,8009,4004
3382,65768640,0,-0.0003238222,-0.001763734,-0.001214586,-0.2311236,0.3389675,-9.745703000000001,0,0,43.80055,1,1,8009,4004
3386,65771256,0,-0.002082572,-0.0007558902,-0.00150483,-0.2322904,0.3410915,-9.743313000000001,0,0,43.80057,1,1,8009,4004
3389,65773608,0,-0.002667647,7.378677e-05,-0.001429102,-0.2310833,0.3417772,-9.743836999999999,0,0,43.80058,1,1,8009,4004
3424,65776652,0,-0.00244967,-0.0002402809,-0.002022952,-0.2253469,0.339711,-9.747210000000001,0,0,43.80059,1,1,8009,4004
3428,65778289,0,-0.002252101,-0.0005248351,-0.002568433,-0.2211613,0.3378866,-9.751376,0,0,43.80061,1,1,8009,4004
3431,65781032,0,-0.001438877,-0.0004861169,-0.002139591,-0.2178218,0.3376215,-9.760255000000001,0,0,43.80067,1,1,8009,4004
3434,65783806,0,-0.0004421529,-0.0001431074,-0.00152194,-0.2170998,0.3383864,-9.767422,0,0,43.80077,1,1,8009,4004
3469,65786616,0,0.0002814164,0.0006401641,-0.0008149841,-0.2168614,0.3418894,-9.775461999999999,0,0,43.80092,1,1,8009,4004
3473,65788810,0,0.0001831174,0.0005403059,-0.0007266545,-0.2174078,0.3439812,-9.777816,0,0,43.80104,1,1,8009,4004
3476,65791620,0,-0.000713164,0.001063918,-0.0005410334,-0.2197565,0.3458967,-9.777822,0,0,43.80123,1,1,8009,4004
3479,65793430,0,-0.0007125277,0.001614346,-0.0007782119,-0.2211107,0.3459173,-9.776972000000001,0,0,43.80135,1,1,8009,4004
3514,65795752,0,1.659389e-05,0.002382377,-0.002069094,-0.2232998,0.3450292,-9.779235999999999,0,0,43.80153,1,1,8009,4004
3517,65798874,0,0.001338992,0.002364356,-0.002651501,-0.2241469,0.3436049,-9.782608,0,0,43.80164,1,1,8009,4004
3521,65801773,0,0.001454416,0.00225782,-0.002283223,-0.2244313,0.3408385,-9.786616,0,0,43.80183,1,1,8009,4004
3524,65803624,0,0.0004949765,0.002436712,-0.001983715,-0.2233374,0.3407639,-9.788105,0,0,43.80202,1,1,8009,4004
3559,65805986,0,-0.0006856073,0.002146658,-0.0004826958,-0.2211915,0.3419068,-9.787965,0,0,43.80222,1,1,8009,4004
3563,65808656,0,-0.0006282094,0.001269393,0.0007309571,-0.2183034,0.3412946,-9.785382999999999,0,0,43.80234,1,1,8009,4004
3570,65811832,0,0.0001695755,0.0002365136,0.001325464,-0.2141852,0.3395881,-9.778883,0,0,43.8025,1,1,8009,4004
3573,65813806,0,0.0006335252,0.0001669819,0.001348361,-0.2127532,0.3373416,-9.772894000000001,0,0,43.80266,1,1,8009,4004
3608,65816654,0,0.0002806294,0.0005355561,0.0007297141,-0.2124775,0.332756,-9.767182999999999,0,0,43.80282,1,1,8009,4004
3611,65818305,0,-0.00037541,0.0008172852,0.0003173591,-0.2135679,0.3286029,-9.765693000000001,0,0,43.80294,1,1,8009,4004
3614,65821030,0,-4.186755e-05,0.002235894,-5.231048e-05,-0.2162027,0.3255163,-9.764348,0,0,43.80313,1,1,8009,4004
3617,65824159,0,0.0007146853000000001,0.002331397,0.0003979651,-0.2190534,0.3270318,-9.763714,0,0,43.80333,1,1,8009,4004
3652,65826920,0,0.001751741,0.001247462,0.001210308,-0.2251055,0.3296968,-9.765983,0,0,43.80353,1,1,8009,4004
3656,65829325,0,0.001798418,0.001302388,0.001553453,-0.2285412,0.3308942,-9.765214,0,0,43.80367,1,1,8009,4004
3659,65831282,0,0.00126145,0.001831274,0.001539339,-0.2290136,0.3325348,-9.760585000000001,0,0,43.80377,1,1,8009,4004
3662,65834667,0,0.0007994744,0.002748163,0.001776528,-0.2274993,0.3362955,-9.747007999999999,0,0,43.80392,1,1,8009,4004
3697,65837386,0,0.002009766,0.002658861,0.002569609,-0.2244191,0.3376842,-9.734067,0,0,43.8041,1,1,8009,4004
3700,65839495,0,0.002633105,0.002489023,0.00244103,-0.2224593,0.3359396,-9.729476,0,0,43.80422,1,1,8009,4004
3703,65841970,0,0.002872046,0.002502444,0.001641951,-0.2194776,0.3309669,-9.725350000000001,0,0,43.80437,1,1,8009,4004
3706,65844422,0,0.002759976,0.002013063,0.0009043121,-0.2172755,0.3278035,-9.724887000000001,0,0,43.80449,1,1,8009,4004
3743,65847867,0,0.002316582,0.001489579,6.864539e-05,-0.2130997,0.3248263,-9.729371,0,0,43.80458,1,1,8009,4004
3747,65850648,0,0.001683711,0.0006885009,-0.0003923864,-0.2114824,0.3235463,-9.733900999999999,0,0,43.80464,1,1,8009,4004
3750,65852291,0,0.0003794404,-0.0007227835,-0.0004253529,-0.2108468,0.3250939,-9.74004,0,0,43.80473,1,1,8009,4004
3753,65854755,0,0.0003750294,-0.0009408136,2.145807e-05,-0.2110907,0.32772,-9.743316,0,0,43.80478,1,1,8009,4004
3788,65856982,0,0.0009023171,0.0004299314,0.001251301,-0.2127872,0.3295435,-9.747328,0,0,43.80487,1,1,8009,4004
3791,65860287,0,0.001275123,0.0009415509,0.001225292,-0.2144129,0.3299079,-9.748616,0,0,43.80493,1,1,8009,4004
3794,65862739,0,0.001207727,0.0003455031,-2.7457e-05,-0.217754,0.3295076,-9.746898,0,0,43.80502,1,1,8009,4004
3799,65864835,0,0.0006448972,-0.0007579636,-0.0009317554,-0.21945,0.3297986,-9.744927000000001,0,0,43.80508,1,1,8009,4004
3834,65867401,0,-3.343765e-05,-0.002399003,-0.001105976,-0.2206472,0.329073,-9.745735,0,0,43.80519,1,1,8009,4004
3837,65869486,0,-0.0003787692,-0.00258586,-0.0003886267,-0.2206651,0.3278216,-9.749867999999999,0,0,43.80528,1,1,8009,4004
3840,65877932,0,0.0007194314,-0.001547795,0.0002397223,-0.2193869,0.3241483,-9.741089000000001,0,0,43.80561,1,1,8009,4004
3875,65880211,0,-0.0008869001,-0.001877648,0.0002306177,-0.2182276,0.3235997,-9.740171999999999,0,0,43.80566,1,1,8009,4004
3878,65883234,0,-0.001638009,-0.002774212,0.0009145597,-0.2202398,0.3245541,-9.741899,0,0,43.80574,1,1,8009,4004
3881,65885982,0,-0.0007034374,-0.003211815,0.0008498043,-0.2223335,0.3262382,-9.74413,0,0,43.80579,1,1,8009,4004
3884,65888433,0,-1.24145e-05,-0.002770722,0.0001283498,-0.2247834,0.3255553,-9.746396000000001,0,0,43.80589,1,1,8009,4004
3919,65890867,0,-0.001251693,-0.001647637,-0.0007915327,-0.2246006,0.323094,-9.750054,0,0,43.80596,1,1,8009,4004
3922,65893623,0,-0.00163661,-0.001129204,-0.0007530573,-0.2230148,0.3229603,-9.753456,0,0,43.80601,1,1,8009,4004
3926,65896502,0,-0.00130023,-2.072752e-05,-0.0006220923,-0.2192723,0.3256308,-9.760401,0,0,43.80608,1,1,8009,4004
3929,65898766,0,-0.001469253,0.0004294135,-0.001156597,-0.2170313,0.3287388,-9.766697000000001,0,0,43.80613,1,1,8009,4004
3964,65901473,0,-0.0006952956,0.0008490393,-0.0009212664,-0.2136604,0.3337697,-9.775679,0,0,43.80621,1,1,8009,4004
3968,65903672,0,-0.0007040846,0.001340712,-0.001037671,-0.2113854,0.336265,-9.778460000000001,0,0,43.80628,1,1,8009,4004
3972,65905896,0,-0.0007544099,0.001778985,-0.001659849,-0.2099211,0.3376352,-9.77657,0,0,43.80642,1,1,8009,4004
3975,65909072,0,-0.0006507105,0.0017108,-0.002349207,-0.2090844,0.3380151,-9.773973,0,0,43.8065,1,1,8009,4004
4010,65911295,0,0.0008458403,0.001701926,-0.002648734,-0.2076971,0.3394022,-9.769190999999999,0,0,43.80663,1,1,8009,4004
4018,65914838,0,0.001350608,0.0009116393,-0.002443345,-0.2082015,0.3395979,-9.766355000000001,0,0,43.80674,1,1,8009,4004
4023,65916397,0,0.0009623253,0.0001939524,-0.00220019,-0.2080227,0.3384588,-9.765821000000001,0,0,43.8068,1,1,8009,4004
4026,65920029,0,-0.001140342,-0.0001334858,-0.001324887,-0.206976,0.3350228,-9.765575999999999,0,0,43.80691,1,1,8009,4004
4061,65922328,0,-0.002612089,0.0007752134,-0.001202847,-0.2070803,0.3312475,-9.763481000000001,0,0,43.80704,1,1,8009,4004
4064,65925375,0,-0.00362436,0.001698424,-0.002513387,-0.2086853,0.329981,-9.760339999999999,0,0,43.80715,1,1,8009,4004
4067,65927404,0,-0.002792467,0.002091361,-0.003381095,-0.2091261,0.3296703,-9.759157,0,0,43.80721,1,1,8009,4004
4070,65930237,0,-0.0008737243,0.001952619,-0.00315586,-0.2068121,0.3290701,-9.759109,0,0,43.80736,1,1,8009,4004
4105,65932621,0,-0.0001603288,0.002051246,-0.001891046,-0.2031569,0.3294711,-9.760403999999999,0,0,43.80751,1,1,8009,4004
4109,65935826,0,-0.001068956,0.002094534,-0.00154217,-0.2012598,0.3291889,-9.761340000000001,0,0,43.80763,1,1,8009,4004
4112,65937449,0,-0.001586892,0.00232574,-0.001275357,-0.2002221,0.3306924,-9.764809,0,0,43.8078,1,1,8009,4004
4115,65940254,0,-0.0008218886,0.002689171,-0.0004855219,-0.2014159,0.3316516,-9.767861,0,0,43.80795,1,1,8009,4004
4150,65943272,0,0.00074864,0.003130012,0.0004072775,-0.2059109,0.3315092,-9.770813,0,0,43.80817,1,1,8009,4004
4153,65945385,0,0.0009190912,0.003219821,0.0006183597,-0.208561,0.3308378,-9.770165,0,0,43.80829,1,1,8009,4004
4156,65948703,0,-0.0002161471,0.003493824,0.0003501642,-0.2105469,0.3311422,-9.767139,0,0,43.80846,1,1,8009,4004
4159,65949977,0,-0.0006379175,0.003445382,0.0003658467,-0.2119912,0.3334664,-9.758243,0,0,43.80871,1,1,8009,4004
4194,65952870,0,-0.0004259096,0.002386781,0.0001770706,-0.2123142,0.3352997,-9.754308,0,0,43.80891,1,1,8009,4004
4198,65956315,0,-0.000826683,0.002029955,0.0001724809,-0.2128725,0.3380247,-9.753996000000001,0,0,43.80914,1,1,8009,4004
4201,65958497,0,-0.001317731,0.00264394,0.0004228923,-0.2137721,0.3415357,-9.753235999999999,0,0,43.8093,1,1,8009,4004
4204,65959882,0,-0.001202258,0.002667939,0.0004056399,-0.2122888,0.3423761,-9.750356999999999,0,0,43.80941,1,1,8009,4004
4239,65962947,0,-0.001325356,0.001906256,0.0004436989,-0.2101751,0.3412589,-9.746798999999999,0,0,43.80952,1,1,8009,4004
4244,65965235,0,-0.001797959,0.0005480488,-3.62536e-05,-0.2079145,0.3379798,-9.744164,0,0,43.80969,1,1,8009,4004
4248,65968293,0,-0.00203537,0.0002966702,-0.001190072,-0.2069496,0.3375749,-9.744343000000001,0,0,43.80981,1,1,8009,4004
4251,65970460,0,-0.001103845,0.0008338059000000001,-0.00108842,-0.2055008,0.3390749,-9.742974,0,0,43.80994,1,1,8009,4004
4286,65973145,0,-0.0006051564,0.0007327724000000001,-0.0006253224,-0.2047108,0.3396258,-9.741761,0,0,43.81005,1,1,8009,4004
4289,65975155,0,-0.0008736982,-4.083826e-05,-0.0005795432,-0.2052828,0.3383938,-9.742611,0,0,43.81012,1,1,8009,4004
4293,65977932,0,-0.001398851,-0.0007272969,-0.000151715,-0.2074048,0.3373896,-9.745257000000001,0,0,43.81017,1,1,8009,4004
4296,65980756,0,-0.001099947,-0.0005384109,-0.0001762702,-0.2107738,0.337087,-9.748927999999999,0,0,43.81029,1,1,8009,4004
4331,65983449,0,0.0006437777,-0.0007369077,-0.0005615511,-0.2163096,0.3371165,-9.755417,0,0,43.81038,1,1,8009,4004
4335,65986018,0,0.0007755489,-0.0004841901,-0.000478233,-0.2193419,0.3363798,-9.758264,0,0,43.81044,1,1,8009,4004
4338,65988272,0,-0.000780838,-0.0003551386,-8.089048e-05,-0.2217929,0.3366165,-9.759397,0,0,43.81053,1,1,8009,4004
4341,65990768,0,-0.001781422,-0.0002905611,0.0003656552,-0.2230632,0.3386802,-9.759712,0,0,43.81059,1,1,8009,4004
4376,65993632,0,-0.001139799,0.0001541438,0.001982355,-0.2265516,0.3428558,-9.760655,0,0,43.81068,1,1,8009,4004
4379,65996041,0,0.000316587,0.0001570519,0.002678611,-0.2289818,0.3439093,-9.760904,0,0,43.81076,1,1,8009,4004
4382,65998194,0,0.001622215,-0.00116335,0.00182357,-0.2312844,0.3410521,-9.762126,0,0,43.81092,1,1,8009,4004
4385,66000669,0,0.0006544041,-0.00261344,0.0008640738,-0.2339386,0.3355943,-9.762674000000001,0,0,43.81105,1,1,8009,4004
4420,66003097,0,0.0004160703,-0.003010345,0.0002381683,-0.2355143,0.33263,-9.762127,0,0,43.8112,1,1,8009,4004
4424,66006134,0,-0.000108392,-0.002384091,0.0002432723,-0.2362432,0.3295698,-9.761353,0,0,43.81128,1,1,8009,4004
4427,66008866,0,-0.0008922414,-0.001011061,0.001585209,-0.2367691,0.3270945,-9.761856,0,0,43.81142,1,1,8009,4004
4430,66010853,0,-0.0002402392,-0.001109478,0.002068666,-0.2362825,0.3268802,-9.763820000000001,0,0,43.81155,1,1,8009,4004
4465,66013194,0,0.0006621126,-0.001546161,0.00251594,-0.2320296,0.3272802,-9.766959,0,0,43.81168,1,1,8009,4004
4472,66015847,0,0.0006476773,-0.001501284,0.002675259,-0.2287848,0.3280182,-9.770250000000001,0,0,43.81177,1,1,8009,4004
4475,66018583,0,0.0006294997,-0.001489201,0.00224888,-0.2258717,0.3273213,-9.775294000000001,0,0,43.8119,1,1,8009,4004
4478,66021248,0,0.001062494,-0.001073388,0.001393379,-0.2249078,0.3274399,-9.777348999999999,0,0,43.81202,1,1,8009,4004
4513,66023776,0,0.00101139,-0.000441379,-0.0007891351,-0.2247736,0.3316796,-9.779723000000001,0,0,43.81224,1,1,8009,4004
4517,66026204,0,0.0009163055,-0.0007911478,-0.0008314245,-0.2258393,0.3341862,-9.781238999999999,0,0,43.81232,1,1,8009,4004
4520,66029378,0,0.0009703072,-0.001146137,-0.001289292,-0.2284574,0.337122,-9.784219,0,0,43.81248,1,1,8009,4004
4523,66031468,0,0.001482127,-0.0008146181,-0.001929238,-0.2307706,0.3376598,-9.784103,0,0,43.81256,1,1,8009,4004
4558,66034445,0,0.00204594,-0.001041691,-0.001272792,-0.2329571,0.3372592,-9.779487,0,0,43.8127,1,1,8009,4004
4561,66036755,0,0.002653609,-0.001290306,-0.000670056,-0.2335063,0.3366649,-9.775852,0,0,43.81276,1,1,8009,4004
4564,66039236,0,0.002842411,-0.00112077,-0.0002803576,-0.234937,0.3342104,-9.771827999999999,0,0,43.81285,1,1,8009,4004
4567,66042194,0,0.002997029,0.001050935,0.0002670091,-0.2337347,0.3327051,-9.772394,0,0,43.81292,1,1,8009,4004
4602,66044670,0,0.003468699,0.0015888,-0.0003039561,-0.2314973,0.3332272,-9.772366999999999,0,0,43.81313,1,1,8009,4004
4606,66047893,0,0.004222689,0.001264344,-0.001690703,-0.2297819,0.3333863,-9.770493,0,0,43.81326,1,1,8009,4004
4609,66049957,0,0.003998626,0.0009529445,-0.00190516,-0.2257098,0.3338569,-9.767182,0,0,43.81349,1,1,8009,4004
4612,66052455,0,0.003076052,0.0006359030000000001,-0.001534202,-0.2223555,0.3339422,-9.76529,0,0,43.81359,1,1,8009,4004
4647,66055848,0,0.002726831,0.0007476226,-0.001669296,-0.2180978,0.333686,-9.766277000000001,0,0,43.81382,1,1,8009,4004
4650,66057609,0,0.002614964,0.0009255731,-0.002164352,-0.2154054,0.3338023,-9.768178000000001,0,0,43.81392,1,1,8009,4004
4653,66060861,0,0.001177295,0.001784183,-0.003387404,-0.2142038,0.3328961,-9.77103,0,0,43.8141,1,1,8009,4004
4656,66062246,0,0.0004218404,0.002257269,-0.003380648,-0.2131159,0.331983,-9.771563,0,0,43.8143,1,1,8009,4004
4691,66064910,0,0.001486952,0.002762869,-0.002802186,-0.2107071,0.3314982,-9.772755999999999,0,0,43.81453,1,1,8009,4004
4694,66067985,0,0.002102914,0.002466505,-0.002131327,-0.209625,0.3314092,-9.775017999999999,0,0,43.81462,1,1,8009,4004
4699,66069983,0,0.002208544,0.002296757,-0.001565268,-0.2095023,0.3305094,-9.781593000000001,0,0,43.81477,1,1,8009,4004
4702,66075302,0,0.001277264,0.003404311,-0.002514173,-0.2107107,0.330979,-9.786635,0,0,43.81507,1,1,8009,4004
4738,66080812,0,-0.001455158,0.002013055,-0.0008035743,-0.2138127,0.3295231,-9.779764,0,0,43.81539,1,1,8009,4004
4741,66083446,0,-0.002204144,0.00211815,-0.0002376783,-0.2145091,0.3291951,-9.778009000000001,0,0,43.81548,1,1,8009,4004
4745,66086138,0,-0.002480252,0.002513415,-0.0003074762,-0.2154949,0.3300653,-9.777289,0,0,43.81558,1,1,8009,4004
4780,66088772,0,-0.002137089,0.002700959,-0.0006830191,-0.2160688,0.3315214,-9.777668,0,0,43.81565,1,1,8009,4004
4783,66091795,0,-0.001580794,0.003496784,-0.0004737224,-0.2166566,0.3320376,-9.777079000000001,0,0,43.81573,1,1,8009,4004
4786,66094067,0,-0.002156925,0.00293719,8.615184e-05,-0.2165732,0.3316547,-9.773933,0,0,43.81579,1,1,8009,4004
4789,66096156,0,-0.002973869,0.002224583,0.0009436278,-0.2155411,0.3343387,-9.768924999999999,0,0,43.81588,1,1,8009,4004
4825,66098654,0,-0.002736122,0.001479584,0.001328644,-0.2154799,0.3371106,-9.767485000000001,0,0,43.81594,1,1,8009,4004
4828,66101009,0,-0.001667622,0.001433344,0.001456821,-0.2119349,0.3400552,-9.764647,0,0,43.81603,1,1,8009,4004
4832,66104218,0,-0.001729888,0.0007764315,0.0008563821,-0.2083187,0.3409072,-9.762484000000001,0,0,43.81609,1,1,8009,4004
4835,66106426,0,-0.003695927,-0.00050561,0.0003925533,-0.2027923,0.3424571,-9.761512,0,0,43.81618,1,1,8009,4004
4870,66109071,0,-0.004539049,-0.001096182,0.0005968312,-0.2007401,0.3439829,-9.760718000000001,0,0,43.81627,1,1,8009,4004
4874,66111612,0,-0.003409095,-0.001892902,0.0006972058,-0.200358,0.3427012,-9.760977,0,0,43.81633,1,1,8009,4004
4877,66114290,0,-0.001955508,-0.001157936,0.001339981,-0.2007517,0.3367665,-9.763719999999999,0,0,43.81645,1,1,8009,4004
4880,66117026,0,-0.001501923,-0.0004511962,0.001420674,-0.2019465,0.3312873,-9.7644,0,0,43.81651,1,1,8009,4004
4919,66119880,0,-0.001579966,-0.001230208,0.000577721,-0.2046903,0.3224165,-9.764728,0,0,43.81659,1,1,8009,4004
4922,66122253,0,-0.002249909,-0.00236963,-0.0001427018,-0.208964,0.3157235,-9.763564000000001,0,0,43.81664,1,1,8009,4004
4925,66124269,0,-0.002271214,-0.00262201,8.375929e-05,-0.2114356,0.3127155,-9.766766000000001,0,0,43.81665,1,1,8009,4004
4928,66127779,0,-0.001896509,-0.002941157,0.0009083542,-0.2164269,0.3115213,-9.775964999999999,0,0,43.81664,1,1,8009,4004
4963,66130613,0,-0.001728701,-0.00287445,0.00119121,-0.2211794,0.3101595,-9.786467,0,0,43.81657,1,1,8009,4004
4967,66132670,0,-0.00203709,-0.002567079,0.001775395,-0.2223413,0.3095307,-9.789243000000001,0,0,43.8165,1,1,8009,4004
4970,66135062,0,-0.002258223,-0.00256907,0.00175173,-0.222547,0.3105054,-9.786543,0,0,43.81645,1,1,8009,4004
4973,66137586,0,-0.002209053,-0.00238517,0.002083284,-0.2228095,0.3133241,-9.783778999999999,0,0,43.81638,1,1,8009,4004
5008,66140643,0,-0.001666191,-0.002244121,0.002438364,-0.2226506,0.3211706,-9.779045,0,0,43.81628,1,1,8009,4004
5011,66143797,0,-0.0007840834,-0.002401735,0.002341447,-0.2206391,0.3287764,-9.775974,0,0,43.81624,1,1,8009,4004
5014,66144995,0,-0.000594243,-0.001926889,0.001534488,-0.2187603,0.3396375,-9.776512,0,0,43.81621,1,1,8009,4004
5017,66147816,0,-0.0003165082,-0.0007922035,0.0009441452,-0.2191357,0.3460957,-9.777060000000001,0,0,43.81623,1,1,8009,4004
5052,66150072,0,-1.82102e-05,0.0001268844,0.001128606,-0.2194963,0.3539235,-9.776949,0,0,43.81628,1,1,8009,4004
5055,66153851,0,-5.51327e-05,0.0005320922,0.001852046,-0.2198031,0.357751,-9.775562000000001,0,0,43.81634,1,1,8009,4004
5058,66155796,0,0.0002620649,0.0004952247,0.002774695,-0.2200907,0.3591144,-9.770963999999999,0,0,43.81642,1,1,8009,4004
5061,66157887,0,0.0001263631,0.0007373181,0.002281196,-0.2204776,0.3573211,-9.768879,0,0,43.81647,1,1,8009,4004
5096,66160024,0,-0.0003075453,0.0008515388,0.0008707380999999999,-0.2204495,0.3521977,-9.766768000000001,0,0,43.81651,1,1,8009,4004
5099,66162859,0,-8.952813e-05,0.0009065072,0.0001463613,-0.2203408,0.349736,-9.766124,0,0,43.81651,1,1,8009,4004
5102,66165388,0,0.001486844,2.753684e-05,0.0004098392,-0.2213775,0.3477439,-9.763461,0,0,43.81649,1,1,8009,4004
5105,66168739,0,0.001523942,-0.0007284323,0.001156921,-0.2239308,0.3465991,-9.760757,0,0,43.81649,1,1,8009,4004
5140,66171622,0,5.658917e-06,0.0005278299,0.001604113,-0.2247945,0.3441065,-9.758913,0,0,43.81648,1,1,8009,4004
5144,66173798,0,-0.001143469,0.001955375,0.001251281,-0.2239809,0.34015,-9.756378,0,0,43.81648,1,1,8009,4004
5147,66176036,0,-0.00168594,0.003364575,-0.0006319754,-0.2206117,0.3340349,-9.752048,0,0,43.81646,1,1,8009,4004
5150,66179159,0,-0.0009129217,0.003380967,-0.001777216,-0.2174407,0.3315954,-9.748802,0,0,43.81647,1,1,8009,4004
5185,66181267,0,0.0005571416,0.003743903,-0.002598226,-0.2136866,0.3311697,-9.746575999999999,0,0,43.8165,1,1,8009,4004
5190,66184833,0,0.00306383,0.004479599,-0.001724526,-0.2113931,0.3324046,-9.745327,0,0,43.81649,1,1,8009,4004
5193,66187004,0,0.003731604,0.005233868,-0.0003948473,-0.2098097,0.3319556,-9.743988,0,0,43.81648,1,1,8009,4004
5196,66189624,0,0.003153468,0.004795359,0.001023625,-0.2089473,0.3307322,-9.744755,0,0,43.81647,1,1,8009,4004
5231,66191861,0,0.002522349,0.003715213,2.586448e-05,-0.2120087,0.3320938,-9.748509,0,0,43.81647,1,1,8009,4004
5234,66194795,0,0.002650056,0.003118714,-0.001253364,-0.2145625,0.3340513,-9.749867,0,0,43.81647,1,1,8009,4004
5237,66197615,0,0.002562373,0.002243636,-0.002213055,-0.2151817,0.3356135,-9.750346,0,0,43.81647,1,1,8009,4004
5240,66199201,0,0.001418995,0.002286152,-0.001540927,-0.2142706,0.3366381,-9.748462999999999,0,0,43.81646,1,1,8009,4004
5275,66202736,0,-0.0008463545,0.002594379,-0.000528026,-0.2148009,0.3396926,-9.744643,0,0,43.81641,1,1,8009,4004
5279,66204209,0,-0.001127669,0.002536286,0.0004662421,-0.2146978,0.3422481,-9.741039000000001,0,0,43.81639,1,1,8009,4004
5282,66207437,0,0.0003467958,0.003075264,0.0007277434,-0.2134467,0.3441328,-9.740254,0,0,43.81635,1,1,8009,4004
5285,66209773,0,0.00118263,0.003147005,0.0002931363,-0.2124098,0.3431886,-9.743586000000001,0,0,43.81634,1,1,8009,4004
5320,66211933,0,0.001151807,0.002624736,-0.001416693,-0.2100578,0.3396899,-9.749307,0,0,43.81634,1,1,8009,4004
5323,66215016,0,0.0003266735,0.001612496,-0.002619972,-0.2077704,0.3369125,-9.752219999999999,0,0,43.81634,1,1,8009,4004
5326,66216858,0,-0.001376984,0.0007537119,-0.001886351,-0.2041257,0.3329563,-9.757647,0,0,43.81635,1,1,8009,4004
5329,66219466,0,-0.0007503779,-1.082556e-05,-0.0009074796,-0.2028196,0.3311305,-9.762546,0,0,43.81637,1,1,8009,4004
5368,66222875,0,0.0004878087,0.0003079823,-0.0003544779,-0.2031439,0.3314482,-9.765639,0,0,43.81641,1,1,8009,4004
5372,66224414,0,0.0006910471,0.0002699514,-3.136321e-05,-0.2043813,0.3320738,-9.765855,0,0,43.81646,1,1,8009,4004
5375,66227429,0,-0.0006588456,-0.0005583179,-0.0003979022,-0.2064863,0.3308797,-9.76417,0,0,43.81654,1,1,8009,4004
5378,66229360,0,-0.0009288593,-0.001559055,-0.000484167,-0.2080612,0.3292628,-9.761711,0,0,43.81658,1,1,8009,4004
5413,66232268,0,0.0005464887000000001,-0.00210436,-0.0009275888,-0.2132008,0.3287268,-9.75886,0,0,43.81665,1,1,8009,4004
5416,66234911,0,0.001014522,-0.002654125,-0.001447544,-0.2200266,0.3268597,-9.757837,0,0,43.81672,1,1,8009,4004
5419,66236839,0,8.152245e-05,-0.002059662,-0.001168366,-0.2236846,0.3250664,-9.758388999999999,0,0,43.81681,1,1,8009,4004
5423,66239980,0,-0.0003350434,-0.001243411,-0.0009628323,-0.2266071,0.3221566,-9.758915999999999,0,0,43.81687,1,1,8009,4004
5458,66242467,0,-0.0007855714,-0.002538313,-0.0009795661999999999,-0.2293619,0.3181579,-9.761075,0,0,43.81698,1,1,8009,4004
5462,66245240,0,-0.0009677291,-0.002876883,-0.0001281098,-0.2290525,0.3162811,-9.766289,0,0,43.81708,1,1,8009,4004
5465,66247439,0,-0.0009378257,-0.002828802,0.0003364977,-0.2275113,0.3153204,-9.769531000000001,0,0,43.81715,1,1,8009,4004
5468,66250361,0,-0.0008725455,-0.003676828,0.000774898,-0.2264986,0.3143944,-9.77463,0,0,43.81727,1,1,8009,4004
5503,66253245,0,-0.000198456,-0.004204491,0.001098307,-0.2263294,0.3135652,-9.778797000000001,0,0,43.81736,1,1,8009,4004
5509,66255870,0,0.0002903487,-0.004382277,0.0005481805,-0.2255764,0.3135192,-9.776929000000001,0,0,43.81748,1,1,8009,4004
5512,66264202,0,-0.001695753,-0.003673667,-0.002498652,-0.2167074,0.3320022,-9.752065,0,0,43.8177,1,1,8009,4004
5547,66267058,0,-0.002377762,-0.002286897,-0.001680352,-0.2149089,0.3384438,-9.749336,0,0,43.81768,1,1,8009,4004
5550,66270595,0,-0.002368052,-0.0006679731,-0.000497619,-0.2143428,0.3422012,-9.750420999999999,0,0,43.81764,1,1,8009,4004
5553,66272621,0,-0.001078706,-8.723223e-05,0.0007077839,-0.2139966,0.3463779,-9.753292,0,0,43.81758,1,1,8009,4004
5556,66274821,0,-0.0002208191,-0.0006003588,0.0007845262,-0.2146957,0.3475641,-9.754733,0,0,43.81753,1,1,8009,4004
5592,66277038,0,0.0005042804,-0.001500114,0.0009091532,-0.2160816,0.3464151,-9.753512000000001,0,0,43.81749,1,1,8009,4004
5595,66280157,0,0.0009760708000000001,-0.001049493,0.0002642255,-0.2182107,0.3460456,-9.749548000000001,0,0,43.81745,1,1,8009,4004
5598,66282986,0,0.0002928285,-0.0006719391,-0.0001012971,-0.2195297,0.345802,-9.745092,0,0,43.81745,1,1,8009,4004
5601,66285615,0,-0.001253112,-0.0006801188,0.0003287151,-0.2216651,0.3431024,-9.741906,0,0,43.81748,1,1,8009,4004
5636,66288247,0,-0.001963806,0.0005352557,0.001516518,-0.2259496,0.3418192,-9.746269,0,0,43.81748,1,1,8009,4004
5641,66290350,0,-0.002478763,0.00118433,0.001491075,-0.2268821,0.3417608,-9.750518,0,0,43.81747,1,1,8009,4004
5644,66293643,0,-0.001339565,0.001670845,0.002086529,-0.2271439,0.3386853,-9.756506999999999,0,0,43.81749,1,1,8009,4004
5647,66295425,0,-0.0007721753,0.001848776,0.001993946,-0.2280538,0.3367107,-9.759029,0,0,43.8175,1,1,8009,4004
5682,66298760,0,-0.0004076733,0.001973533,0.001926629,-0.2301419,0.3345071,-9.764981000000001,0,0,43.81755,1,1,8009,4004
5685,66300554,0,-0.0003384471,0.002495316,0.001821796,-0.2309714,0.3332596,-9.769291000000001,0,0,43.81758,1,1,8009,4004
5688,66303134,0,-0.0005855325,0.003460506,0.001673384,-0.2324173,0.3325689,-9.771191,0,0,43.81761,1,1,8009,4004
5691,66305836,0,-3.133982e-05,0.00359287,0.001133739,-0.2320709,0.3317088,-9.77183,0,0,43.81761,1,1,8009,4004
5726,66308436,0,0.0005172769,0.003916795,0.0004868632,-0.227535,0.3287881,-9.77229,0,0,43.81761,1,1,8009,4004
5731,66311274,0,-0.0006011567,0.003549861,0.0005947294,-0.2239705,0.3252309,-9.770649000000001,0,0,43.81757,1,1,8009,4004
5734,66313627,0,-0.00115321,0.00259162,0.000676145,-0.2227136,0.3248234,-9.768395999999999,0,0,43.81754,1,1,8009,4004
5737,66316010,0,-0.001756159,0.002528655,0.001528979,-0.2197022,0.3267986,-9.764829000000001,0,0,43.81744,1,1,8009,4004
5772,66319028,0,-0.001557957,0.002883684,0.001767895,-0.218467,0.3284191,-9.763040999999999,0,0,43.81742,1,1,8009,4004
5775,66320955,0,-0.001136658,0.003055967,0.001385076,-0.2199657,0.3309218,-9.761763999999999,0,0,43.81742,1,1,8009,4004
5778,66324017,0,-0.001425806,0.003547958,0.001451619,-0.2216685,0.3327794,-9.76346,0,0,43.81744,1,1,8009,4004
5785,66326180,0,-0.001859407,0.003388538,0.000199117,-0.2244418,0.3355718,-9.766575,0,0,43.81745,1,1,8009,4004
5820,66328734,0,-0.001703164,0.003021011,-0.0009822473,-0.2258443,0.3384734,-9.764802,0,0,43.81745,1,1,8009,4004
5824,66331219,0,-0.000281793,0.002859153,-0.000963441,-0.2236635,0.3397271,-9.75806,0,0,43.81745,1,1,8009,4004
5827,66333625,0,-0.0001419442,0.002893059,-0.0004013797,-0.2215405,0.3389877,-9.75258,0,0,43.81744,1,1,8009,4004
5830,66336277,0,0.0002946748,0.00354764,0.001301998,-0.219692,0.3388843,-9.747757999999999,0,0,43.81742,1,1,8009,4004
5867,66338898,0,0.0006680306,0.002548865,0.001884078,-0.2208658,0.3390867,-9.747653,0,0,43.81738,1,1,8009,4004
5870,66341824,0,0.0009707237,0.001466247,0.00148589,-0.2222197,0.3385989,-9.750854,0,0,43.81736,1,1,8009,4004
5873,66343920,0,0.001918356,5.146996e-05,0.001287872,-0.2210454,0.3377666,-9.754630000000001,0,0,43.81736,1,1,8009,4004
5876,66346379,0,0.001881834,-0.0006267473,0.001298104,-0.218427,0.3382268,-9.754246,0,0,43.81739,1,1,8009,4004
5911,66349285,0,0.0008195412,-0.00066447,0.0009398711,-0.2146109,0.3388543,-9.750978,0,0,43.81749,1,1,8009,4004
5915,66351393,0,0.0006267505,-0.0004031077,0.0004288627,-0.2126216,0.3379695,-9.748491,0,0,43.81758,1,1,8009,4004
5918,66353970,0,0.001150707,-0.0005767696,-0.0005045783,-0.2115804,0.334859,-9.74338,0,0,43.8177,1,1,8009,4004
5921,66356812,0,0.001932757,-0.0005113879,-0.0006447629,-0.2134442,0.3320615,-9.7408,0,0,43.81775,1,1,8009,4004
5956,66359054,0,0.002019117,-0.0005899144,3.73269e-05,-0.2179805,0.32688,-9.738937,0,0,43.81782,1,1,8009,4004
5960,66362523,0,0.0006914662999999999,-0.0005482129000000001,0.0005135586,-0.2208927,0.3209698,-9.743152,0,0,43.81785,1,1,8009,4004
5963,66364064,0,0.0008428853,-0.001371238,0.0006629664,-0.2230814,0.3179598,-9.747339,0,0,43.81787,1,1,8009,4004
5966,66368205,0,0.0005942724,-0.002044763,0.0002565044,-0.2259881,0.3178096,-9.752898,0,0,43.81791,1,1,8009,4004
5969,66369404,0,-0.0001925841,-0.001878167,-5.431696e-05,-0.2272973,0.3192015,-9.755095000000001,0,0,43.81794,1,1,8009,4004
6004,66371844,0,-0.002591017,-0.001044456,-6.689872000000001e-05,-0.2287669,0.3214263,-9.753085,0,0,43.81797,1,1,8009,4004
6007,66375761,0,-0.003926333,-0.001018462,0.0005787808,-0.2283677,0.3235932,-9.751963999999999,0,0,43.81799,1,1,8009,4004
6010,66377184,0,-0.003194749,-0.002029807,0.001249125,-0.2266281,0.3291602,-9.751222,0,0,43.81802,1,1,8009,4004
6013,66379802,0,-0.001401654,-0.002825161,0.001742507,-0.2256598,0.3333586,-9.74905,0,0,43.81804,1,1,8009,4004
6049,66382812,0,0.001303951,-0.002224583,0.00257357,-0.2239004,0.3368234,-9.745272999999999,0,0,43.81804,1,1,8009,4004
6052,66384742,0,0.001460084,-0.001757235,0.002176247,-0.2221609,0.3374393,-9.744047999999999,0,0,43.81804,1,1,8009,4004
6055,66387469,0,0.000110751,-0.001226581,0.001229944,-0.2183641,0.3379818,-9.7447,0,0,43.81804,1,1,8009,4004
6058,66390178,0,-0.001228515,-0.001537271,6.3181e-05,-0.2153786,0.3385934,-9.746226999999999,0,0,43.81804,1,1,8009,4004
6093,66392513,0,-0.001271875,-0.001606836,-0.002511299,-0.2114052,0.3369412,-9.749414,0,0,43.81807,1,1,8009,4004
6096,66395810,0,-0.001863319,-0.00219341,-0.003323523,-0.2088669,0.3336631,-9.749523999999999,0,0,43.81807,1,1,8009,4004
6099,66397298,0,-0.002378691,-0.002578113,-0.002415019,-0.2086648,0.3331506,-9.749409999999999,0,0,43.81808,1,1,8009,4004
6102,66400275,0,-0.002565739,-0.001710155,-0.00103365,-0.2118976,0.3333499,-9.751543,0,0,43.81811,1,1,8009,4004
6137,66403006,0,-0.002327797,-0.0005109776,-0.000200954,-0.2175892,0.3347885,-9.755894,0,0,43.81814,1,1,8009,4004
6141,66405477,0,-0.001649484,9.343609e-05,-0.000306388,-0.2219599,0.3361088,-9.757707999999999,0,0,43.81816,1,1,8009,4004
6145,66408203,0,-0.001419025,0.001020968,-0.0007687129,-0.2252147,0.3375627,-9.760256999999999,0,0,43.81822,1,1,8009,4004
6148,66410575,0,-0.001428875,0.001134008,-0.001678525,-0.2258085,0.3368454,-9.760909,0,0,43.81826,1,1,8009,4004
6183,66413765,0,-0.001378556,0.001518062,-0.003570977,-0.2278216,0.3346165,-9.763301,0,0,43.81832,1,1,8009,4004
6187,66415986,0,-0.001331734,0.002149547,-0.003556405,-0.2298239,0.3348446,-9.765117999999999,0,0,43.81834,1,1,8009,4004
6190,66418157,0,-0.0006136426,0.002356994,-0.002679847,-0.2329117,0.3383879,-9.762430999999999,0,0,43.81837,1,1,8009,4004
6193,66420427,0,-0.000975878,0.00262355,-0.001654028,-0.2325773,0.3400559,-9.757732000000001,0,0,43.81839,1,1,8009,4004
6228,66422954,0,-0.001829697,0.003172299,-0.0009440586,-0.2276283,0.3396931,-9.752254000000001,0,0,43.81849,1,1,8009,4004
6231,66426000,0,-0.001216218,0.003503223,-0.0002933848,-0.2247584,0.339495,-9.751533,0,0,43.81855,1,1,8009,4004
6238,66429026,0,-0.0001891267,0.003288687,0.0003028344,-0.2220275,0.3387655,-9.754916,0,0,43.81871,1,1,8009,4004
6241,66430274,0,0.0002013416,0.003145676,-0.0001061855,-0.2205021,0.3375532,-9.758654,0,0,43.81886,1,1,8009,4004
6276,66433000,0,0.0009340232,0.003615094,-0.000968483,-0.2176457,0.3353805,-9.763724,0,0,43.81902,1,1,8009,4004
6280,66435492,0,0.0007019337,0.003272781,-0.001428052,-0.2170404,0.3347167,-9.766631,0,0,43.81911,1,1,8009,4004
6284,66438613,0,0.0004552296,0.002761426,-0.002203373,-0.2174182,0.3345987,-9.767391999999999,0,0,43.81933,1,1,8009,4004
6287,66440826,0,0.0005799228999999999,0.002690159,-0.001841505,-0.2175585,0.3356895,-9.767529,0,0,43.81945,1,1,8009,4004
6322,66443414,0,0.0001179069,0.003539791,-0.001002145,-0.2172831,0.3372081,-9.767529,0,0,43.81968,1,1,8009,4004
6325,66445669,0,-0.0006992614,0.004111166,-0.0002076831,-0.2174561,0.3381714,-9.766366,0,0,43.81986,1,1,8009,4004
6328,66448442,0,-0.0009888852,0.003583661,-0.0002393604,-0.2177975,0.3392743,-9.766211,0,0,43.82,1,1,8009,4004
6331,66451313,0,-0.0001428263,0.00268155,-0.001151973,-0.2193893,0.3402207,-9.767981000000001,0,0,43.82026,1,1,8009,4004
6366,66454238,0,-4.05851e-05,0.001633254,-0.0008871406,-0.2221548,0.3414097,-9.771860999999999,0,0,43.82045,1,1,8009,4004
6370,66456213,0,9.827559e-05,0.0007535503,-0.0004740059,-0.2240315,0.3437772,-9.776334,0,0,43.82058,1,1,8009,4004
6373,66459205,0,0.0002513149,-0.0006065227,0.0003941248,-0.2241948,0.3464812,-9.779925,0,0,43.82085,1,1,8009,4004
6378,66461952,0,0.0009397079,-0.0004155396,0.001788527,-0.2225814,0.3460144,-9.777982,0,0,43.821,1,1,8009,4004
6413,66470236,0,0.0003965862,0.0006646398,-0.000750978,-0.2167625,0.3395128,-9.754842999999999,0,0,43.82157,1,1,8009,4004
6417,66473259,0,0.0006819427,0.0002918088,-0.0002544542,-0.2124429,0.3365765,-9.750786,0,0,43.82174,1,1,8009,4004
6452,66476783,0,0.0006080794,-0.0008121863,0.0008240712,-0.2099806,0.3355173,-9.749294000000001,0,0,43.82198,1,1,8009,4004
6455,66479010,0,0.001148824,-0.00146317,0.001368315,-0.21103,0.3362829,-9.75103,0,0,43.8221,1,1,8009,4004
6458,66480851,0,0.002829726,-0.00146031,0.002896493,-0.2127576,0.3375278,-9.754960000000001,0,0,43.82225,1,1,8009,4004
6461,66483369,0,0.003631835,-0.001610572,0.00293185,-0.2130662,0.3387153,-9.758718,0,0,43.82233,1,1,8009,4004
6496,66485746,0,0.003872075,-0.002034267,0.0007499573,-0.2132757,0.3385197,-9.759942000000001,0,0,43.82249,1,1,8009,4004
6499,66488753,0,0.003144552,-0.001290932,-0.0005422692999999999,-0.2138224,0.337424,-9.758608000000001,0,0,43.82256,1,1,8009,4004
6502,66491410,0,0.002092861,-0.0004706268,-0.001085315,-0.2142361,0.3354464,-9.757485000000001,0,0,43.82267,1,1,8009,4004
6506,66493033,0,1.392064e-05,-0.001158271,-0.0007789217,-0.2158876,0.3318048,-9.760073,0,0,43.82276,1,1,8009,4004
6541,66495860,0,0.0002583174,-0.002955963,0.001068523,-0.2178253,0.3275444,-9.766276,0,0,43.82285,1,1,8009,4004
6544,66498220,0,0.001019886,-0.003827399,0.001962013,-0.2186294,0.3239201,-9.767628999999999,0,0,43.82292,1,1,8009,4004
6547,66501162,0,0.001326754,-0.003694241,0.002387972,-0.2197455,0.3216827,-9.768884,0,0,43.82301,1,1,8009,4004
6551,66503806,0,0.001481275,-0.00354435,0.001635055,-0.2200556,0.319406,-9.771856,0,0,43.82308,1,1,8009,4004
6586,66506147,0,0.0001532576,-0.003312887,0.001017178,-0.219623,0.3192408,-9.773588999999999,0,0,43.82312,1,1,8009,4004
6589,66509012,0,-0.0004112915,-0.003157705,0.000746106,-0.2181028,0.3234356,-9.771663999999999,0,0,43.82317,1,1,8009,4004
6594,66511850,0,-8.932671e-05,-0.003315226,0.000603402,-0.2164829,0.3278185,-9.769610999999999,0,0,43.82318,1,1,8009,4004
6597,66513866,0,0.0003471759,-0.002227163,-3.32149e-05,-0.215501,0.3330826,-9.765383,0,0,43.8232,1,1,8009,4004
6632,66516851,0,0.0003573702,-0.002011767,-3.999146e-05,-0.2161481,0.3359892,-9.764898000000001,0,0,43.8232,1,1,8009,4004
6635,66518960,0,0.0002654965,-0.001496587,-0.0005786033,-0.2198497,0.3380783,-9.766873,0,0,43.82317,1,1,8009,4004
6638,66521273,0,0.0007268945,-0.0004714353,-0.0008843869,-0.2241793,0.3367776,-9.768867,0,0,43.82313,1,1,8009,4004
6642,66524387,0,0.0002111736,-0.0002907444,-0.0007522643,-0.2294477,0.3338284,-9.770932,0,0,43.82306,1,1,8009,4004
6677,66527294,0,-0.0005860659,-0.0005891716,-0.0006182091,-0.230262,0.3325472,-9.771565000000001,0,0,43.82302,1,1,8009,4004
6680,66529438,0,6.746857e-05,5.915271e-05,-0.0001397162,-0.2292811,0.3314555,-9.772004000000001,0,0,43.82299,1,1,8009,4004
6687,66532205,0,0.001002211,0.001579107,0.0007386722,-0.2297809,0.3290055,-9.774864000000001,0,0,43.82302,1,1,8009,4004
6690,66534357,0,0.0009855275000000001,0.001555361,0.0002874601,-0.2308778,0.3280021,-9.777637,0,0,43.82307,1,1,8009,4004
6725,66537209,0,9.026131e-05,0.0008603981,0.0002475498,-0.2327385,0.3270454,-9.779959,0,0,43.82323,1,1,8009,4004
6728,66539961,0,0.000474165,0.0006290211,-0.0001454551,-0.2343693,0.3266234,-9.779852999999999,0,0,43.8233,1,1,8009,4004
6731,66541881,0,0.001406712,0.002274642,-0.00153405,-0.2338279,0.3268765,-9.77969,0,0,43.82336,1,1,8009,4004
6735,66544187,0,0.001563313,0.002849801,-0.002419058,-0.2313105,0.3278391,-9.778962999999999,0,0,43.8234,1,1,8009,4004
6770,66546946,0,0.002213038,0.002641353,-0.003040363,-0.2265996,0.3303358,-9.776427999999999,0,0,43.82348,1,1,8009,4004
6773,66550046,0,0.002276224,0.002225681,-0.002670653,-0.2226408,0.3316304,-9.773766999999999,0,0,43.82352,1,1,8009,4004
6776,66552291,0,0.001686968,0.002570198,-0.002561066,-0.2167992,0.3332506,-9.768729,0,0,43.82358,1,1,8009,4004
6780,66554282,0,0.00118667,0.003792585,-0.002363134,-0.2148637,0.3343843,-9.765802000000001,0,0,43.82362,1,1,8009,4004
6815,66556623,0,0.001489516,0.003505472,-0.001432291,-0.2119071,0.3350742,-9.763723000000001,0,0,43.82372,1,1,8009,4004
6818,66559264,0,0.001691704,0.002685781,-0.001096883,-0.2098567,0.3344611,-9.761626,0,0,43.82378,1,1,8009,4004
6821,66562650,0,0.001118324,0.002709552,-0.001508626,-0.2083465,0.3343062,-9.758174,0,0,43.82389,1,1,8009,4004
6824,66565054,0,0.001057404,0.002608821,-0.001588603,-0.2089598,0.3345764,-9.758456000000001,0,0,43.82396,1,1,8009,4004
6859,66567395,0,0.001294986,0.002767758,-0.001716188,-0.208413,0.3346801,-9.760135,0,0,43.82412,1,1,8009,4004
6862,66570167,0,0.0008295603,0.001476626,-0.00198392,-0.2068971,0.3328059,-9.761578999999999,0,0,43.82426,1,1,8009,4004
6865,66572815,0,0.0006494938,0.0005969978,-0.001921572,-0.2062106,0.3318455,-9.760495000000001,0,0,43.82434,1,1,8009,4004
6869,66576057,0,-0.0004719072,0.0003931072,-0.001281322,-0.2070704,0.3323852,-9.758357999999999,0,0,43.82442,1,1,8009,4004
6904,66579166,0,-0.002042184,-0.0005674521,-0.0005999682000000001,-0.2072549,0.3328798,-9.75681,0,0,43.82447,1,1,8009,4004
6907,66580815,0,-0.002380894,-0.0007340872,-0.0002750242,-0.2073493,0.3342083,-9.758815999999999,0,0,43.82451,1,1,8009,4004
6910,66583736,0,-0.001315036,0.0003379947,0.0001322813,-0.2074527,0.3356775,-9.759058,0,0,43.82456,1,1,8009,4004
6913,66586408,0,0.0006987318,0.001452514,0.0007936427999999999,-0.2064764,0.3373989,-9.756352,0,0,43.8246,1,1,8009,4004
6948,66589415,0,0.0007576106999999999,0.001247471,-0.0001604809,-0.2072618,0.3377573,-9.753534,0,0,43.82465,1,1,8009,4004
6951,66591851,0,-0.0003794541,0.001341632,-0.0008538169,-0.2086991,0.3381097,-9.753420999999999,0,0,43.82468,1,1,8009,4004
6954,66594168,0,-0.001650759,0.0004982671,-0.001442699,-0.2079321,0.3392743,-9.758091,0,0,43.82473,1,1,8009,4004
6959,66596275,0,-0.002300281,-0.0007602122,-0.0006548882999999999,-0.2066673,0.3415575,-9.761044999999999,0,0,43.82476,1,1,8009,4004
6994,66599484,0,-0.002145314,-0.001626353,0.001009191,-0.2062035,0.3441776,-9.762582999999999,0,0,43.82481,1,1,8009,4004
6998,66602009,0,-0.001408446,-0.001464912,0.00157245,-0.2069752,0.3448597,-9.763095,0,0,43.82484,1,1,8009,4004
7001,66604352,0,-0.001381964,-0.001081251,0.001377063,-0.2091141,0.3433493,-9.762449999999999,0,0,43.8249,1,1,8009,4004
7004,66606400,0,-0.001583199,-0.001832993,0.0007107923,-0.2100389,0.3403446,-9.760209,0,0,43.82492,1,1,8009,4004
7039,66609037,0,-0.001839987,-0.002705901,0.0007259086,-0.2106908,0.3362456,-9.754452000000001,0,0,43.82497,1,1,8009,4004
7042,66612147,0,-0.002711186,-0.002284934,0.001340961,-0.212083,0.3342461,-9.751904,0,0,43.82502,1,1,8009,4004
7046,66614234,0,-0.002949963,-0.000991051,0.001216162,-0.213407,0.3317315,-9.751094999999999,0,0,43.82508,1,1,8009,4004
7050,66617036,0,-0.002540618,-0.0003793843,0.0005146606,-0.2140591,0.3293376,-9.752660000000001,0,0,43.82513,1,1,8009,4004
7085,66619454,0,-0.002353549,-0.001249628,-1.960015e-05,-0.2154159,0.3253248,-9.755519,0,0,43.82523,1,1,8009,4004
7088,66622748,0,-0.002677275,-0.001158143,0.0002848484,-0.2155669,0.3246801,-9.759643000000001,0,0,43.82535,1,1,8009,4004
7091,66624695,0,-0.002533675,-0.0007334574,0.000585882,-0.2155252,0.3262046,-9.763904,0,0,43.82542,1,1,8009,4004
7095,66627167,0,-0.002293439,-0.0004899803,0.001086285,-0.2156975,0.3271078,-9.771190000000001,0,0,43.82549,1,1,8009,4004
7130,66630059,0,-0.002253368,-0.0009129334,0.001806379,-0.2163864,0.3261701,-9.776534,0,0,43.82552,1,1,8009,4004
7133,66631914,0,-0.002218042,-0.001270041,0.001412903,-0.2178115,0.3259184,-9.77643,0,0,43.82551,1,1,8009,4004
7140,66635188,0,-0.002085853,-0.002314155,0.0003555813,-0.2191925,0.3274802,-9.77444,0,0,43.8255,1,1,8009,4004
7143,66637217,0,-0.002546012,-0.003068801,-0.0005658726,-0.2195206,0.3312971,-9.772365000000001,0,0,43.82549,1,1,8009,4004
7178,66639648,0,-0.003334424,-0.001992521,-0.0006112581,-0.2179004,0.335232,-9.773438000000001,0,0,43.82545,1,1,8009,4004
7181,66642751,0,-0.003782365,-0.001118004,-0.0006436522000000001,-0.2178347,0.3381998,-9.77459,0,0,43.8254,1,1,8009,4004
7184,66644700,0,-0.003479371,7.862732e-05,-0.0006549158,-0.2182302,0.3415338,-9.775638000000001,0,0,43.82535,1,1,8009,4004
7188,66647451,0,-0.003162064,0.0006770949,-0.001214287,-0.2195394,0.3459686,-9.777075999999999,0,0,43.82531,1,1,8009,4004
7223,66650054,0,-0.00245307,-0.0001331808,-0.001044044,-0.2210862,0.3482489,-9.779540000000001,0,0,43.82528,1,1,8009,4004
7227,66652876,0,-0.001735777,0.0004064781,0.001259,-0.2223247,0.3487257,-9.783674,0,0,43.82525,1,1,8009,4004
7230,66655301,0,-0.001487123,0.001492223,0.002358553,-0.2225109,0.3470501,-9.786213999999999,0,0,43.82524,1,1,8009,4004
7233,66658359,0,-0.0003921656,0.002499503,0.002395592,-0.221653,0.34216,-9.788944000000001,0,0,43.82524,1,1,8009,4004
7268,66660881,0,-0.000494137,0.002182837,0.001088472,-0.2204241,0.3386638,-9.788458,0,0,43.82528,1,1,8009,4004
7271,66663655,0,-0.0007390325,0.001729455,0.001089115,-0.2202876,0.3374812,-9.786626,0,0,43.82533,1,1,8009,4004
7274,66666397,0,-0.0003801227,0.001117054,0.001362958,-0.2203102,0.337595,-9.782944000000001,0,0,43.82541,1,1,8009,4004
7280,66668974,0,4.639903e-06,0.00123247,0.0005095329999999999,-0.2193561,0.3379378,-9.779749000000001,0,0,43.82545,1,1,8009,4004
7315,66674295,0,-0.000606272,0.002401544,0.00132666,-0.2138066,0.3381768,-9.764486,0,0,43.82553,1,1,8009,4004
7318,66679825,0,-0.001556992,0.001548397,0.001458548,-0.204414,0.3400598,-9.757266,0,0,43.8255,1,1,8009,4004
7353,66683822,0,-0.001058653,0.0015928,0.0009755566999999999,-0.2018362,0.3416536,-9.757023,0,0,43.82547,1,1,8009,4004
7356,66685026,0,-0.0005262323,0.001721732,0.000964928,-0.1999612,0.3423464,-9.756693,0,0,43.82541,1,1,8009,4004
7359,66687822,0,-0.000393717,0.002006905,0.0006733573,-0.2008488,0.3416142,-9.756244000000001,0,0,43.82537,1,1,8009,4004
7362,66691034,0,-5.829774e-05,0.001486471,0.0008124374,-0.2043476,0.3394458,-9.75427,0,0,43.82533,1,1,8009,4004
7398,66693750,0,4.077148e-05,0.0009806909000000001,0.000746018,-0.2087289,0.3381223,-9.755115999999999,0,0,43.82529,1,1,8009,4004
7402,66696443,0,-0.000817669,0.001827638,0.000664398,-0.2130657,0.3382254,-9.756944000000001,0,0,43.82524,1,1,8009,4004
7405,66698555,0,-0.001202195,0.00281858,0.0006487851,-0.2141327,0.3396975,-9.757592000000001,0,0,43.82521,1,1,8009,4004
7409,66701021,0,-0.0005510371999999999,0.002226642,0.000490994,-0.2164924,0.3423713,-9.753987,0,0,43.82517,1,1,8009,4004
7444,66703790,0,-3.692967e-05,0.001268574,0.000512118,-0.2187852,0.3431696,-9.749083000000001,0,0,43.82516,1,1,8009,4004
7448,66706776,0,0.000597378,4.837896e-05,0.000173862,-0.2201639,0.3457018,-9.743029999999999,0,0,43.82516,1,1,8009,4004
7452,66709226,0,0.0006846267,0.0002859491,-0.0007215401,-0.2212277,0.3489169,-9.743371,0,0,43.82518,1,1,8009,4004
7455,66710844,0,0.002077629,0.00102968,-0.0006196055,-0.2210192,0.3524239,-9.749250999999999,0,0,43.82526,1,1,8009,4004
7490,66713427,0,0.003232227,0.0006382213,-0.0005906059,-0.2208649,0.3516252,-9.751446,0,0,43.82533,1,1,8009,4004
7494,66715831,0,0.003784026,-0.000284765,-0.001058681,-0.2209133,0.3486722,-9.753606,0,0,43.82543,1,1,8009,4004
7497,66719000,0,0.002672929,-0.000821364,-0.001004921,-0.2204187,0.3461807,-9.756128,0,0,43.82548,1,1,8009,4004
7500,66721847,0,0.001440845,-0.001392038,-0.00128369,-0.2198064,0.3433353,-9.76108,0,0,43.82553,1,1,8009,4004
7535,66724188,0,0.00286549,-0.0006401492,-0.0009183372,-0.2215835,0.3401893,-9.765344000000001,0,0,43.82553,1,1,8009,4004
7539,66727218,0,0.001955881,0.0003336543,-0.0004663995,-0.2247837,0.3333439,-9.764642,0,0,43.82551,1,1,8009,4004
7542,66729668,0,-0.0007049507,0.000608239,-0.001204354,-0.2249616,0.328454,-9.762171,0,0,43.82546,1,1,8009,4004
7545,66732747,0,-0.0008528082,-0.0006562846,-0.003626967,-0.2253425,0.3277082,-9.762672,0,0,43.82542,1,1,8009,4004
7580,66735418,0,0.004463037,0.0003517245,-0.007060248,-0.2315535,0.3277224,-9.771936,0,0,43.82533,1,1,8009,4004
7584,66737653,0,0.004123105,0.002781897,-0.007078889,-0.2327898,0.321303,-9.775425,0,0,43.82526,1,1,8009,4004
7591,66740203,0,-0.004987618,0.00357686,-0.004800979,-0.2223142,0.3124605,-9.767593,0,0,43.82518,1,1,8009,4004
7594,66742950,0,-0.006679021,0.0008968903,-0.004099556,-0.2160039,0.3171253,-9.761298999999999,0,0,43.82516,1,1,8009,4004
7629,66745771,0,0.0042686,-0.002492086,-0.004347345,-0.2167786,0.3291349,-9.757877000000001,0,0,43.82515,1,1,8009,4004
7632,66748055,0,0.01015322,-0.002221269,-0.003579209,-0.2165053,0.3259397,-9.755855,0,0,43.82515,1,1,8009,4004
7635,66750211,0,0.003643672,-0.0004333881,-0.0015398,-0.2137863,0.3099565,-9.749953,0,0,43.82522,1,1,8009,4004
7638,66753249,0,-0.005584213,0.0004815354,-0.001316383,-0.2163075,0.3077823,-9.750503999999999,0,0,43.82528,1,1,8009,4004
7673,66756199,0,-0.00208785,-0.000360276,-0.002282564,-0.2216044,0.327001,-9.765117999999999,0,0,43.82539,1,1,8009,4004
7677,66758485,0,0.00583445,-0.001754365,-0.002864959,-0.218548,0.3307735,-9.771053,0,0,43.82544,1,1,8009,4004
7680,66760751,0,0.007130608,-0.001054937,-0.002339285,-0.21989,0.3258891,-9.778638000000001,0,0,43.82549,1,1,8009,4004
7683,66763399,0,-0.001097352,0.002830871,-0.0009287376,-0.2265682,0.3193576,-9.776711000000001,0,0,43.82548,1,1,8009,4004
7718,66766184,0,-0.01445674,0.005846193,0.002445879,-0.2202281,0.3158667,-9.748607,0,0,43.82541,1,1,8009,4004
7721,66768905,0,-0.0101245,-0.0004536461,0.003741682,-0.2056089,0.3271719,-9.73044,0,0,43.82536,1,1,8009,4004
7725,66770836,0,0.0178313,-0.01046536,0.001577053,-0.2041771,0.3476446,-9.744294,0,0,43.82529,1,1,8009,4004
7729,66773640,0,0.02516716,-0.002858903,0.0005551639,-0.2229328,0.336187,-9.769498,0,0,43.82524,1,1,8009,4004
7764,66776420,0,-0.01179153,0.01837575,0.004238452,-0.2336784,0.2989996,-9.769458999999999,0,0,43.82518,1,1,8009,4004
7768,66778926,0,-0.03278451,0.0148931,0.006557965,-0.2108708,0.316514,-9.742796999999999,0,0,43.82515,1,1,8009,4004
7771,66782255,0,0.004636263,-0.01604465,0.002819062,-0.1865093,0.3921459,-9.729314,0,0,43.82515,1,1,8009,4004
7774,66783831,0,0.03678506,-0.01214495,0.001417626,-0.2234289,0.3628105,-9.754902,0,0,43.82519,1,1,8009,4004
7809,66786157,0,0.004396624,0.01469942,0.005231976,-0.2444312,0.3107269,-9.769204,0,0,43.82522,1,1,8009,4004
7812,66788905,0,-0.03490635,0.02959254,0.005390971,-0.2347851,0.3176917,-9.779565,0,0,43.82527,1,1,8009,4004
7815,66791255,0,-0.008554483999999999,0.006185422,0.0003649722,-0.2003431,0.3941669,-9.772672,0,0,43.82542,1,1,8009,4004
7818,66794429,0,0.03254345,-0.02681041,-0.001160619,-0.1956559,0.3837225,-9.746316999999999,0,0,43.8255,1,1,8009,4004
7853,66797606,0,-0.00171765,-0.004105149,0.003501046,-0.2263203,0.2998341,-9.730649,0,0,43.82561,1,1,8009,4004
7857,66799270,0,-0.02395113,0.02040428,0.007444215,-0.2368396,0.3251184,-9.766983,0,0,43.82565,1,1,8009,4004
7860,66802022,0,0.002701666,0.01138309,0.008337125000000001,-0.2078014,0.377886,-9.789110000000001,0,0,43.82571,1,1,8009,4004
7863,66804284,0,0.02200028,-0.0141024,0.005072204,-0.1858154,0.3513091,-9.752713999999999,0,0,43.82575,1,1,8009,4004
7898,66807266,0,-0.001864837,-0.01643451,0.003384637,-0.208634,0.2864178,-9.708462000000001,0,0,43.82581,1,1,8009,4004
7902,66810260,0,-0.02069445,0.002641193,0.005025125,-0.2289744,0.3062186,-9.722967000000001,0,0,43.82584,1,1,8009,4004
7905,66811960,0,-0.003192857,0.01417942,0.005586494,-0.2193083,0.3573589,-9.755477000000001,0,0,43.8259,1,1,8009,4004
7908,66814419,0,0.01850627,0.00529488,0.003931141,-0.2084376,0.3472237,-9.761232,0,0,43.82594,1,1,8009,4004
7943,66816761,0,0.008145970000000001,-0.009201004,0.00164937,-0.2072739,0.3117054,-9.748538999999999,0,0,43.826,1,1,8009,4004
7946,66820238,0,-0.01230048,-0.0106313,0.003043246,-0.2053895,0.3133731,-9.748417999999999,0,0,43.82604,1,1,8009,4004
7949,66822630,0,-0.01397214,-0.005102988,0.004033986,-0.2092427,0.3498753,-9.777717000000001,0,0,43.8261,1,1,8009,4004
7952,66824495,0,-0.0009647042,0.00500802,0.004748167,-0.2258553,0.3643872,-9.786175,0,0,43.82612,1,1,8009,4004
7987,66827029,0,0.005213083,0.01533415,0.007650692,-0.2289555,0.3515753,-9.758158999999999,0,0,43.82615,1,1,8009,4004
7991,66829427,0,0.001723167,0.004391978,0.005944308,-0.2039526,0.3500878,-9.741109,0,0,43.82617,1,1,8009,4004
7995,66832742,0,0.002626939,-0.02418174,-0.0003452759,-0.1906108,0.3596673,-9.731085,0,0,43.82624,1,1,8009,4004
7998,66835015,0,0.0009354139,-0.02070409,-0.002692774,-0.2205237,0.3496692,-9.733205999999999,0,0,43.82635,1,1,8009,4004
8035,66837223,0,-0.0115221,0.02003707,0.0003587123,-0.2558789,0.3364691,-9.742305,0,0,43.82647,1,1,8009,4004
8038,66839966,0,-0.008240407999999999,0.02004954,0.001536913,-0.2133183,0.3550647,-9.733814000000001,0,0,43.82653,1,1,8009,4004
8045,66843164,0,0.01169972,-0.01082762,-0.003101023,-0.1908037,0.3687327,-9.731622,0,0,43.82658,1,1,8009,4004
8048,66845582,0,0.02220979,-0.02250046,-0.00817617,-0.2414192,0.3437341,-9.747680000000001,0,0,43.82664,1,1,8009,4004
8083,66848647,0,-0.01907123,0.01995442,-0.001231112,-0.2795383,0.3006064,-9.767344,0,0,43.82666,1,1,8009,4004
8087,66850484,0,-0.03475069,0.02964124,0.002677551,-0.2482281,0.3127787,-9.775683000000001,0,0,43.82666,1,1,8009,4004
8091,66853184,0,-0.002985802,-0.007090902,-0.002489274,-0.2108281,0.3512587,-9.77811,0,0,43.82663,1,1,8009,4004
8096,66855790,0,0.02508043,-0.02034575,-0.007741036,-0.237087,0.3429512,-9.773858000000001,0,0,43.82661,1,1,8009,4004
8131,66864400,0,-0.01901774,-0.0005683026,-0.007248892,-0.212253,0.3344988,-9.812766999999999,0,0,43.82651,1,1,8009,4004
8135,66866851,0,0.02064234,-0.01368735,-0.008307383999999999,-0.2317119,0.3452761,-9.788997999999999,0,0,43.82648,1,1,8009,4004
8170,66869869,0,0.01825826,0.0003045613,-0.005617002,-0.2336356,0.3171843,-9.765644,0,0,43.82644,1,1,8009,4004
8173,66871813,0,-0.01601208,0.01531389,-0.001657592,-0.2015219,0.3036245,-9.766245,0,0,43.82637,1,1,8009,4004
8176,66874804,0,-0.02333985,0.008402155999999999,-0.002865858,-0.1870351,0.3282205,-9.785786999999999,0,0,43.82633,1,1,8009,4004
8179,66876780,0,0.001569448,-0.002676553,-0.00859943,-0.1964549,0.3608609,-9.800893,0,0,43.82625,1,1,8009,4004
8214,66879431,0,0.01797475,-0.0008324226,-0.01085116,-0.1986396,0.362549,-9.79574,0,0,43.82623,1,1,8009,4004
8217,66883001,0,0.01168665,0.004109487,-0.009270034,-0.1805861,0.3483552,-9.786009999999999,0,0,43.82623,1,1,8009,4004
8220,66884272,0,-0.007517168,0.002433753,-0.006880476,-0.1754747,0.3390629,-9.787955999999999,0,0,43.82624,1,1,8009,4004
8224,66886884,0,-0.02204831,-0.0005011662,-0.004880741,-0.1871758,0.352939,-9.8028,0,0,43.82628,1,1,8009,4004
8259,66889913,0,-0.00876585,-0.001948669,-0.005748451,-0.1913197,0.3766573,-9.808141000000001,0,0,43.82632,1,1,8009,4004
8262,66891832,0,0.02344646,-0.006665209,-0.007763715,-0.1801273,0.3852678,-9.783276000000001,0,0,43.8264,1,1,8009,4004
8265,66894852,0,0.02472974,-0.008013831000000001,-0.007146961,-0.17605,0.3598719,-9.752053999999999,0,0,43.82649,1,1,8009,4004
8269,66896804,0,-0.008890921,-0.00315238,-0.004966348,-0.1835692,0.3203961,-9.728652,0,0,43.82663,1,1,8009,4004
8304,66900143,0,-0.02421046,0.0004749472,-0.005461007,-0.1896463,0.3278671,-9.741569999999999,0,0,43.82669,1,1,8009,4004
8308,66901793,0,-0.002590957,0.00128242,-0.006989536,-0.1988325,0.3656752,-9.753659000000001,0,0,43.82674,1,1,8009,4004
8311,66904139,0,0.02031334,-0.001819562,-0.006273669,-0.1999015,0.3664316,-9.735250000000001,0,0,43.82678,1,1,8009,4004
8315,66907281,0,0.0199494,-0.01279584,-0.003774357,-0.183583,0.3277078,-9.705768000000001,0,0,43.82685,1,1,8009,4004
8350,66910494,0,-0.01148216,-0.01628612,-0.002969332,-0.1906536,0.304265,-9.722172,0,0,43.82693,1,1,8009,4004
8353,66912918,0,-0.02123254,-0.003582627,-0.002408402,-0.2159256,0.31493,-9.749027,0,0,43.827,1,1,8009,4004
8356,66914997,0,-0.002057178,0.01526945,0.001088109,-0.2207032,0.3429246,-9.772373999999999,0,0,43.8271,1,1,8009,4004
8360,66917432,0,0.01751402,0.007617544,0.001686209,-0.1946833,0.3403714,-9.762180000000001,0,0,43.82715,1,1,8009,4004
8395,66920271,0,0.01589978,-0.01321965,-0.0007583161,-0.1942777,0.2999898,-9.733962999999999,0,0,43.82724,1,1,8009,4004
8398,66923263,0,-0.005692096,-0.007814903,-0.0005881019,-0.2294458,0.2833362,-9.731453,0,0,43.82727,1,1,8009,4004
8401,66924668,0,-0.02546597,0.01378214,0.004777306,-0.2482805,0.3026071,-9.751995000000001,0,0,43.82738,1,1,8009,4004
8404,66927495,0,-0.01265559,0.007918199000000001,0.007587127,-0.2229983,0.3254955,-9.762715,0,0,43.82747,1,1,8009,4004
8439,66930060,0,0.01996524,-0.01777427,0.007951809000000001,-0.2051438,0.3359445,-9.754891000000001,0,0,43.82766,1,1,8009,4004
8442,66933222,0,0.02089273,-0.01821064,0.009418657,-0.2241907,0.3229336,-9.736672,0,0,43.82775,1,1,8009,4004
8445,66935776,0,-0.01083823,0.009004585000000001,0.01426851,-0.2377623,0.3100871,-9.723127,0,0,43.8279,1,1,8009,4004
8449,66937378,0,-0.02412433,0.01805683,0.01550013,-0.2188378,0.3317427,-9.735056999999999,0,0,43.82801,1,1,8009,4004
8484,66939783,0,-0.0007253431,-0.001739205,0.0119206,-0.1883146,0.3879743,-9.760051000000001,0,0,43.82813,1,1,8009,4004
8487,66942465,0,0.02376496,-0.01889814,0.009631213,-0.1834199,0.4003049,-9.757880999999999,0,0,43.82821,1,1,8009,4004
8494,66945880,0,0.01970925,-0.01817374,0.01146098,-0.1844022,0.3716697,-9.732125999999999,0,0,43.82827,1,1,8009,4004
8499,66948241,0,-0.003722044,-0.006544437,0.01454777,-0.178329,0.3621418,-9.721882000000001,0,0,43.82833,1,1,8009,4004
8534,66950449,0,-0.007388672,0.0009862193999999999,0.01423587,-0.1756755,0.4069301,-9.749447999999999,0,0,43.82845,1,1,8009,4004
8537,66953316,0,0.0158593,-6.073171e-05,0.01100664,-0.1930661,0.4211091,-9.770184,0,0,43.82852,1,1,8009,4004
8541,66956074,0,0.03197731,0.00876091,0.006538862,-0.2309104,0.3977458,-9.776122000000001,0,0,43.82867,1,1,8009,4004
8545,66958890,0,0.01593885,0.01531005,0.00571126,-0.2481647,0.3612158,-9.753431000000001,0,0,43.82876,1,1,8009,4004
8580,66961620,0,-0.01868172,0.01175565,0.005476655,-0.2590673,0.3212824,-9.716634000000001,0,0,43.82886,1,1,8009,4004
8583,66964001,0,-0.01329274,0.002472208,0.003273897,-0.2789039,0.3242408,-9.728456,0,0,43.82895,1,1,8009,4004
8586,66966186,0,0.01105056,0.002896072,0.002772556,-0.2953041,0.3224657,-9.757203000000001,0,0,43.829,1,1,8009,4004
8590,66969430,0,0.0257586,0.01133843,0.003741439,-0.2993361,0.2786206,-9.789422999999999,0,0,43.82907,1,1,8009,4004
8625,66971646,0,-0.003227663,0.01565768,0.005898887,-0.2823145,0.2387236,-9.804182000000001,0,0,43.82917,1,1,8009,4004
8628,66974773,0,-0.01826168,0.01204676,0.00445717,-0.2664423,0.2504732,-9.819305,0,0,43.82922,1,1,8009,4004
8631,66976848,0,-0.008953351999999999,0.001450107,0.0003092963,-0.2310244,0.2954384,-9.837707,0,0,43.82934,1,1,8009,4004
8635,66979753,0,0.007217761,-0.005894661,-0.001004084,-0.1952225,0.3187167,-9.832331,0,0,43.82941,1,1,8009,4004
8670,66983073,0,0.0160918,-0.01800919,-0.0002363503,-0.134784,0.3383085,-9.798178999999999,0,0,43.82953,1,1,8009,4004
8673,66984447,0,0.002176875,-0.01772708,-0.0001131342,-0.1053246,0.3392707,-9.764777,0,0,43.82964,1,1,8009,4004
8676,66988621,0,-0.0117477,-0.001678372,-0.001138449,-0.1132612,0.3398283,-9.757141000000001,0,0,43.82972,1,1,8009,4004
8679,66989865,0,-0.006873622,0.02107127,-0.005462012,-0.1265766,0.3692361,-9.769391000000001,0,0,43.82986,1,1,8009,4004
8715,66992829,0,0.01342475,0.01972985,-0.009544377999999999,-0.1266588,0.3839252,-9.775957,0,0,43.82993,1,1,8009,4004
8718,66995962,0,0.02480231,0.00383004,-0.01395103,-0.1549837,0.3436842,-9.753344999999999,0,0,43.83002,1,1,8009,4004
8721,66998183,0,0.005330339,0.003062365,-0.01286766,-0.1996757,0.3006254,-9.730955,0,0,43.83008,1,1,8009,4004
8724,67000423,0,-0.02009698,0.009343429,-0.00614329,-0.248891,0.2920884,-9.738422,0,0,43.83014,1,1,8009,4004
8759,67002899,0,0.002073712,-0.005472048,0.0008493447000000001,-0.2582759,0.3088801,-9.781454,0,0,43.8302,1,1,8009,4004
8762,67005172,0,0.01677252,-0.01532273,0.004301652,-0.2785694,0.2872791,-9.798572,0,0,43.83024,1,1,8009,4004
8765,67008278,0,0.009178182,-0.009354368,0.007690374,-0.3129929,0.2591636,-9.805014,0,0,43.83028,1,1,8009,4004
8768,67010488,0,-0.01342259,0.008526288,0.0103949,-0.3266156,0.2759896,-9.804652000000001,0,0,43.83034,1,1,8009,4004
8803,67013164,0,0.001249396,-0.02050761,0.003351806,-0.2740912,0.3276765,-9.781568999999999,0,0,43.83041,1,1,8009,4004
8807,67015490,0,0.004853411,-0.02868766,0.001320318,-0.2474745,0.3408947,-9.755235000000001,0,0,43.83045,1,1,8009,4004
8810,67018612,0,-0.002265056,-0.0203635,-0.001519185,-0.2470745,0.3640361,-9.730055999999999,0,0,43.83051,1,1,8009,4004
8813,67020831,0,-0.006719725,0.004306353,-0.002651906,-0.2441863,0.4033832,-9.723973000000001,0,0,43.83055,1,1,8009,4004
8848,67023646,0,0.002795964,0.02301056,-0.006400457,-0.2105144,0.4426775,-9.696864,0,0,43.83064,1,1,8009,4004
8852,67025946,0,0.006482131,0.01965107,-0.01045291,-0.1966885,0.434889,-9.665774000000001,0,0,43.8307,1,1,8009,4004
8855,67028761,0,0.005078168,0.01380783,-0.01658934,-0.2112826,0.4260964,-9.645984,0,0,43.83085,1,1,8009,4004
8858,67031068,0,0.01264004,0.01161737,-0.01966181,-0.2164232,0.4306012,-9.661778999999999,0,0,43.83092,1,1,8009,4004
8893,67033983,0,0.02323116,-0.002028505,-0.01957295,-0.1913429,0.3858973,-9.689392,0,0,43.83103,1,1,8009,4004
8896,67036174,0,0.0007149862,-0.01327557,-0.01509464,-0.1713645,0.3053952,-9.73621,0,0,43.83114,1,1,8009,4004
8901,67039030,0,-0.007754901,-0.01296495,-0.01222921,-0.1671469,0.2988698,-9.799293,0,0,43.83117,1,1,8009,4004
8904,67041650,0,0.01269115,-0.016249,-0.007161742,-0.138135,0.3021989,-9.864993999999999,0,0,43.83122,1,1,8009,4004
8939,67044222,0,0.01297229,-0.02481368,-0.002945842,-0.09765889,0.2226604,-9.831745,0,0,43.83125,1,1,8009,4004
8943,67046956,0,-0.02183532,-0.009644686,-0.002530496,-0.1162899,0.1829908,-9.797556,0,0,43.83127,1,1,8009,4004
8950,67049868,0,-0.02537577,0.01020334,-0.004716356,-0.1506091,0.20973,-9.798902,0,0,43.83128,1,1,8009,4004
8953,67052223,0,-0.001492536,0.0206272,-0.0104436,-0.1802101,0.2294901,-9.784342000000001,0,0,43.83125,1,1,8009,4004
8988,67055286,0,-0.0008941558,0.004419627,-0.01435022,-0.2124575,0.2147607,-9.75259,0,0,43.83124,1,1,8009,4004
8991,67057195,0,-0.01391686,-0.006829248,-0.01147465,-0.2508848,0.2344492,-9.746195,0,0,43.83123,1,1,8009,4004
8994,67059790,0,-0.02504936,-0.01671122,0.001386898,-0.2924094,0.2952616,-9.752559,0,0,43.83121,1,1,8009,4004
8999,67063048,0,-0.01192909,-0.01786065,0.01369038,-0.3049217,0.3437104,-9.767851,0,0,43.8312,1,1,8009,4004
9034,67065250,0,0.0213607,-0.01546869,0.02029657,-0.3212454,0.4491069,-9.808237999999999,0,0,43.83118,1,1,8009,4004
9038,67068223,0,0.0336844,-0.00692107,0.0227343,-0.3207073,0.5252833,-9.810831,0,0,43.83117,1,1,8009,4004
9041,67070630,0,0.01193074,0.008407449000000001,0.02038755,-0.3142169,0.5212091,-9.774732,0,0,43.83116,1,1,8009,4004
9044,67078960,0,0.04158343,0.01524544,-0.02311795,-0.2146869,0.4550679,-9.706742,0,0,43.83106,1,1,8009,4004
9079,67081751,0,0.0296362,0.005670021,-0.0252105,-0.178435,0.370936,-9.714085000000001,0,0,43.831,1,1,8009,4004
9082,67085043,0,0.005847266,-0.01348601,-0.01661452,-0.09710306,0.2779109,-9.776522999999999,0,0,43.83091,1,1,8009,4004
9085,67086801,0,0.0002198289,-0.02645689,-0.007292748,-0.03698484,0.2296829,-9.831956,0,0,43.83084,1,1,8009,4004
9088,67089647,0,0.003301408,-0.03131518,0.005811917,0.01786752,0.1770369,-9.885642000000001,0,0,43.83078,1,1,8009,4004
9123,67092252,0,-0.000951945,-0.01452536,0.01658498,0.02276896,0.1497793,-9.858741,0,0,43.8307,1,1,8009,4004
9127,67094868,0,-0.01298002,0.006389133,0.01831274,-0.007395768,0.1270437,-9.803699999999999,0,0,43.83067,1,1,8009,4004
9130,67097315,0,-0.02289729,0.03160719,0.009745958000000001,-0.1064538,0.123185,-9.735481,0,0,43.83065,1,1,8009,4004
9133,67099927,0,-0.01322941,0.02752391,0.0006091041,-0.1823566,0.1590953,-9.714155,0,0,43.83067,1,1,8009,4004
9168,67103071,0,-0.006605918,0.001037722,-0.007455209,-0.282934,0.1931489,-9.666733000000001,0,0,43.83072,1,1,8009,4004
9172,67104738,0,-0.01788252,-0.006127025,-0.004061376,-0.3950875,0.2133009,-9.646995,0,0,43.83076,1,1,8009,4004
9175,67107025,0,-0.003571202,-0.007904080000000001,0.003757457,-0.4494573,0.2946331,-9.715,0,0,43.8308,1,1,8009,4004
9178,67110261,0,0.02759721,-0.01966098,0.01369437,-0.4566309,0.4097909,-9.819041,0,0,43.83085,1,1,8009,4004
9213,67113443,0,0.0177344,-0.01469821,0.03944011,-0.4210128,0.4991337,-9.890942000000001,0,0,43.83097,1,1,8009,4004
9216,67115368,0,-0.01602796,0.02138204,0.04813832,-0.408396,0.5270358000000001,-9.838761999999999,0,0,43.83102,1,1,8009,4004
9219,67117801,0,-0.01839478,0.05553299,0.04650334,-0.395259,0.5902467,-9.786667,0,0,43.83109,1,1,8009,4004
9223,67120795,0,0.03570565,0.0523525,0.02089688,-0.3126729,0.6550193,-9.687080999999999,0,0,43.83119,1,1,8009,4004
9258,67123244,0,0.04513975,0.01141693,-0.0158659,-0.1923289,0.5350985,-9.572001,0,0,43.83129,1,1,8009,4004
9262,67126061,0,0.01269501,-0.001749817,-0.03352998,-0.1299385,0.4036008,-9.540646000000001,0,0,43.83136,1,1,8009,4004
9265,67128333,0,-0.002071777,-0.009517830999999999,-0.04423217,-0.03466212,0.2809327,-9.623544000000001,0,0,43.83147,1,1,8009,4004
9268,67131266,0,0.03488718,-0.03887395,-0.03380499,0.09822786999999999,0.2190506,-9.760009,0,0,43.83158,1,1,8009,4004
9303,67133756,0,0.01815607,-0.04417885,-0.003138297,0.1654757,0.1033927,-9.825056,0,0,43.83168,1,1,8009,4004
9307,67136981,0,-0.01648425,-0.008551998,0.01848355,0.1198706,0.05540211,-9.855302999999999,0,0,43.83172,1,1,8009,4004
9310,67138983,0,-0.03190666,0.04958813,0.03440883,-0.03899518,0.1016072,-9.900494,0,0,43.83181,1,1,8009,4004
9314,67141352,0,-0.02159359,0.0440251,0.03031943,-0.1369522,0.1406574,-9.875400000000001,0,0,43.83187,1,1,8009,4004
9349,67144406,0,-0.03009291,-0.01665624,0.007798632,-0.2600595,0.1183788,-9.730406,0,0,43.83204,1,1,8009,4004
9352,67146253,0,-0.04360562,-0.04190418,-0.008391706000000001,-0.3683848,0.1081439,-9.64067,0,0,43.8321,1,1,8009,4004
9355,67149589,0,-0.01742598,-0.02845387,-0.01926485,-0.538802,0.2028796,-9.639745,0,0,43.83225,1,1,8009,4004
9358,67151343,0,0.01546134,-0.01453715,-0.01533143,-0.5856618,0.2926373,-9.690903,0,0,43.83237,1,1,8009,4004
9397,67154241,0,0.0189949,-0.01106335,0.004255673,-0.5328531,0.3684875,-9.749485999999999,0,0,43.83253,1,1,8009,4004
9401,67156835,0,0.0002641804,0.004982132,0.0206762,-0.4931904,0.4274427,-9.786738,0,0,43.83265,1,1,8009,4004
9404,67159028,0,0.001180568,0.05989849,0.03817857,-0.4886127,0.5850767,-9.837049,0,0,43.8328,1,1,8009,4004
9407,67161824,0,0.01397839,0.07113537,0.03849633,-0.4366322,0.6570184999999999,-9.815702,0,0,43.83294,1,1,8009,4004
9442,67164292,0,0.003784539,0.008063288,0.01393077,-0.1400831,0.5636963,-9.642904,0,0,43.8332,1,1,8009,4004
9445,67167263,0,-0.01390573,-0.0521936,-0.02359134,-0.03611863,0.479676,-9.594533999999999,0,0,43.83335,1,1,8009,4004
9448,67169459,0,0.002456579,-0.04532105,-0.0417825,0.01101681,0.4150418,-9.613178,0,0,43.83343,1,1,8009,4004
9451,67172196,0,0.0342353,-0.01490846,-0.05148372,0.1405222,0.2476923,-9.729400999999999,0,0,43.83359,1,1,8009,4004
9486,67175008,0,0.02066218,-0.01655346,-0.04225492,0.2116709,0.1172419,-9.841702,0,0,43.83371,1,1,8009,4004
9490,67177010,0,-0.0007827417,-0.00703036,-0.02738927,0.1306853,0.09944756,-9.936714,0,0,43.83379,1,1,8009,4004
9494,67179951,0,-0.01441121,0.02511086,-0.008263047000000001,-0.02290426,0.1174752,-10.0096,0,0,43.83387,1,1,8009,4004
9497,67182212,0,-0.03254516,0.04271956,0.01525602,-0.1854234,0.1237935,-9.983038000000001,0,0,43.83403,1,1,8009,4004
9532,67184434,0,-0.04967071,-0.007719331,0.0190245,-0.2279556,0.115527,-9.887846,0,0,43.83413,1,1,8009,4004
9535,67188182,0,-0.05615902,-0.09502405,0.01165095,-0.3771933,0.1528563,-9.751158,0,0,43.8343,1,1,8009,4004
9538,67189423,0,-0.04063355,-0.08429540000000001,0.006619544,-0.5489126,0.2062691,-9.699780000000001,0,0,43.8344,1,1,8009,4004
9541,67193176,0,-0.01464543,0.005280868,0.003451766,-0.6809024,0.2852612,-9.667415999999999,0,0,43.83452,1,1,8009,4004
9544,67194644,0,0.006378569,0.03859849,-0.0008560751,-0.6003868999999999,0.3960018,-9.714359,0,0,43.83463,1,1,8009,4004
9580,67197065,0,0.02452049,0.04033316,-0.004271218,-0.5856964,0.4936047,-9.779165000000001,0,0,43.83469,1,1,8009,4004
9583,67199876,0,0.02822409,0.08305068,0.0007434102,-0.6053557000000001,0.5935168,-9.832526,0,0,43.8348,1,1,8009,4004
9586,67203210,0,0.003043153,0.08607287,0.005796389,-0.4690837,0.6075775,-9.806702,0,0,43.83487,1,1,8009,4004
9589,67205406,0,-0.03167285,-0.02338497,-0.001431841,-0.100789,0.5737243,-9.723644999999999,0,0,43.83501,1,1,8009,4004
9624,67208249,0,-0.01270019,-0.1032962,-0.01469443,0.05836823,0.4994693,-9.689026,0,0,43.83511,1,1,8009,4004
9628,67210365,0,0.01158826,-0.06503823,-0.01911158,0.07686561,0.4219746,-9.702249999999999,0,0,43.83519,1,1,8009,4004
9631,67213589,0,0.02629108,0.01259999,-0.02218748,0.2212053,0.2691542,-9.744224000000001,0,0,43.8353,1,1,8009,4004
9634,67215263,0,0.02690934,0.01408917,-0.0273288,0.3099727,0.1834693,-9.793435000000001,0,0,43.83543,1,1,8009,4004
9669,67218442,0,0.01417991,0.02015623,-0.02994006,0.1590175,0.105588,-9.873691000000001,0,0,43.83556,1,1,8009,4004
9672,67220454,0,-0.009271026999999999,0.05619448,-0.02289176,-0.03248769,0.07881198,-9.894550000000001,0,0,43.83564,1,1,8009,4004
9675,67223223,0,-0.0418093,0.0372525,-0.01261766,-0.1395814,0.07747606,-9.850763000000001,0,0,43.83574,1,1,8009,4004
9678,67225954,0,-0.0486237,-0.04754141,-0.01030473,-0.1693543,0.08768314000000001,-9.803454,0,0,43.83581,1,1,8009,4004
9713,67228598,0,-0.04739463,-0.1138925,-0.000173527,-0.4189334,0.1243182,-9.758874,0,0,43.83591,1,1,8009,4004
9717,67231601,0,-0.04354852,-0.02550753,0.02181568,-0.6652536999999999,0.2253015,-9.714869999999999,0,0,43.83601,1,1,8009,4004
9720,67233780,0,-0.02818061,0.02360124,0.0334652,-0.649853,0.3181432,-9.684642,0,0,43.83608,1,1,8009,4004
9723,67235951,0,0.01988513,0.03487693,0.03365194,-0.6033635000000001,0.4740461,-9.676693999999999,0,0,43.83623,1,1,8009,4004
9758,67238840,0,0.03696268,0.06820123,0.02797905,-0.6804422,0.5633735,-9.675928000000001,0,0,43.83632,1,1,8009,4004
9761,67240947,0,0.01778802,0.1227091,0.01780418,-0.6347325,0.6479869,-9.641097,0,0,43.83646,1,1,8009,4004
9766,67244071,0,-0.002848246,0.07138766000000001,0.002669198,-0.3819082,0.6583052,-9.607116,0,0,43.83653,1,1,8009,4004
9769,67245968,0,-0.01626134,-0.06876694,-0.02611239,-0.06006791,0.5939381,-9.596772,0,0,43.83663,1,1,8009,4004
9804,67248430,0,-0.006667966,-0.09003373000000001,-0.03298277,-0.001781286,0.5483112,-9.640806,0,0,43.83666,1,1,8009,4004
9808,67251097,0,0.03574141,-0.02664084,-0.02168868,0.1540898,0.4902491,-9.727185,0,0,43.8367,1,1,8009,4004
9811,67253864,0,0.05987233,-0.007775581,-0.01106735,0.3324631,0.4084601,-9.786852,0,0,43.83673,1,1,8009,4004
9818,67256220,0,0.05354757,0.001121631,-0.002614436,0.3477278,0.2765925,-9.899756,0,0,43.83677,1,1,8009,4004
9853,67259268,0,0.0002504289,0.06905907999999999,0.008125056,0.08134484,0.2092215,-9.944121000000001,0,0,43.8368,1,1,8009,4004
9857,67261758,0,-0.02878232,0.07391801000000001,0.007882109,-0.00223473,0.1680272,-9.892144,0,0,43.83682,1,1,8009,4004
9860,67263864,0,-0.03705731,-0.03599111,-0.01140585,-0.06818017,0.1017244,-9.771523,0,0,43.83682,1,1,8009,4004
9863,67266268,0,-0.02854032,-0.09458287999999999,-0.01981983,-0.2522176,0.08751608,-9.714693,0,0,43.83682,1,1,8009,4004
9900,67269199,0,-0.009643244,-0.06150197,-0.00557885,-0.5628672,0.1422308,-9.675465000000001,0,0,43.83684,1,1,8009,4004
9903,67277917,0,0.02366634,0.1063344,0.05478682,-0.7703993,0.5569123,-9.852339000000001,0,0,43.83694,1,1,8009,4004
9938,67280389,0,0.006738569,0.1060283,0.04228812,-0.5566924,0.6144922,-9.759164,0,0,43.83698,1,1,8009,4004
9941,67283835,0,-0.006434177,0.02341538,0.0133028,-0.3189295,0.5886932,-9.69191,0,0,43.83699,1,1,8009,4004
9944,67286186,0,-0.004725581,-0.06957732,-0.0276704,-0.1285898,0.5423871,-9.646127999999999,0,0,43.83701,1,1,8009,4004
9947,67288368,0,0.02202743,-0.06189679,-0.03616113,-0.02563036,0.5195256,-9.651517,0,0,43.83703,1,1,8009,4004
9982,67290790,0,0.0698261,-0.03597075,-0.02848823,0.2613828,0.4334553,-9.724631,0,0,43.83706,1,1,8009,4004
9986,67293380,0,0.07685155,-0.036118,-0.01954044,0.3902087,0.3552218,-9.840108000000001,0,0,43.83708,1,1,8009,4004
9989,67296179,0,0.04411052,0.02319159,-0.0009107349,0.2636035,0.285916,-10.02217,0,0,43.83711,1,1,8009,4004
9992,67298375,0,0.007144254,0.08529568,0.01224094,0.120106,0.2485987,-10.05429,0,0,43.83713,1,1,8009,4004
10027,67301425,0,-0.03429404,0.05119772,0.007459535,0.07371511,0.1711738,-9.953815000000001,0,0,43.83716,1,1,8009,4004
10031,67303816,0,-0.03410868,-0.05112541,-0.01109003,0.01407752,0.1348249,-9.83854,0,0,43.83718,1,1,8009,4004
10035,67305851,0,-0.01600222,-0.1283354,-0.02220949,-0.3011213,0.1143937,-9.650511,0,0,43.83721,1,1,8009,4004
10038,67308467,0,-0.00824137,-0.0884852,-0.01011733,-0.4985593,0.1244628,-9.566248999999999,0,0,43.83723,1,1,8009,4004
10073,67310862,0,0.0004992961,-0.01171047,0.01727627,-0.5871170999999999,0.2070946,-9.595719000000001,0,0,43.83724,1,1,8009,4004
10077,67314596,0,0.02232876,0.01805799,0.02964996,-0.6352038,0.3132823,-9.711611,0,0,43.83724,1,1,8009,4004
10080,67317051,0,0.04714542,0.08855692,0.03930558,-0.7930554,0.4573184,-9.833221,0,0,43.83724,1,1,8009,4004
10083,67318906,0,0.02514956,0.1278612,0.03918462,-0.7805519,0.4906934,-9.814079,0,0,43.83724,1,1,8009,4004
10118,67321417,0,-0.02922333,0.05920954,0.01362286,-0.4704348,0.4979962,-9.722163999999999,0,0,43.83724,1,1,8009,4004
10121,67323770,0,-0.03722714,-0.03938299,-0.01321914,-0.2546756,0.4983019,-9.667134000000001,0,0,43.83724,1,1,8009,4004
10124,67326630,0,0.0008172616,-0.1008829,-0.03189982,-0.060274,0.4648893,-9.605983,0,0,43.83724,1,1,8009,4004
10127,67328846,0,0.03400389,-0.07182653,-0.02706151,0.09628547,0.4152854,-9.608732,0,0,43.83724,1,1,8009,4004
10164,67331839,0,0.05738124,-0.02416758,-0.0119011,0.3654319,0.3207632,-9.739919,0,0,43.83724,1,1,8009,4004
10168,67333794,0,0.05540105,0.003275853,-0.005310485,0.4038416,0.2711125,-9.876852,0,0,43.83724,1,1,8009,4004
10171,67335893,0,0.01887091,0.071647,-0.001737011,0.2339277,0.1978317,-9.982004999999999,0,0,43.83724,1,1,8009,4004
10174,67339054,0,-0.02564281,0.08584122,-0.006509759,0.1414074,0.1364619,-9.957416,0,0,43.83724,1,1,8009,4004
10209,67342253,0,-0.06091829,-0.01841728,-0.03027622,0.07263372,0.1003262,-9.852788,0,0,43.83724,1,1,8009,4004
10212,67343948,0,-0.03123792,-0.1315061,-0.04091989,-0.169334,0.1152093,-9.665335000000001,0,0,43.83724,1,1,8009,4004
10216,67346384,0,-0.01469717,-0.1231875,-0.02540386,-0.3831072,0.1141051,-9.553101,0,0,43.83724,1,1,8009,4004
10219,67349654,0,-0.01767018,-0.02996378,0.01210251,-0.5795652999999999,0.1769726,-9.564341000000001,0,0,43.83724,1,1,8009,4004
10254,67352817,0,0.007462559,0.05967059,0.03803,-0.7239184,0.3508834,-9.758457,0,0,43.83721,1,1,8009,4004
10258,67354686,0,0.02969119,0.1099093,0.04443693,-0.8288824,0.4403859,-9.829314,0,0,43.83719,1,1,8009,4004
10261,67357001,0,-0.001226328,0.1289676,0.03360597,-0.7937027,0.4536999,-9.766116,0,0,43.83716,1,1,8009,4004
10268,67360066,0,-0.03836307,0.06785836000000001,0.009380428,-0.6026565,0.4560714,-9.692785000000001,0,0,43.83714,1,1,8009,4004
10303,67363149,0,-0.03722884,-0.07042704,-0.03008722,-0.2856326,0.4819225,-9.605411999999999,0,0,43.83714,1,1,8009,4004
10306,67365774,0,0.003914448,-0.09884647000000001,-0.03556092,-0.04876595,0.4243691,-9.568417,0,0,43.83714,1,1,8009,4004
10309,67367428,0,0.01660539,-0.05076806,-0.02317192,0.1182644,0.3706092,-9.634194000000001,0,0,43.83714,1,1,8009,4004
10313,67370074,0,0.0298604,0.02305801,-0.002924158,0.3309797,0.34794,-9.861898,0,0,43.83714,1,1,8009,4004
10348,67372852,0,0.03944277,0.05239074,0.004442773,0.353637,0.3289898,-9.975719,0,0,43.83713,1,1,8009,4004
10352,67375640,0,-0.00102031,0.08202519,0.002083553,0.2340548,0.219667,-9.958487999999999,0,0,43.83713,1,1,8009,4004
10355,67378344,0,-0.05275994,0.06062404,-0.01068929,0.1618402,0.1645098,-9.884024999999999,0,0,43.83713,1,1,8009,4004
10358,67379816,0,-0.06509271,-0.06366155,-0.03762475,0.06867152,0.1957123,-9.772776,0,0,43.83713,1,1,8009,4004
10393,67382718,0,-0.01366072,-0.1432045,-0.03970987,-0.0803567,0.2155205,-9.678175,0,0,43.83713,1,1,8009,4004
10396,67385211,0,-0.006151441,-0.1019759,-0.01852445,-0.4018429,0.2052239,-9.584291,0,0,43.83713,1,1,8009,4004
10399,67388227,0,-0.01499295,-0.01889607,0.01017219,-0.5640358,0.2629821,-9.636386999999999,0,0,43.83713,1,1,8009,4004
10402,67390459,0,0.01034621,0.07805125,0.04069999,-0.7127875,0.4396881,-9.831106999999999,0,0,43.83713,1,1,8009,4004
10437,67392996,0,0.03642561,0.1243103,0.04408922,-0.8432518,0.5103887,-9.898859,0,0,43.83713,1,1,8009,4004
10441,67395572,0,0.003836541,0.1235016,0.03280792,-0.8341433,0.4924948,-9.847068999999999,0,0,43.83713,1,1,8009,4004
10444,67399185,0,-0.04701211,0.02899198,0.000806486,-0.5696755999999999,0.4979741,-9.743278,0,0,43.83713,1,1,8009,4004
10447,67400424,0,-0.03152324,-0.06732678,-0.01973231,-0.3359165,0.4978711,-9.663814,0,0,43.83713,1,1,8009,4004
10482,67403276,0,0.01227021,-0.1165854,-0.02451128,-0.07657269999999999,0.3940062,-9.577247,0,0,43.83713,1,1,8009,4004
10486,67405619,0,0.0176061,-0.06381903999999999,-0.01108282,0.06527044,0.3131979,-9.634299,0,0,43.83713,1,1,8009,4004
10489,67409229,0,0.02815675,0.03941488,0.007016681,0.2678517,0.284718,-9.902091,0,0,43.83713,1,1,8009,4004
10492,67411300,0,0.04847547,0.08458649,0.009193692,0.3103292,0.2438771,-10.0848,0,0,43.83713,1,1,8009,4004
10527,67413858,0,-0.01699858,0.07397397,-0.001690772,0.203844,0.1221869,-10.00846,0,0,43.83713,1,1,8009,4004
10530,67416440,0,-0.06913830999999999,0.01414156,-0.01590961,0.1528659,0.1140181,-9.904227000000001,0,0,43.83713,1,1,8009,4004
10533,67419443,0,-0.05490014,-0.1221465,-0.03251172,0.04282311,0.1942931,-9.727396000000001,0,0,43.83713,1,1,8009,4004
10536,67421434,0,-0.01952973,-0.157792,-0.02584645,-0.1374843,0.2054493,-9.615747000000001,0,0,43.83713,1,1,8009,4004
10571,67424306,0,-0.002409267,-0.0686295,0.007081499,-0.4634903,0.2552476,-9.614499,0,0,43.83713,1,1,8009,4004
10575,67426268,0,0.009965364000000001,0.02323513,0.03132916,-0.6161818999999999,0.3806958,-9.738491,0,0,43.83713,1,1,8009,4004
10578,67429307,0,0.05381307,0.1091309,0.05083641,-0.7730861,0.5473987,-9.89317,0,0,43.83713,1,1,8009,4004
10581,67431936,0,0.0455357,0.128617,0.0502507,-0.8504013,0.5631196000000001,-9.866740999999999,0,0,43.83713,1,1,8009,4004
10616,67434747,0,-0.02912754,0.08779661,0.02839753,-0.7892442,0.5623685,-9.723392,0,0,43.83713,1,1,8009,4004
10619,67437431,0,-0.0354045,-0.03885142,-0.008269982,-0.5032467,0.5925917000000001,-9.601713999999999,0,0,43.83713,1,1,8009,4004
10622,67439357,0,0.001090348,-0.1040919,-0.0234316,-0.3095352,0.539075,-9.532515999999999,0,0,43.83713,1,1,8009,4004
10625,67441847,0,0.03168279,-0.08556730999999999,-0.01811107,-0.06325372999999999,0.3915547,-9.543478,0,0,43.83713,1,1,8009,4004
10660,67444899,0,0.04088125,-0.02460963,-0.004258665,0.09818389,0.3449267,-9.685999000000001,0,0,43.83713,1,1,8009,4004
10664,67446981,0,0.06723975,0.05483206,0.01257697,0.2576524,0.3093412,-9.966851999999999,0,0,43.83713,1,1,8009,4004
10669,67449965,0,0.05573203,0.08553185000000001,0.01727014,0.2630538,0.2320351,-10.03943,0,0,43.83713,1,1,8009,4004
10672,67452525,0,-0.03370353,0.06930896,0.008382285,0.2054186,0.1167723,-9.945292,0,0,43.83713,1,1,8009,4004
10709,67455811,0,-0.06868073,-0.04971109,-0.01908205,0.141487,0.1502621,-9.774164000000001,0,0,43.83713,1,1,8009,4004
10713,67457846,0,-0.03456761,-0.1319112,-0.03197119,0.0328065,0.1690959,-9.634929,0,0,43.83713,1,1,8009,4004
10720,67463609,0,0.002412524,-0.02000851,0.01036772,-0.5076873,0.2599736,-9.635144,0,0,43.83713,1,1,8009,4004
10755,67465854,0,0.05417215,0.08452315000000001,0.03803199,-0.7140949,0.4559791,-9.847476,0,0,43.83713,1,1,8009,4004
10758,67468837,0,0.0587704,0.1243925,0.04728681,-0.8100966000000001,0.4916032,-9.866343000000001,0,0,43.83713,1,1,8009,4004
10761,67471588,0,-0.01840233,0.1024446,0.03730774,-0.7833123,0.4982692,-9.742393,0,0,43.83713,1,1,8009,4004
10764,67473908,0,-0.04954556,0.02846393,0.0147373,-0.6465335,0.5413374,-9.65204,0,0,43.83713,1,1,8009,4004
10799,67479737,0,0.01813575,-0.08393512,-0.02660737,-0.1411269,0.3787851,-9.549851,0,0,43.83713,1,1,8009,4004
10803,67482878,0,0.04248359,-0.01412575,-0.01427554,0.1147674,0.3274241,-9.759594,0,0,43.83713,1,1,8009,4004
10806,67484637,0,0.06881387999999999,0.03121419,-0.003207523,0.2233384,0.3053844,-9.938953,0,0,43.83713,1,1,8009,4004
10841,67487068,0,0.03875049,0.08573027,0.008721975999999999,0.2385995,0.1647207,-10.0463,0,0,43.83713,1,1,8009,4004
10844,67490045,0,-0.03113838,0.08809301,0.005852893,0.2097448,0.09017066999999999,-10.01428,0,0,43.83713,1,1,8009,4004
10848,67492196,0,-0.07099382999999999,-0.00623028,-0.0189937,0.1532235,0.1333125,-9.912705000000001,0,0,43.83713,1,1,8009,4004
10851,67494994,0,-0.03813031,-0.09061047,-0.03565667,0.05080239,0.1552583,-9.792315,0,0,43.83713,1,1,8009,4004
10886,67497271,0,-0.02145204,-0.1246289,-0.03380865,-0.2012156,0.09766632,-9.604400999999999,0,0,43.8371,1,1,8009,4004
10889,67499996,0,-0.02497816,-0.04915613,-0.00662191,-0.4476262,0.2166815,-9.653883,0,0,43.83706,1,1,8009,4004
10892,67502831,0,0.01521991,0.01943419,0.01398878,-0.6041851,0.3804877,-9.794851,0,0,43.83703,1,1,8009,4004
10896,67506287,0,0.05703128,0.1188702,0.03982428,-0.8162417,0.4902536,-9.914063000000001,0,0,43.83699,1,1,8009,4004
10899,67508285,0,-0.01428372,0.138697,0.03991061,-0.830192,0.5092445,-9.837232999999999,0,0,43.83696,1,1,8009,4004
10934,67510651,0,-0.04958965,0.02910108,0.004146813,-0.6313851,0.5837752,-9.710241999999999,0,0,43.83693,1,1,8009,4004
10938,67513449,0,-0.02252998,-0.0523774,-0.02205402,-0.4750276,0.5592334,-9.624503000000001,0,0,43.83691,1,1,8009,4004
10941,67516359,0,-0.004192953,-0.08096758,-0.03786329,-0.2144248,0.3927119,-9.542107,0,0,43.83688,1,1,8009,4004
10944,67519071,0,0.001598203,-0.05149626,-0.03417347,-0.009102529999999999,0.3330205,-9.603281000000001,0,0,43.83686,1,1,8009,4004
10979,67521431,0,0.06439734,0.007373996,-0.01683887,0.2221303,0.3367483,-9.861216000000001,0,0,43.83681,1,1,8009,4004
10982,67524143,0,0.06784257,0.0731509,0.003321924,0.2726326,0.1980852,-10.01988,0,0,43.83679,1,1,8009,4004
10985,67526798,0,-0.01564657,0.09465730999999999,0.008482946999999999,0.2648018,0.07409907,-10.00139,0,0,43.83677,1,1,8009,4004
10988,67529779,0,-0.1013767,0.02549273,-0.01042802,0.2333235,0.09222189,-9.929315000000001,0,0,43.83674,1,1,8009,4004
11023,67533043,0,-0.03999294,-0.1004148,-0.03729682,0.07426777,0.1541135,-9.772482,0,0,43.8367,1,1,8009,4004
11027,67534894,0,-0.01511028,-0.1266708,-0.03891448,-0.0987991,0.09310298,-9.615027,0,0,43.83669,1,1,8009,4004
11030,67537184,0,-0.03532296,-0.0684835,-0.01796177,-0.3482131,0.1249889,-9.538231,0,0,43.83669,1,1,8009,4004
11033,67539874,0,-0.01383986,-0.005219531,0.002622416,-0.5093832,0.2918109,-9.644100999999999,0,0,43.83669,1,1,8009,4004
11068,67542858,0,0.04909845,0.08758715,0.03302861,-0.746289,0.4672054,-9.80856,0,0,43.83669,1,1,8009,4004
11071,67545096,0,0.03287609,0.1283485,0.04455612,-0.8264667,0.4845962,-9.813179999999999,0,0,43.83669,1,1,8009,4004
11074,67547168,0,-0.03703497,0.09108703999999999,0.03176468,-0.7430291,0.5558759,-9.73555,0,0,43.83672,1,1,8009,4004
11077,67549904,0,-0.03960299,0.009740053,0.008589008,-0.6023431,0.6094363,-9.680128,0,0,43.83674,1,1,8009,4004
11112,67552211,0,-0.01233114,-0.07591803,-0.02022839,-0.363895,0.5186743,-9.572215,0,0,43.83677,1,1,8009,4004
11116,67555060,0,-0.01439667,-0.07355942,-0.02497072,-0.1802241,0.4209637,-9.525805,0,0,43.83679,1,1,8009,4004
11119,67557828,0,0.02971904,-0.02391522,-0.0161316,0.1057396,0.4161223,-9.641177000000001,0,0,43.83681,1,1,8009,4004
11122,67559642,0,0.08658716,0.01389272,-0.004079599,0.2308877,0.4054949,-9.800888,0,0,43.83684,1,1,8009,4004
11157,67562064,0,0.06390527999999999,0.06824599000000001,0.01380309,0.2871584,0.221382,-9.935995999999999,0,0,43.83686,1,1,8009,4004
11162,67564433,0,-0.02390314,0.07694874,0.0133944,0.2841807,0.1257784,-9.939717,0,0,43.83688,1,1,8009,4004
11169,67567953,0,-0.07655905,-0.004544592,-0.01137213,0.2443637,0.1787026,-9.919559,0,0,43.83691,1,1,8009,4004
11172,67570216,0,-0.03669454,-0.08348186,-0.02790939,0.1528415,0.1997892,-9.852804000000001,0,0,43.83694,1,1,8009,4004
11207,67572755,0,-0.02194249,-0.1180006,-0.02894979,-0.08312419,0.1055254,-9.646786000000001,0,0,43.83698,1,1,8009,4004
11210,67575178,0,-0.03529431,-0.04920324,-0.002978041,-0.3356354,0.2070998,-9.588766,0,0,43.837,1,1,8009,4004
11213,67577494,0,0.01380598,0.009390348999999999,0.01815294,-0.5014939,0.3817118,-9.683581,0,0,43.83702,1,1,8009,4004
11216,67580436,0,0.07136184,0.08568769,0.04456759,-0.722691,0.4834324,-9.799590999999999,0,0,43.83705,1,1,8009,4004
11251,67583452,0,0.0002132222,0.1097284,0.04647239,-0.7875957,0.4948695,-9.775463,0,0,43.83708,1,1,8009,4004
11256,67585260,0,-0.03462758,0.06411744,0.02833742,-0.7095808,0.5728811,-9.740252,0,0,43.8371,1,1,8009,4004
11259,67588144,0,-0.0042928,-0.0425037,-0.006097864,-0.4958886,0.5869049,-9.666795,0,0,43.83713,1,1,8009,4004
11262,67590417,0,0.002006206,-0.07232557000000001,-0.01822078,-0.3316378,0.4663803,-9.592212999999999,0,0,43.83715,1,1,8009,4004
11297,67593603,0,-0.01012937,-0.04089589,-0.01446943,-0.05206943,0.3602806,-9.579269999999999,0,0,43.83717,1,1,8009,4004
11300,67595954,0,0.03577416,-0.006421453,-0.004933578,0.1233441,0.3869677,-9.698019,0,0,43.83717,1,1,8009,4004
11303,67598166,0,0.1036609,0.03554685,0.01002224,0.2705334,0.3033491,-9.904358,0,0,43.83717,1,1,8009,4004
11306,67600385,0,0.05538614,0.0569611,0.01652733,0.2913707,0.1520655,-9.9536,0,0,43.83717,1,1,8009,4004
11341,67603041,0,-0.06920305,0.03862974,0.006508939,0.2714539,0.08043506,-9.948198,0,0,43.83717,1,1,8009,4004
11345,67605443,0,-0.07455732,-0.02175039,-0.011198,0.223097,0.1418283,-9.926195,0,0,43.83716,1,1,8009,4004
11348,67609065,0,-0.01617778,-0.1036562,-0.02779174,0.04711175,0.1224601,-9.769168000000001,0,0,43.83713,1,1,8009,4004
11351,67611654,0,-0.01875053,-0.1009014,-0.02245946,-0.1197863,0.06954326,-9.626620000000001,0,0,43.8371,1,1,8009,4004
11354,67613251,0,-0.01795505,-0.03125873,0.002079284,-0.381146,0.2103926,-9.607533999999999,0,0,43.83707,1,1,8009,4004
11390,67616018,0,0.05436534,0.05200445,0.02899584,-0.6423904,0.4304358,-9.782223,0,0,43.83703,1,1,8009,4004
11393,67618670,0,0.05980524,0.09447687,0.04250594,-0.7705598,0.4595941,-9.84178,0,0,43.83701,1,1,8009,4004
11396,67621776,0,-0.02040064,0.09593222,0.04104335,-0.7980275,0.5007622,-9.805133,0,0,43.83698,1,1,8009,4004
11399,67623629,0,-0.04123084,0.04105313,0.02292758,-0.7110491,0.5926649000000001,-9.760884000000001,0,0,43.83695,1,1,8009,4004
11434,67626267,0,0.005205711,-0.0510232,-0.0067226,-0.502559,0.6024143,-9.660174,0,0,43.83691,1,1,8009,4004
11437,67628557,0,0.01192734,-0.06517340000000001,-0.01501141,-0.3344966,0.4863065,-9.569238,0,0,43.83689,1,1,8009,4004
11440,67630877,0,0.004999637,-0.02436169,-0.01171522,-0.0544985,0.4011241,-9.591785,0,0,43.83684,1,1,8009,4004
11443,67633628,0,0.05280005,0.01171338,-0.006317146,0.09825952,0.431446,-9.758951,0,0,43.8368,1,1,8009,4004
11479,67636406,0,0.1006156,0.05594014,0.003210722,0.2188919,0.3247056,-9.977976,0,0,43.83672,1,1,8009,4004
11482,67639199,0,0.03620774,0.06691014000000001,0.006720259,0.2598149,0.164597,-9.990894000000001,0,0,43.83668,1,1,8009,4004
11486,67641040,0,-0.079,0.01645418,-0.006458051,0.280524,0.1075545,-9.931139,0,0,43.83657,1,1,8009,4004
11489,67643861,0,-0.06659874,-0.0534863,-0.02299501,0.2290145,0.1630946,-9.879251,0,0,43.83649,1,1,8009,4004
11524,67646012,0,-0.01231213,-0.1114584,-0.03162,0.03547213,0.1013778,-9.702719999999999,0,0,43.83626,1,1,8009,4004
11527,67649566,0,-0.0245428,-0.08672976,-0.02335429,-0.1315364,0.04926001,-9.595514,0,0,43.83614,1,1,8009,4004
11530,67651515,0,-0.00571789,-0.00159335,-0.0008643909,-0.4000857,0.2317932,-9.667591,0,0,43.83589,1,1,8009,4004
11533,67653744,0,0.05043164,0.05070065,0.01570751,-0.5750613,0.3806404,-9.787893,0,0,43.83578,1,1,8009,4004
11569,67656046,0,0.03942889,0.09254157,0.03528853,-0.7372942,0.3850718,-9.810549,0,0,43.83562,1,1,8009,4004
11572,67659168,0,-0.05707596,0.06345627,0.0273483,-0.7285203,0.4531558,-9.717530999999999,0,0,43.83545,1,1,8009,4004
11575,67661646,0,-0.0480437,0.004856464,0.006674618,-0.6465567,0.5765727,-9.677619,0,0,43.83533,1,1,8009,4004
11580,67664370,0,0.005550891,-0.05068599,-0.01260799,-0.5195227,0.5895696,-9.625095,0,0,43.83515,1,1,8009,4004
11619,67673467,0,0.1075162,0.04945336,-0.001035793,0.184458,0.371862,-9.938817999999999,0,0,43.83474,1,1,8009,4004
11623,67675800,0,0.05823785,0.04732043,0.003831105,0.246728,0.1882618,-9.942992,0,0,43.83467,1,1,8009,4004
11658,67678611,0,-0.08440006,0.007643314,-0.006576449,0.25476,0.09987032,-9.883504,0,0,43.83457,1,1,8009,4004
11662,67681373,0,-0.05791272,-0.07904791,-0.0290142,0.1607009,0.2027878,-9.83066,0,0,43.8345,1,1,8009,4004
11665,67683469,0,-0.01181424,-0.1147523,-0.03491985,0.04582774,0.1394864,-9.729239,0,0,43.83437,1,1,8009,4004
11669,67685815,0,-0.02276581,-0.09911195,-0.029959,-0.1113616,0.04709062,-9.626106999999999,0,0,43.83425,1,1,8009,4004
11704,67688295,0,-0.02962092,-0.006568475,-0.006039883,-0.3982778,0.1973215,-9.672798999999999,0,0,43.83412,1,1,8009,4004
11707,67691168,0,0.05391216,0.07137673999999999,0.02151034,-0.6468949000000001,0.4103014,-9.818644000000001,0,0,43.83401,1,1,8009,4004
11710,67694011,0,0.04633939,0.08820248,0.0322145,-0.7357947,0.3834693,-9.812268,0,0,43.83398,1,1,8009,4004
11713,67695444,0,-0.02850226,0.07568999,0.03001359,-0.7613369,0.3665625,-9.751407,0,0,43.834,1,1,8009,4004
11749,67698318,0,-0.06877901,0.006012926,0.004793564,-0.6952699,0.5469279,-9.69098,0,0,43.83406,1,1,8009,4004
11752,67700844,0,0.01590763,-0.06854782,-0.01707719,-0.4915825,0.5700976,-9.623192,0,0,43.83416,1,1,8009,4004
11755,67703829,0,0.01775245,-0.07062643,-0.01799458,-0.319953,0.4268198,-9.569409,0,0,43.8343,1,1,8009,4004
11759,67706575,0,-0.01297647,-0.02880604,-0.01105226,-0.1664734,0.3539879,-9.597182,0,0,43.8344,1,1,8009,4004
11794,67709029,0,0.06285337000000001,0.06734363,0.006042947,0.07580894000000001,0.4341811,-9.886072,0,0,43.83447,1,1,8009,4004
11797,67711819,0,0.08097471000000001,0.06510233999999999,0.008492537,0.1933159,0.3104075,-9.947433,0,0,43.83448,1,1,8009,4004
11800,67714285,0,-0.02802364,0.01363791,-0.005059175,0.2785736,0.087259,-9.898725000000001,0,0,43.83454,1,1,8009,4004
11803,67717410,0,-0.08323841999999999,-0.0274799,-0.02183447,0.2310552,0.0989959,-9.873730999999999,0,0,43.83457,1,1,8009,4004
11838,67720734,0,-0.01545893,-0.09057748,-0.03431151,0.05166525,0.1349034,-9.804651,0,0,43.83463,1,1,8009,4004
11841,67722637,0,-0.01190579,-0.0883607,-0.02418292,-0.06845932,0.06543276000000001,-9.72236,0,0,43.83467,1,1,8009,4004
11844,67724854,0,-0.02600511,-0.01309091,0.003259232,-0.3709014,0.168252,-9.710571,0,0,43.83473,1,1,8009,4004
11848,67728198,0,0.00754508,0.05482374,0.02464278,-0.5853702,0.331357,-9.771667000000001,0,0,43.83476,1,1,8009,4004
11883,67731234,0,0.02843759,0.09244367000000001,0.04355407,-0.7370987,0.4015612,-9.780581,0,0,43.8348,1,1,8009,4004
11886,67733229,0,-0.03661863,0.04714587,0.02796818,-0.7567433,0.423752,-9.701275000000001,0,0,43.83485,1,1,8009,4004
11889,67735449,0,-0.04573955,0.01139908,0.00647994,-0.7537655,0.5259361,-9.678100000000001,0,0,43.83487,1,1,8009,4004
11892,67738695,0,0.009565808,-0.02330067,-0.01389792,-0.5966108,0.5745358,-9.653808,0,0,43.83492,1,1,8009,4004
11927,67740845,0,0.006969385,-0.03124156,-0.01129503,-0.2889521,0.4404014,-9.607472,0,0,43.83498,1,1,8009,4004
11930,67743789,0,0.003534924,-0.00637585,-0.001390014,-0.1374763,0.4319437,-9.655290000000001,0,0,43.83501,1,1,8009,4004
11933,67746656,0,0.06059697,0.06026205,0.01726749,0.009266742999999999,0.4798496,-9.842447999999999,0,0,43.83506,1,1,8009,4004
11937,67748896,0,0.07227168,0.07189269,0.02435003,0.1400062,0.3906994,-9.918288,0,0,43.83511,1,1,8009,4004
11972,67751826,0,-0.009038739,0.01717011,0.008719073000000001,0.2953359,0.1957985,-9.888624999999999,0,0,43.83525,1,1,8009,4004
11975,67753899,0,-0.05476379,-0.02438416,-0.01338181,0.2611205,0.1682742,-9.841466,0,0,43.83535,1,1,8009,4004
11978,67755866,0,-0.03009168,-0.05511372,-0.0343907,0.1177257,0.1839483,-9.784618,0,0,43.83551,1,1,8009,4004
11982,67759202,0,-0.004721147,-0.06818731,-0.03314685,0.05125417,0.1410819,-9.730452,0,0,43.8356,1,1,8009,4004
12017,67761299,0,-0.00017269,-0.05203771,-0.01408671,-0.1554019,0.1448265,-9.686728,0,0,43.83572,1,1,8009,4004
12020,67764426,0,0.02395118,0.0481388,0.02310092,-0.531077,0.3198867,-9.761787999999999,0,0,43.83584,1,1,8009,4004
12023,67766805,0,0.0311629,0.1022313,0.04618722,-0.6834843,0.3969153,-9.793729000000001,0,0,43.83592,1,1,8009,4004
12026,67769004,0,-0.009677768999999999,0.06942189999999999,0.04728511,-0.6987501,0.4232553,-9.732393999999999,0,0,43.83604,1,1,8009,4004
12062,67771965,0,-0.03065405,0.01050015,0.02588565,-0.7052908,0.4765733,-9.671011,0,0,43.83611,1,1,8009,4004
12065,67774226,0,0.003135342,-0.02881265,-0.005893536,-0.6878299,0.5649063,-9.630426,0,0,43.83624,1,1,8009,4004
12072,67777279,0,0.02660862,-0.02523621,-0.01237025,-0.5366109,0.5340235,-9.617727,0,0,43.83634,1,1,8009,4004
12076,67778981,0,0.0222134,-0.01636778,-0.005103976,-0.2118042,0.4389625,-9.618277000000001,0,0,43.83651,1,1,8009,4004
12111,67781277,0,0.0330595,0.01001916,0.005287252,-0.07870458,0.4365157,-9.683194,0,0,43.83661,1,1,8009,4004
12114,67784441,0,0.05851606,0.06771273999999999,0.02201213,0.06362015,0.3989631,-9.826362,0,0,43.83672,1,1,8009,4004
12117,67786394,0,0.03673123,0.06205663,0.0218586,0.2151949,0.2925321,-9.873322,0,0,43.8368,1,1,8009,4004
12120,67789454,0,-0.01770663,-0.02082056,-0.006242018,0.3625961,0.1690833,-9.860002,0,0,43.83693,1,1,8009,4004
12155,67792049,0,-0.02243309,-0.07472972999999999,-0.03673438,0.2445278,0.1280536,-9.822046,0,0,43.83706,1,1,8009,4004
12158,67794288,0,-0.01700826,-0.07118492999999999,-0.04106181,0.1412845,0.08961461,-9.799340000000001,0,0,43.83715,1,1,8009,4004
12161,67797630,0,-0.01835053,-0.06312015,-0.02595736,0.0129924,0.09447231,-9.755419,0,0,43.83728,1,1,8009,4004
12165,67799289,0,0.0006705684,-0.03953579,-0.005460342,-0.1747241,0.1769591,-9.741462,0,0,43.83736,1,1,8009,4004
12200,67802598,0,0.02625713,0.04838982,0.03229825,-0.5509269,0.3070287,-9.770557,0,0,43.83751,1,1,8009,4004
12203,67804278,0,0.008366462999999999,0.08758868,0.04691303,-0.6883356,0.3611739,-9.783581999999999,0,0,43.83762,1,1,8009,4004
12206,67807021,0,-0.02574316,0.04406668,0.03229208,-0.712665,0.4548115,-9.737658,0,0,43.83777,1,1,8009,4004
12210,67809883,0,-0.01654826,-0.008425116999999999,0.007474624,-0.7252374,0.5142452,-9.685039,0,0,43.83786,1,1,8009,4004
12245,67812269,0,0.01134869,-0.02938213,-0.01962242,-0.6739628,0.5300962,-9.655685999999999,0,0,43.83801,1,1,8009,4004
12248,67815645,0,0.01174885,-0.02166166,-0.01725556,-0.388253,0.4952385,-9.680438000000001,0,0,43.8382,1,1,8009,4004
12251,67817345,0,0.02246346,-0.01397255,-0.005419319,-0.1898994,0.4824414,-9.718603,0,0,43.83835,1,1,8009,4004
12256,67820234,0,0.04710769,0.03491243,0.01848946,-0.01814877,0.4308844,-9.818815000000001,0,0,43.83856,1,1,8009,4004
12293,67823900,0,0.02121888,0.0597523,0.02460431,0.1818634,0.3091537,-9.907567,0,0,43.83875,1,1,8009,4004
12297,67825788,0,-0.005276799,0.02160447,0.00748842,0.3195843,0.2310099,-9.916342,0,0,43.83886,1,1,8009,4004
12300,67829148,0,-0.01527844,-0.04818385,-0.03299258,0.3236296,0.1282721,-9.855596999999999,0,0,43.83908,1,1,8009,4004
12303,67830375,0,-0.0183419,-0.0576955,-0.05018913,0.2251002,0.06400878,-9.812542000000001,0,0,43.83919,1,1,8009,4004
12338,67833650,0,-0.02891104,-0.06085956,-0.0472891,0.1142067,0.03987856,-9.785666000000001,0,0,43.83935,1,1,8009,4004
12341,67835659,0,-0.01534256,-0.06528749,-0.03134169,0.003447153,0.09279577,-9.782419000000001,0,0,43.83951,1,1,8009,4004
12344,67837874,0,0.0145413,-0.00714838,0.007035403,-0.3497552,0.195264,-9.793775,0,0,43.83975,1,1,8009,4004
12347,67841156,0,2.195371e-06,0.06178201,0.03346699,-0.5764402,0.2488042,-9.804626000000001,0,0,43.83985,1,1,8009,4004
12382,67843797,0,-0.04373439,0.08244553,0.04265624,-0.6843323,0.3594636,-9.775582999999999,0,0,43.83997,1,1,8009,4004
12385,67846440,0,-0.02323695,0.006911888,0.01013452,-0.7127192,0.4773127,-9.671110000000001,0,0,43.84005,1,1,8009,4004
12388,67849049,0,0.00480434,-0.01662136,-0.01312523,-0.7416214,0.5012977,-9.600979000000001,0,0,43.84008,1,1,8009,4004
12391,67851741,0,0.005172216,-0.00683724,-0.0240285,-0.5828567,0.4814759,-9.581344,0,0,43.84017,1,1,8009,4004
12426,67854001,0,0.007502888,-0.01224768,-0.01112349,-0.2576157,0.4868583,-9.656898,0,0,43.84026,1,1,8009,4004
12429,67856712,0,0.03805503,0.02252755,0.01152576,-0.08153961999999999,0.4592102,-9.767996,0,0,43.84035,1,1,8009,4004
12432,67859858,0,0.02798802,0.06295168,0.02354677,0.02763801,0.3883782,-9.831882999999999,0,0,43.84041,1,1,8009,4004
12435,67862235,0,-0.01896913,0.04155343,0.0139858,0.2838413,0.2794088,-9.872016,0,0,43.8405,1,1,8009,4004
12470,67864653,0,-0.02553839,-0.0413576,-0.02504449,0.3491789,0.1962,-9.827028,0,0,43.84058,1,1,8009,4004
12474,67867186,0,-0.02222961,-0.05122799,-0.04540687,0.2360373,0.1286433,-9.787559999999999,0,0,43.84065,1,1,8009,4004
12477,67869918,0,-0.03302527,-0.03357241,-0.05089776,0.128338,0.07939114,-9.767336,0,0,43.84073,1,1,8009,4004
12484,67873010,0,-0.03022781,-0.03689124,-0.03510912,0.02507502,0.1212283,-9.756492,0,0,43.84093,1,1,8009,4004
12519,67878882,0,-0.009069547000000001,0.05890111,0.03693974,-0.6119256,0.2837807,-9.738092,0,0,43.84116,1,1,8009,4004
12526,67881278,0,-0.06192092,0.06929038999999999,0.04179282,-0.684006,0.3976552,-9.709469,0,0,43.84123,1,1,8009,4004
12529,67883800,0,-0.04100859,0.02117357,0.02193734,-0.6855213999999999,0.4998928,-9.664398,0,0,43.84128,1,1,8009,4004
12564,67886619,0,0.01800348,-0.01597967,-0.009003621999999999,-0.7144071,0.5350414999999999,-9.5783,0,0,43.84135,1,1,8009,4004
12567,67889031,0,0.01327259,-0.00361201,-0.01505592,-0.6212545,0.49303,-9.552987999999999,0,0,43.8414,1,1,8009,4004
12570,67894354,0,0.03872491,0.0100713,0.01074217,-0.07911120000000001,0.4976631,-9.715963,0,0,43.84158,1,1,8009,4004
12606,67897205,0,0.0343678,0.05250491,0.02442776,0.08876103,0.3790339,-9.823962999999999,0,0,43.84165,1,1,8009,4004
12609,67899365,0,-0.005244072,0.04059247,0.0183908,0.2593287,0.2961977,-9.865081999999999,0,0,43.8417,1,1,8009,4004
12612,67902058,0,-0.02837581,-0.03685962,-0.01248711,0.3826412,0.2172228,-9.843306999999999,0,0,43.84181,1,1,8009,4004
12615,67904667,0,-0.02056425,-0.06380644000000001,-0.03092946,0.3059636,0.1508247,-9.797598000000001,0,0,43.84188,1,1,8009,4004
12651,67906867,0,-0.02813889,-0.05639356,-0.0371241,0.1575504,0.06698517,-9.755163,0,0,43.84204,1,1,8009,4004
12654,67910235,0,-0.02580443,-0.05431989,-0.02850136,0.06861351,0.08960526000000001,-9.752419,0,0,43.84213,1,1,8009,4004
12657,67912046,0,0.0161445,-0.02761592,0.0005112197,-0.2203837,0.1974084,-9.772378,0,0,43.84225,1,1,8009,4004
12660,67914860,0,0.02334226,0.02432149,0.02546199,-0.4757697,0.2476647,-9.786500999999999,0,0,43.84231,1,1,8009,4004
12695,67917646,0,-0.03346898,0.07142679,0.04481888,-0.6848214,0.3179724,-9.764466000000001,0,0,43.8424,1,1,8009,4004
12698,67919809,0,-0.05586407,0.04162847,0.03565967,-0.7083303,0.4089176,-9.718143,0,0,43.84246,1,1,8009,4004
12701,67923294,0,-0.009374848,-0.02790686,0.006627668,-0.7377465,0.5322065,-9.619440000000001,0,0,43.84258,1,1,8009,4004
12704,67924926,0,0.0203137,-0.02878673,-0.007986672,-0.6626662,0.5143943,-9.569673,0,0,43.84267,1,1,8009,4004
12740,67928190,0,0.01513648,-0.02167705,-0.005441161,-0.4943447,0.4897992,-9.621722999999999,0,0,43.84271,1,1,8009,4004
12743,67929922,0,0.02610098,0.01181069,0.01048335,-0.2468873,0.5045615,-9.789588,0,0,43.84277,1,1,8009,4004
12746,67932019,0,0.0449573,0.04847344,0.02269268,-0.1334754,0.4782513,-9.886189999999999,0,0,43.84283,1,1,8009,4004
12749,67935370,0,0.03718796,0.06952608,0.02835801,0.009765457,0.3971092,-9.931974,0,0,43.84288,1,1,8009,4004
12784,67937666,0,-0.01996493,-0.01938314,-0.0004962137,0.3343845,0.25134,-9.893817,0,0,43.84305,1,1,8009,4004
12788,67941064,0,-0.01852815,-0.07104497999999999,-0.02397207,0.3381726,0.2029801,-9.832077,0,0,43.84315,1,1,8009,4004
12791,67942889,0,-0.01170353,-0.07494066000000001,-0.03975962,0.2034677,0.1143551,-9.769797000000001,0,0,43.84337,1,1,8009,4004
12794,67945819,0,-0.01473037,-0.06076906,-0.03525119,0.1258005,0.09406137000000001,-9.792144,0,0,43.84346,1,1,8009,4004
12829,67948225,0,0.01703067,-0.009562055999999999,-0.003796594,-0.0911696,0.1642669,-9.873602,0,0,43.84364,1,1,8009,4004
12832,67950853,0,0.02145055,0.04759227,0.02003936,-0.4692301,0.2480621,-9.885014999999999,0,0,43.84372,1,1,8009,4004
12835,67953292,0,-0.02297518,0.08648763,0.04032958,-0.6371184,0.2912678,-9.833432999999999,0,0,43.84386,1,1,8009,4004
12838,67956246,0,-0.04303939,0.04422133,0.03241255,-0.688066,0.3556264,-9.757071,0,0,43.84394,1,1,8009,4004
12873,67959295,0,0.01007596,-0.04786359,-0.001734966,-0.7369609,0.51883,-9.600963,0,0,43.84414,1,1,8009,4004
12877,67961040,0,0.02892085,-0.04250539,-0.007250358,-0.7294759,0.5378695999999999,-9.546291999999999,0,0,43.84425,1,1,8009,4004
12880,67963857,0,0.028463,-0.02201455,-0.004314889,-0.6167653,0.516396,-9.560537,0,0,43.84437,1,1,8009,4004
12883,67966492,0,0.03442757,0.02389561,0.00845336,-0.3570002,0.4971341,-9.731958000000001,0,0,43.84452,1,1,8009,4004
12918,67969456,0,0.03680912,0.09313717000000001,0.02315353,-0.1902054,0.45695,-9.887008,0,0,43.84468,1,1,8009,4004
12921,67971850,0,0.01572498,0.1000109,0.02157389,-0.05767139,0.3793994,-9.900712,0,0,43.84478,1,1,8009,4004
12925,67974027,0,-0.005120692,-0.001680754,-0.00768327,0.2388878,0.2691958,-9.843966,0,0,43.84495,1,1,8009,4004
12928,67976813,0,-0.0004198109,-0.07885443,-0.03160169,0.3580471,0.2128819,-9.775907999999999,0,0,43.84505,1,1,8009,4004
12963,67979797,0,-0.01307627,-0.09861331,-0.04512011,0.2953903,0.09489947,-9.650722999999999,0,0,43.84521,1,1,8009,4004
12967,67982335,0,-0.0237156,-0.07029233,-0.03929721,0.1677797,0.05235228,-9.6738,0,0,43.84533,1,1,8009,4004
12976,67984416,0,0.01009979,-0.01603212,-0.01810862,0.05484749,0.1146059,-9.795581,0,0,43.84546,1,1,8009,4004
12979,67986810,0,0.03243878,0.0410834,0.003288087,-0.2891116,0.2032522,-9.912877999999999,0,0,43.84553,1,1,8009,4004
13014,67989200,0,-0.008441201000000001,0.1154291,0.03049354,-0.5277739,0.2255882,-9.868423,0,0,43.84563,1,1,8009,4004
13017,67992302,0,-0.04575191,0.09601878,0.02921798,-0.6722733,0.3255362,-9.710255999999999,0,0,43.8457,1,1,8009,4004
13020,67994461,0,-0.02665933,-0.0179025,0.002457954,-0.6841539,0.4323756,-9.611117,0,0,43.8458,1,1,8009,4004
13023,67996717,0,0.009575536000000001,-0.07011402,-0.01234869,-0.7053251,0.5022265,-9.519486000000001,0,0,43.84587,1,1,8009,4004
13058,67998963,0,0.02113815,-0.05481505,-0.01325353,-0.6718953,0.5062242,-9.454807000000001,0,0,43.84598,1,1,8009,4004
13062,68001884,0,0.02445363,-0.008836942,-0.004290853,-0.5485067,0.5095589,-9.55223,0,0,43.84604,1,1,8009,4004
13065,68004524,0,0.04871557,0.07719257,0.0155635,-0.3379618,0.5386754,-9.839950999999999,0,0,43.84618,1,1,8009,4004
13068,68007242,0,0.03665503,0.12104,0.02542726,-0.1544533,0.4415324,-9.935247,0,0,43.84626,1,1,8009,4004
13103,68010233,0,-0.02504755,0.04556377,0.002113538,0.137031,0.3064546,-9.832895000000001,0,0,43.84646,1,1,8009,4004
13107,68012640,0,-0.01349669,-0.05226209,-0.02653274,0.3204631,0.2676247,-9.768077999999999,0,0,43.84654,1,1,8009,4004
13110,68014903,0,0.005220302,-0.1225211,-0.04985693,0.3805416,0.1623061,-9.664598,0,0,43.8467,1,1,8009,4004
13113,68018070,0,-0.01303528,-0.1046674,-0.04591971,0.3224244,0.0617893,-9.623599,0,0,43.84679,1,1,8009,4004
13148,68020414,0,-0.009211522,-0.04161754,-0.02410739,0.1968087,0.05606183,-9.778722,0,0,43.84695,1,1,8009,4004
13151,68023859,0,0.02217112,0.05236835,0.008461619,-0.1000281,0.1626182,-10.01875,0,0,43.84706,1,1,8009,4004
13154,68025757,0,-0.005985708,0.1077858,0.02960435,-0.3590907,0.1756334,-10.01451,0,0,43.84715,1,1,8009,4004
13157,68029220,0,-0.06633695000000001,0.08222388,0.03227883,-0.5907428,0.2189362,-9.821151,0,0,43.84726,1,1,8009,4004
13160,68030582,0,-0.03297049,-0.04783016,0.004334178,-0.649205,0.3904336,-9.647441000000001,0,0,43.8474,1,1,8009,4004
13196,68034288,0,0.006040019,-0.09725462,-0.008017269,-0.6901798,0.4566512,-9.553884,0,0,43.84751,1,1,8009,4004
