LineNo,TimeUS,I,GyrX,GyrY,GyrZ,AccX,AccY,AccZ,EG,EA,T,GH,AH,GHz,AHz
185,5.9683e+07,1,-0.0036361,-0.0012704,-0.00038325,-0.24935,-0.12387,-9.7052,0,0,45.359,1,1,754,999
292,5.9712e+07,1,-0.00014721,-0.001561,-0.007755,-0.38034,-0.17725,-9.7828,0,0,45.36,1,1,754,999
323,5.9715e+07,1,-8.4132e-05,-0.00023915,-0.0082817,-0.38739,-0.18647,-9.7906,0,0,45.36,1,1,754,999
404,5.9739e+07,1,-0.0030486,-0.003576,0.0046069,-0.33312,-0.10819,-9.8263,0,0,45.361,1,1,754,999
435,5.9742e+07,1,-0.0038433,-0.0014762,0.0013474,-0.32045,-0.08412,-9.8131,0,0,45.361,1,1,754,999
515,5.9758e+07,1,0.0008915,0.0013382,-0.0039077,-0.33526,-0.050555,-9.7345,0,0,45.361,1,1,754,999
631,5.9779e+07,1,-0.0050058,0.0055052,0.0039952,-0.32795,-0.085073,-9.6657,0,0,45.362,1,1,754,999
746,5.98e+07,1,0.0033657,0.0029983,0.0030319,-0.22417,-0.1107,-9.7474,0,0,45.362,1,1,754,999
861,5.9826e+07,1,-0.00033001,-0.0019625,0.0057211,-0.34315,-0.089264,-9.7883,0,0,45.363,1,1,754,999
979,5.9853e+07,1,0.0024229,0.0018349,0.0013082,-0.24909,-0.066405,-9.7732,0,0,45.363,1,1,754,999
1092,5.9911e+07,1,-0.0049,0.0042349,-0.0032836,-0.37922,-0.12269,-9.761,0,0,45.365,1,1,754,999
1207,6.0015e+07,1,-0.0031067,0.0020037,-0.00032101,-0.35066,-0.058,-9.7895,0,0,45.368,1,1,754,999
1238,6.0017e+07,1,-0.0046415,0.0019161,0.00026099,-0.37206,-0.03736,-9.8057,0,0,45.368,1,1,754,999
1294,6.0044e+07,1,0.00011351,0.0027564,0.0045819,-0.34295,-0.10937,-9.6914,0,0,45.368,1,1,754,999
1327,6.0047e+07,1,-0.0020984,0.00071025,0.00082585,-0.35519,-0.093225,-9.7239,0,0,45.368,1,1,754,999
1388,6.0064e+07,1,-0.0029472,0.0023663,-0.0049085,-0.29713,-0.062029,-9.7816,0,0,45.369,1,1,754,999
1481,6.0085e+07,1,-0.0011912,0.0025784,0.0045238,-0.26273,-0.044146,-9.7535,0,0,45.369,1,1,754,999
1547,6.0089e+07,1,-0.0010642,0.001485,0.0074655,-0.28686,-0.036486,-9.7816,0,0,45.369,1,1,754,999
1550,6.0091e+07,1,0.00041519,0.0010871,0.0064873,-0.29724,-0.039312,-9.8025,0,0,45.369,1,1,754,999
1564,6.0099e+07,1,-0.00026395,0.0024275,5.6097e-06,-0.32963,-0.020375,-9.8374,0,0,45.369,1,1,754,999
1572,6.0102e+07,1,-0.0013291,0.00069371,0.0021052,-0.34684,-0.012931,-9.857,0,0,45.369,1,1,754,999
1603,6.0104e+07,1,-0.0025535,1.6741e-05,0.0033066,-0.36514,-0.0024514,-9.8629,0,0,45.369,1,1,754,999
1606,6.0107e+07,1,-0.0037645,-0.0001613,0.0038516,-0.37069,0.00051838,-9.8512,0,0,45.369,1,1,754,999
1609,6.011e+07,1,-0.0052138,0.0010231,-0.0012213,-0.38443,-0.017245,-9.8215,0,0,45.369,1,1,754,999
1612,6.0112e+07,1,-0.0058503,0.0020637,-0.0046896,-0.39551,-0.031177,-9.8071,0,0,45.369,1,1,754,999
1643,6.0114e+07,1,-0.0076191,0.00324,-0.0069226,-0.39478,-0.046092,-9.7914,0,0,45.369,1,1,754,999
1647,6.0117e+07,1,-0.0061822,0.0022388,-0.0034314,-0.38304,-0.065235,-9.7786,0,0,45.369,1,1,754,999
1651,6.012e+07,1,-0.0047458,0.0012737,-0.0014888,-0.37816,-0.078685,-9.7691,0,0,45.369,1,1,754,999
1654,6.0123e+07,1,-0.00097262,0.00030202,0.0027492,-0.37889,-0.083583,-9.7578,0,0,45.369,1,1,754,999
1685,6.0125e+07,1,-0.00022278,-0.0011857,0.00095822,-0.37339,-0.080426,-9.7774,0,0,45.369,1,1,754,999
1688,6.0128e+07,1,0.00029685,-0.001771,-0.00078902,-0.36779,-0.078686,-9.7758,0,0,45.369,1,1,754,999
1691,6.013e+07,1,-0.001364,0.00065112,0.00020914,-0.35733,-0.071316,-9.7548,0,0,45.369,1,1,754,999
1694,6.0132e+07,1,-0.0023849,0.0022187,0.00046095,-0.35765,-0.065118,-9.7393,0,0,45.369,1,1,754,999
1725,6.0136e+07,1,-0.0035781,0.0091859,-0.0012676,-0.3719,-0.045353,-9.7446,0,0,45.369,1,1,754,999
1729,6.0138e+07,1,-0.0034116,0.0099993,-0.0020661,-0.37998,-0.035316,-9.7449,0,0,45.369,1,1,754,999
1732,6.0141e+07,1,-0.0030061,0.0081747,-0.0034852,-0.3715,-0.03846,-9.7421,0,0,45.369,1,1,754,999
1735,6.0143e+07,1,-0.0013158,0.001057,-0.0030444,-0.35859,-0.047865,-9.7227,0,0,45.369,1,1,754,999
1766,6.0146e+07,1,-0.001292,-0.00092603,-0.0024313,-0.35362,-0.059865,-9.6958,0,0,45.369,1,1,754,999
1769,6.0149e+07,1,-0.0016502,-0.002222,-0.0041963,-0.3511,-0.072904,-9.6648,0,0,45.369,1,1,754,999
1772,6.0153e+07,1,-4.5555e-05,0.00038318,-0.0072578,-0.32288,-0.092537,-9.6799,0,0,45.369,1,1,754,999
1803,6.0156e+07,1,-0.00041755,0.0022656,-0.0073401,-0.3104,-0.084876,-9.6861,0,0,45.369,1,1,754,999
1807,6.0158e+07,1,-3.2326e-05,0.0022983,-0.0054004,-0.30452,-0.054825,-9.69,0,0,45.369,1,1,754,999
1810,6.0161e+07,1,0.0007001,0.00091151,-0.0038357,-0.30309,-0.035591,-9.6994,0,0,45.369,1,1,754,999
1813,6.0164e+07,1,6.1575e-05,-0.0029375,-0.0010236,-0.31659,-0.023941,-9.7291,0,0,45.369,1,1,754,999
1844,6.0166e+07,1,-0.0012533,-0.0027544,0.00094017,-0.34654,-0.022663,-9.7468,0,0,45.369,1,1,754,999
1848,6.0169e+07,1,-0.001983,-0.00098436,0.0041499,-0.35661,-0.029464,-9.7673,0,0,45.369,1,1,754,999
1851,6.0171e+07,1,-0.0015993,0.0015926,0.0037196,-0.35839,-0.043862,-9.8152,0,0,45.369,1,1,754,999
1854,6.0174e+07,1,-0.00098648,0.0030524,0.0022494,-0.35987,-0.045427,-9.8411,0,0,45.369,1,1,754,999
1885,6.0177e+07,1,0.001441,0.0058123,-0.002388,-0.36667,-0.039282,-9.8705,0,0,45.369,1,1,754,999
1888,6.0179e+07,1,0.0023892,0.0037397,-0.0044207,-0.3725,-0.043853,-9.8979,0,0,45.369,1,1,754,999
1891,6.0182e+07,1,0.0027727,0.0015946,-0.0045014,-0.37714,-0.056896,-9.9056,0,0,45.37,1,1,754,999
1894,6.0184e+07,1,0.0045919,-0.0030824,-0.0014154,-0.39062,-0.074711,-9.8841,0,0,45.37,1,1,754,999
1925,6.0187e+07,1,0.0043968,-0.0021343,-0.0023421,-0.40362,-0.079181,-9.8619,0,0,45.37,1,1,754,999
1929,6.019e+07,1,0.003573,-0.0012579,-0.0020246,-0.40528,-0.079597,-9.8661,0,0,45.37,1,1,754,999
1932,6.0192e+07,1,-0.0014352,0.00041763,0.0017979,-0.39451,-0.083198,-9.888,0,0,45.37,1,1,754,999
1935,6.0195e+07,1,-0.0031137,0.00092723,0.0017863,-0.36354,-0.0881,-9.9073,0,0,45.37,1,1,754,999
1966,6.0197e+07,1,-0.0041203,0.0018868,0.0017741,-0.34668,-0.098454,-9.9126,0,0,45.37,1,1,754,999
1970,6.02e+07,1,-0.003502,0.0023176,0.0014109,-0.34298,-0.10227,-9.9188,0,0,45.37,1,1,754,999
1973,6.0202e+07,1,-0.0029355,0.0023128,0.0005559,-0.34292,-0.11317,-9.9274,0,0,45.37,1,1,754,999
1980,6.0205e+07,1,-0.00024186,0.0018416,-0.0035385,-0.33432,-0.13316,-9.9261,0,0,45.37,1,1,754,999
2011,6.0207e+07,1,-0.0014,0.0019458,-0.005765,-0.31832,-0.14678,-9.8948,0,0,45.37,1,1,754,999
2015,6.021e+07,1,-0.0013971,0.0016306,-0.0056474,-0.30846,-0.15568,-9.8608,0,0,45.37,1,1,754,999
2018,6.0212e+07,1,-5.733e-05,-0.00022102,-0.004476,-0.29659,-0.15856,-9.8243,0,0,45.37,1,1,754,999
2022,6.0215e+07,1,0.0010745,-2.9671e-05,-0.0043693,-0.29931,-0.14871,-9.7956,0,0,45.37,1,1,754,999
2055,6.0218e+07,1,0.00248,0.0021415,-0.0038998,-0.31959,-0.11589,-9.7657,0,0,45.37,1,1,754,999
2058,6.022e+07,1,0.0005016,0.0033519,-0.0060576,-0.33553,-0.097644,-9.7773,0,0,45.37,1,1,754,999
2061,6.0223e+07,1,0.00012844,0.0035148,-0.007534,-0.35197,-0.090702,-9.8049,0,0,45.37,1,1,754,999
2064,6.0225e+07,1,-0.00061867,0.0019392,-0.009681,-0.35815,-0.094585,-9.8288,0,0,45.37,1,1,754,999
2095,6.0227e+07,1,-0.0014734,0.0016034,-0.0098482,-0.36083,-0.099374,-9.8616,0,0,45.37,1,1,754,999
2099,6.023e+07,1,-0.0013745,0.0018764,-0.0079585,-0.35834,-0.093793,-9.884,0,0,45.37,1,1,754,999
2102,6.0233e+07,1,-0.0015694,0.0025444,-0.0052041,-0.35771,-0.073302,-9.9172,0,0,45.37,1,1,754,999
2105,6.0236e+07,1,-0.0023358,0.0040316,-0.0045596,-0.35762,-0.055759,-9.9133,0,0,45.37,1,1,754,999
2136,6.0239e+07,1,-0.00055211,0.0038223,-0.0037268,-0.34425,-0.031261,-9.8349,0,0,45.37,1,1,754,999
2140,6.0241e+07,1,-0.0022769,0.0029114,-0.0041645,-0.33741,-0.018877,-9.8041,0,0,45.37,1,1,754,999
2143,6.0243e+07,1,-0.0055969,0.0027421,-0.0048541,-0.32122,-0.010163,-9.7798,0,0,45.37,1,1,754,999
2146,6.0246e+07,1,-0.0047718,0.0027678,-0.0073605,-0.30422,-0.0052266,-9.7671,0,0,45.37,1,1,754,999
2177,6.025e+07,1,-0.0025945,0.0033749,-0.0072105,-0.28417,0.015485,-9.7448,0,0,45.37,1,1,754,999
2180,6.0253e+07,1,-0.0014423,0.0039095,-0.0049516,-0.27826,0.019409,-9.7218,0,0,45.37,1,1,754,999
2183,6.0254e+07,1,-0.00043729,0.0039729,-0.0022609,-0.28107,0.010459,-9.7082,0,0,45.37,1,1,754,999
2186,6.0257e+07,1,-0.00040923,0.0025202,-0.00059869,-0.28432,0.0056638,-9.69,0,0,45.37,1,1,754,999
2217,6.026e+07,1,0.00038069,-0.00090449,0.0019298,-0.29225,-0.0050152,-9.6644,0,0,45.37,1,1,754,999
2220,6.0261e+07,1,0.0018178,-0.0018157,0.00038993,-0.29115,-0.020863,-9.6653,0,0,45.37,1,1,754,999
2224,6.0264e+07,1,0.0036748,-0.002188,-0.00048691,-0.2913,-0.052796,-9.6667,0,0,45.37,1,1,754,999
2228,6.0267e+07,1,0.0028032,-0.0046093,0.0013548,-0.29502,-0.062178,-9.6626,0,0,45.37,1,1,754,999
2259,6.0269e+07,1,0.0023761,-0.0061704,0.004359,-0.29362,-0.082858,-9.654,0,0,45.37,1,1,754,999
2262,6.0272e+07,1,0.0018,-0.0068679,0.0059477,-0.28708,-0.092495,-9.6526,0,0,45.37,1,1,754,999
2265,6.0274e+07,1,-0.0026945,-0.0043812,0.0055408,-0.2872,-0.076618,-9.6518,0,0,45.37,1,1,754,999
2269,6.0277e+07,1,-0.0038217,-0.0034074,0.0046921,-0.29552,-0.054026,-9.6461,0,0,45.37,1,1,754,999
2300,6.028e+07,1,-0.0053179,-0.0032981,0.0017143,-0.31644,-0.012863,-9.6447,0,0,45.37,1,1,754,999
2303,6.0283e+07,1,-0.0055252,-0.0052067,-0.0040769,-0.32782,0.017949,-9.6574,0,0,45.37,1,1,754,999
2306,6.0285e+07,1,-0.0059752,-0.0056218,-0.0048527,-0.33607,0.028663,-9.6639,0,0,45.37,1,1,754,999
2309,6.0288e+07,1,-0.0056841,-0.0031067,-0.0061309,-0.35763,0.022163,-9.6626,0,0,45.37,1,1,754,999
2342,6.0291e+07,1,-0.00071933,0.00065576,-0.0041196,-0.36821,-0.019991,-9.6836,0,0,45.37,1,1,754,999
2345,6.0293e+07,1,-0.00087102,-0.00031105,-0.003623,-0.36757,-0.049075,-9.7069,0,0,45.37,1,1,754,999
2348,6.0295e+07,1,-0.0038028,-0.0045422,-0.0039898,-0.35845,-0.082027,-9.7312,0,0,45.37,1,1,754,999
2352,6.0298e+07,1,-0.0052387,-0.0059783,-0.0050233,-0.35375,-0.0917,-9.7177,0,0,45.37,1,1,754,999
2383,6.0301e+07,1,-0.0060083,-0.0027676,-0.0072514,-0.35032,-0.098103,-9.7176,0,0,45.37,1,1,754,999
2386,6.0303e+07,1,-0.0055728,0.0011936,-0.010078,-0.3429,-0.098251,-9.7238,0,0,45.37,1,1,754,999
2389,6.0306e+07,1,-0.0030358,0.001059,-0.0099508,-0.32165,-0.098418,-9.7408,0,0,45.37,1,1,754,999
2396,6.0308e+07,1,-0.0011067,-0.00057733,-0.01043,-0.30333,-0.099808,-9.7588,0,0,45.37,1,1,754,999
2427,6.0311e+07,1,-0.0015611,-0.0038704,-0.0097786,-0.29493,-0.11595,-9.7785,0,0,45.37,1,1,754,999
2430,6.0313e+07,1,-0.0021476,-0.0050975,-0.0049389,-0.29346,-0.15035,-9.791,0,0,45.37,1,1,754,999
2433,6.0316e+07,1,-0.002792,-0.0022995,-0.00044863,-0.29686,-0.17227,-9.7848,0,0,45.37,1,1,754,999
2438,6.0318e+07,1,-0.0019367,-0.001594,0.00059855,-0.30928,-0.1968,-9.7755,0,0,45.37,1,1,754,999
2471,6.0321e+07,1,-0.00035278,-0.0040491,-0.0020763,-0.3163,-0.18869,-9.774,0,0,45.37,1,1,754,999
2474,6.0324e+07,1,0.00059862,-0.0052633,-0.00097237,-0.32167,-0.17545,-9.7679,0,0,45.371,1,1,754,999
2477,6.0326e+07,1,-0.0011513,-0.0046011,0.00043648,-0.32065,-0.1717,-9.769,0,0,45.371,1,1,754,999
2482,6.0328e+07,1,-0.0025353,-0.0040798,0.0009924,-0.32142,-0.17366,-9.7696,0,0,45.371,1,1,754,999
2513,6.0331e+07,1,-0.0046776,-0.0027803,-0.0020053,-0.33069,-0.17262,-9.759,0,0,45.371,1,1,754,999
2516,6.0333e+07,1,-0.0036173,-0.002968,-0.0024409,-0.3415,-0.16218,-9.7543,0,0,45.371,1,1,754,999
2519,6.0336e+07,1,-0.00076297,-0.0022422,0.00092132,-0.35151,-0.14847,-9.7752,0,0,45.371,1,1,754,999
2522,6.0339e+07,1,0.0018255,-0.0013803,0.0051649,-0.35135,-0.13493,-9.7917,0,0,45.371,1,1,754,999
2553,6.0342e+07,1,0.0022551,-0.0017294,0.006132,-0.35822,-0.12352,-9.7961,0,0,45.371,1,1,754,999
2556,6.0345e+07,1,0.002135,-0.0041445,0.0056786,-0.36769,-0.11809,-9.7981,0,0,45.371,1,1,754,999
2559,6.0347e+07,1,0.0019187,-0.0036208,0.0052124,-0.37501,-0.11275,-9.7927,0,0,45.371,1,1,754,999
2562,6.0349e+07,1,0.000249,-0.0016896,0.0030375,-0.3779,-0.099185,-9.7819,0,0,45.371,1,1,754,999
2593,6.0353e+07,1,-0.0013835,-0.0012244,-0.001131,-0.37022,-0.095812,-9.7696,0,0,45.371,1,1,754,999
2596,6.0356e+07,1,-0.0024456,-0.0011504,-0.0022406,-0.35891,-0.097116,-9.77,0,0,45.371,1,1,754,999
2599,6.0357e+07,1,-0.0042522,0.0010127,-0.0054744,-0.34481,-0.091226,-9.7849,0,0,45.371,1,1,754,999
2602,6.036e+07,1,-0.0047215,0.0033403,-0.0061284,-0.3363,-0.077244,-9.7959,0,0,45.371,1,1,754,999
2633,6.0362e+07,1,-0.005183,0.0044036,-0.0061976,-0.31834,-0.042555,-9.7996,0,0,45.371,1,1,754,999
2636,6.0365e+07,1,-0.00394,0.0044225,-0.003896,-0.3016,-0.018583,-9.8045,0,0,45.371,1,1,754,999
2639,6.0368e+07,1,-0.0023476,0.0045238,-0.0035642,-0.2792,0.0013298,-9.8007,0,0,45.371,1,1,754,999
2643,6.037e+07,1,-0.0020714,0.004481,-0.0031663,-0.2741,0.0013867,-9.7937,0,0,45.371,1,1,754,999
2674,6.0372e+07,1,-0.0055881,0.0058035,-0.0028345,-0.28808,-0.0033912,-9.7741,0,0,45.371,1,1,754,999
2677,6.0374e+07,1,-0.0057643,0.0061278,-0.0038138,-0.29748,-0.015559,-9.7604,0,0,45.371,1,1,754,999
2680,6.0377e+07,1,-0.0034099,0.0049188,-0.0023022,-0.30397,-0.031234,-9.7534,0,0,45.371,1,1,754,999
2684,6.038e+07,1,-0.0014546,0.0025722,0.0011918,-0.31065,-0.040905,-9.7357,0,0,45.371,1,1,754,999
2715,6.0383e+07,1,-0.003416,0.00022095,0.0037026,-0.32724,-0.034796,-9.7076,0,0,45.371,1,1,754,999
2718,6.0385e+07,1,-0.0040484,-0.0010755,0.0041405,-0.33557,-0.031015,-9.6992,0,0,45.371,1,1,754,999
2721,6.0388e+07,1,-0.0036344,-0.00012363,0.0045713,-0.34358,-0.03044,-9.6961,0,0,45.371,1,1,754,999
2725,6.039e+07,1,-0.0040802,0.0010579,0.0047914,-0.34786,-0.038905,-9.6986,0,0,45.371,1,1,754,999
2756,6.0393e+07,1,-0.0030582,-0.00035839,-0.00078665,-0.34683,-0.04436,-9.7033,0,0,45.371,1,1,754,999
2759,6.0396e+07,1,-0.0016745,-0.0014201,-0.0022534,-0.34438,-0.040969,-9.7072,0,0,45.371,1,1,754,999
2762,6.0398e+07,1,9.1522e-05,-0.0025324,-0.0049782,-0.34416,-0.055747,-9.7314,0,0,45.371,1,1,754,999
2766,6.0401e+07,1,0.00025808,-0.0012852,-0.0053133,-0.34331,-0.06953,-9.7393,0,0,45.371,1,1,754,999
2797,6.0403e+07,1,-0.0025011,0.00062256,-0.0047121,-0.35576,-0.071079,-9.7469,0,0,45.371,1,1,754,999
2800,6.0406e+07,1,-0.0034105,0.0019412,-0.002679,-0.36222,-0.059328,-9.7406,0,0,45.371,1,1,754,999
2803,6.0408e+07,1,-0.0012169,0.0020549,-0.0004292,-0.36762,-0.055451,-9.727,0,0,45.371,1,1,754,999
2810,6.0411e+07,1,0.00029705,0.0019919,-0.00044264,-0.38412,-0.060117,-9.7109,0,0,45.371,1,1,754,999
2841,6.0413e+07,1,0.0045364,0.0016171,-0.00054531,-0.39669,-0.064634,-9.6993,0,0,45.371,1,1,754,999
2844,6.0416e+07,1,0.0047784,-0.00020369,-0.00088461,-0.41192,-0.074643,-9.6966,0,0,45.371,1,1,754,999
2847,6.0418e+07,1,0.0019601,-0.0034149,-0.0041781,-0.42691,-0.09085,-9.7137,0,0,45.371,1,1,754,999
2852,6.0421e+07,1,-0.0026545,-0.0046673,-0.0073022,-0.42819,-0.10304,-9.7283,0,0,45.371,1,1,754,999
2883,6.0424e+07,1,-0.0049081,-0.0026667,-0.0076105,-0.43303,-0.1145,-9.7436,0,0,45.371,1,1,754,999
2887,6.0426e+07,1,-0.0077988,0.0027468,-0.0024714,-0.42335,-0.10993,-9.764,0,0,45.371,1,1,754,999
2890,6.0429e+07,1,-0.0082284,0.0035631,-0.0014184,-0.40807,-0.099233,-9.7734,0,0,45.371,1,1,754,999
2893,6.0431e+07,1,-0.0067523,0.0045151,-0.0013268,-0.38428,-0.076145,-9.7889,0,0,45.371,1,1,754,999
2924,6.0434e+07,1,-0.0016222,0.0078362,-0.0003806,-0.37624,-0.068514,-9.8103,0,0,45.372,1,1,754,999
2927,6.0436e+07,1,-0.00076678,0.0064651,0.00033453,-0.37102,-0.072507,-9.8114,0,0,45.372,1,1,754,999
2930,6.0439e+07,1,0.00088209,0.00080096,0.002283,-0.3576,-0.076648,-9.8075,0,0,45.372,1,1,754,999
2934,6.0442e+07,1,0.0020004,-0.0024804,0.0035157,-0.33154,-0.086373,-9.8032,0,0,45.372,1,1,754,999
2967,6.0445e+07,1,0.0040012,-0.0023846,0.0030148,-0.31585,-0.098625,-9.8066,0,0,45.372,1,1,754,999
2970,6.0447e+07,1,0.0056406,-0.00033397,0.001447,-0.31617,-0.10541,-9.8061,0,0,45.372,1,1,754,999
2973,6.045e+07,1,0.0026954,0.0011987,5.3656e-05,-0.33183,-0.094882,-9.7876,0,0,45.372,1,1,754,999
2976,6.0455e+07,1,-0.0013962,0.0040603,0.00020625,-0.37707,-0.062642,-9.7594,0,0,45.372,1,1,754,999
3007,6.0458e+07,1,-0.0027672,0.0015267,0.0036578,-0.38234,-0.09573,-9.732,0,0,45.372,1,1,754,999
3010,6.046e+07,1,-0.0027479,-0.0038649,0.0058394,-0.35924,-0.15606,-9.7035,0,0,45.372,1,1,754,999
3014,6.0462e+07,1,-0.0014364,-0.0051851,0.0053599,-0.33715,-0.18625,-9.6961,0,0,45.372,1,1,754,999
3017,6.0465e+07,1,-0.00086014,-0.0038462,0.0046705,-0.31349,-0.20087,-9.7112,0,0,45.372,1,1,754,999
3048,6.0469e+07,1,-0.00071337,0.0014365,-0.0014949,-0.29411,-0.20597,-9.7497,0,0,45.372,1,1,754,999
3051,6.0471e+07,1,-0.00064883,0.0028512,-0.0043804,-0.28396,-0.19646,-9.7508,0,0,45.372,1,1,754,999
3055,6.0473e+07,1,-0.00077202,0.0042192,-0.0053859,-0.28111,-0.18684,-9.7444,0,0,45.372,1,1,754,999
3058,6.0475e+07,1,0.00060232,0.0044556,-0.0033183,-0.29039,-0.18235,-9.743,0,0,45.372,1,1,754,999
3089,6.0478e+07,1,0.00077474,0.0030359,-0.00059078,-0.30063,-0.15202,-9.7505,0,0,45.372,1,1,754,999
3092,6.0481e+07,1,0.0014061,0.002902,0.00034338,-0.30456,-0.11657,-9.7621,0,0,45.372,1,1,754,999
3095,6.0483e+07,1,0.00094153,0.0027326,0.00069009,-0.31613,-0.083444,-9.7636,0,0,45.372,1,1,754,999
3099,6.0486e+07,1,-0.0030918,0.001258,9.4557e-05,-0.33432,-0.051338,-9.7567,0,0,45.372,1,1,754,999
3130,6.0488e+07,1,-0.0060388,-0.00056866,-4.7542e-05,-0.33711,-0.044241,-9.7406,0,0,45.372,1,1,754,999
3133,6.049e+07,1,-0.0053893,-0.00085156,-0.0021579,-0.33733,-0.048935,-9.7419,0,0,45.372,1,1,754,999
3137,6.0493e+07,1,-0.0038354,-0.0004224,-0.0023181,-0.33415,-0.049111,-9.7489,0,0,45.372,1,1,754,999
3140,6.0495e+07,1,0.0017403,0.0010359,-0.0007899,-0.33575,-0.04639,-9.7582,0,0,45.372,1,1,754,999
3171,6.0498e+07,1,0.0027979,0.0010709,-0.0033599,-0.33268,-0.044047,-9.7651,0,0,45.372,1,1,754,999
3174,6.0501e+07,1,0.0034563,0.0011406,-0.0041469,-0.32686,-0.043661,-9.7823,0,0,45.372,1,1,754,999
3177,6.0503e+07,1,0.0039969,0.0014564,-0.0040276,-0.32078,-0.040993,-9.8011,0,0,45.372,1,1,754,999
3180,6.0505e+07,1,0.0038164,0.0022815,-0.0039548,-0.31561,-0.045169,-9.8214,0,0,45.372,1,1,754,999
3211,6.0508e+07,1,0.0034201,0.0047436,-0.0039966,-0.31445,-0.057124,-9.8199,0,0,45.372,1,1,754,999
3214,6.051e+07,1,0.0033769,0.0065094,-0.0018481,-0.31535,-0.066535,-9.8078,0,0,45.372,1,1,754,999
3222,6.0514e+07,1,0.002967,0.007113,-0.00073457,-0.31263,-0.078698,-9.7858,0,0,45.372,1,1,754,999
3225,6.0516e+07,1,0.00084633,0.0048143,0.0032523,-0.30737,-0.09782,-9.7234,0,0,45.372,1,1,754,999
3256,6.0518e+07,1,-0.00049662,0.0027073,0.0050869,-0.31193,-0.10458,-9.6706,0,0,45.372,1,1,754,999
3260,6.0521e+07,1,0.00029129,0.0024802,0.0037001,-0.32333,-0.10931,-9.6539,0,0,45.372,1,1,754,999
3263,6.0523e+07,1,0.00036736,0.00090206,0.00074992,-0.34106,-0.10575,-9.6437,0,0,45.372,1,1,754,999
3266,6.0526e+07,1,-0.00077685,0.00037474,-0.00014764,-0.34183,-0.094617,-9.6265,0,0,45.372,1,1,754,999
3297,6.0529e+07,1,-0.0031993,-0.00056355,-0.001031,-0.33871,-0.079185,-9.6035,0,0,45.372,1,1,754,999
3300,6.0531e+07,1,-0.0018252,0.0019908,0.0013181,-0.3273,-0.080333,-9.5999,0,0,45.372,1,1,754,999
3304,6.0534e+07,1,-0.0013117,0.0036177,0.0026206,-0.31735,-0.074649,-9.6128,0,0,45.373,1,1,754,999
3307,6.0536e+07,1,-0.0036343,0.0046991,0.0045119,-0.31556,-0.064692,-9.6467,0,0,45.373,1,1,754,999
3338,6.0539e+07,1,-0.0047748,0.0047409,0.0040827,-0.32027,-0.061738,-9.6652,0,0,45.373,1,1,754,999
3341,6.0542e+07,1,-0.0054221,0.0046355,0.0020931,-0.30653,-0.06614,-9.6824,0,0,45.373,1,1,754,999
3345,6.0544e+07,1,-0.0036535,0.0032875,0.0010848,-0.28687,-0.065482,-9.6784,0,0,45.373,1,1,754,999
3348,6.0546e+07,1,-0.0013203,0.001227,0.0028397,-0.2646,-0.060852,-9.6829,0,0,45.373,1,1,754,999
3381,6.055e+07,1,-0.00027207,-0.0043681,0.0045523,-0.2683,-0.042698,-9.713,0,0,45.373,1,1,754,999
3384,6.0551e+07,1,-0.0013464,-0.0053045,0.0029602,-0.2789,-0.029901,-9.7233,0,0,45.373,1,1,754,999
3388,6.0554e+07,1,-0.0025783,-0.0031733,0.0012747,-0.2904,-0.026321,-9.7208,0,0,45.373,1,1,754,999
3391,6.0556e+07,1,-0.0022658,0.00056141,-0.00091212,-0.30526,-0.036925,-9.7065,0,0,45.373,1,1,754,999
3422,6.0558e+07,1,-0.00059823,-0.00022181,-0.00072073,-0.31546,-0.052706,-9.7138,0,0,45.373,1,1,754,999
3425,6.0562e+07,1,0.0024432,-0.0038208,0.0022153,-0.33751,-0.076824,-9.7419,0,0,45.373,1,1,754,999
3429,6.0566e+07,1,0.002913,0.0022676,0.0016706,-0.39611,-0.1098,-9.7878,0,0,45.373,1,1,754,999
3460,6.0569e+07,1,0.0042511,0.0034987,-0.00040055,-0.4279,-0.11187,-9.7987,0,0,45.373,1,1,754,999
3464,6.0572e+07,1,0.00498,0.0032726,-0.00034883,-0.43578,-0.11915,-9.806,0,0,45.373,1,1,754,999
3467,6.0575e+07,1,0.0064481,0.0018642,0.00093227,-0.43834,-0.14218,-9.8084,0,0,45.373,1,1,754,999
3470,6.0577e+07,1,0.0063766,-0.00045311,0.0019678,-0.43501,-0.1494,-9.8062,0,0,45.373,1,1,754,999
3501,6.0579e+07,1,0.0026591,-0.00018848,0.0013617,-0.42685,-0.14539,-9.788,0,0,45.373,1,1,754,999
3504,6.0581e+07,1,-0.001895,0.00086881,-0.00027403,-0.41931,-0.14267,-9.7702,0,0,45.373,1,1,754,999
3508,6.0584e+07,1,-0.005225,0.0021691,-0.0026907,-0.40788,-0.13452,-9.7452,0,0,45.373,1,1,754,999
3511,6.0587e+07,1,-0.0051181,0.004194,-0.0036478,-0.40221,-0.12702,-9.7348,0,0,45.373,1,1,754,999
3542,6.059e+07,1,-6.0735e-06,0.010118,-0.0031821,-0.3809,-0.10591,-9.7338,0,0,45.374,1,1,754,999
3545,6.0593e+07,1,0.0042619,0.0095772,-0.0031621,-0.35394,-0.091529,-9.7613,0,0,45.374,1,1,754,999
3548,6.0594e+07,1,0.0061109,0.0080314,-0.0029434,-0.33242,-0.092843,-9.7732,0,0,45.374,1,1,754,999
3551,6.0598e+07,1,0.0074582,0.0024611,0.00055243,-0.3074,-0.10222,-9.7678,0,0,45.374,1,1,754,999
3582,6.06e+07,1,0.0057903,0.00089968,0.0040919,-0.29627,-0.12655,-9.7782,0,0,45.374,1,1,754,999
3585,6.0602e+07,1,0.0035375,0.0012031,0.0033231,-0.29696,-0.14732,-9.7826,0,0,45.374,1,1,754,999
3589,6.0605e+07,1,0.0016362,0.0030798,0.00087392,-0.30217,-0.16188,-9.7795,0,0,45.374,1,1,754,999
3592,6.0608e+07,1,0.00070675,0.0033278,-1.9052e-05,-0.306,-0.15466,-9.7793,0,0,45.374,1,1,754,999
3623,6.0611e+07,1,-0.0010876,0.002375,9.665e-05,-0.31487,-0.12301,-9.7992,0,0,45.374,1,1,754,999
3626,6.0613e+07,1,-0.0041794,0.0022375,-0.00056421,-0.31857,-0.10393,-9.8245,0,0,45.374,1,1,754,999
3633,6.0616e+07,1,-0.0056183,0.0021567,-0.0011704,-0.32151,-0.09602,-9.8282,0,0,45.374,1,1,754,999
3636,6.0618e+07,1,-0.007944,0.0010871,0.0012152,-0.31605,-0.088703,-9.7803,0,0,45.374,1,1,754,999
3667,6.0621e+07,1,-0.0060925,0.00095501,0.0030362,-0.31525,-0.073009,-9.7001,0,0,45.375,1,1,754,999
3671,6.0623e+07,1,-0.0052824,0.0023614,0.0023545,-0.32015,-0.056557,-9.6665,0,0,45.375,1,1,754,999
3675,6.0626e+07,1,-0.0054713,0.0063834,-0.0025807,-0.33206,-0.042863,-9.6364,0,0,45.375,1,1,754,999
3678,6.0629e+07,1,-0.0053725,0.0045558,-0.0038578,-0.33514,-0.043226,-9.626,0,0,45.375,1,1,754,999
3709,6.0632e+07,1,-0.0036953,-0.00062184,-0.0046546,-0.34215,-0.050459,-9.6325,0,0,45.375,1,1,754,999
3712,6.0634e+07,1,-0.002392,-0.002277,-0.0058185,-0.35207,-0.061581,-9.6511,0,0,45.375,1,1,754,999
3716,6.0636e+07,1,0.00018308,-0.0048771,-0.0069355,-0.35738,-0.066898,-9.6804,0,0,45.375,1,1,754,999
3719,6.0639e+07,1,0.0022343,-0.0048348,-0.0030074,-0.35047,-0.062706,-9.6981,0,0,45.375,1,1,754,999
3750,6.0641e+07,1,0.0039471,-0.0037977,0.001455,-0.33701,-0.073627,-9.7344,0,0,45.375,1,1,754,999
3753,6.0644e+07,1,0.0049539,-0.0021485,0.0051799,-0.3334,-0.081766,-9.7655,0,0,45.375,1,1,754,999
3756,6.0646e+07,1,0.0048438,0.00041108,0.0070511,-0.33483,-0.092345,-9.8231,0,0,45.375,1,1,754,999
3761,6.0649e+07,1,0.004695,0.00092998,0.0071431,-0.33813,-0.094567,-9.8483,0,0,45.375,1,1,754,999
3792,6.0652e+07,1,0.0032151,0.0031775,0.0038855,-0.34283,-0.10448,-9.8578,0,0,45.375,1,1,754,999
3795,6.0656e+07,1,-0.00037274,0.003681,0.00012298,-0.34453,-0.139,-9.853,0,0,45.376,1,1,754,999
3798,6.066e+07,1,-0.0059514,1.7463e-05,-0.0044141,-0.32675,-0.18078,-9.8082,0,0,45.376,1,1,754,999
3829,6.0663e+07,1,-0.0035636,-0.0014268,-0.0042854,-0.33128,-0.18476,-9.7994,0,0,45.376,1,1,754,999
3832,6.0665e+07,1,-0.0030908,-0.0015714,-0.0049183,-0.3411,-0.17201,-9.7883,0,0,45.376,1,1,754,999
3836,6.0668e+07,1,-0.003555,-0.00042356,-0.0068858,-0.35117,-0.13562,-9.767,0,0,45.376,1,1,754,999
3839,6.0671e+07,1,-0.0030206,0.00011464,-0.0065986,-0.34829,-0.12626,-9.7595,0,0,45.376,1,1,754,999
3870,6.0673e+07,1,0.00095686,0.0017044,-0.0044926,-0.3411,-0.11418,-9.7662,0,0,45.376,1,1,754,999
3873,6.0676e+07,1,0.0038195,0.00039031,-0.0020533,-0.33697,-0.10694,-9.7756,0,0,45.376,1,1,754,999
3876,6.0679e+07,1,0.0047068,0.00020439,0.0017876,-0.34043,-0.095287,-9.7872,0,0,45.376,1,1,754,999
3879,6.0681e+07,1,0.0026065,-8.7962e-05,0.0042434,-0.33869,-0.093832,-9.7783,0,0,45.376,1,1,754,999
3910,6.0684e+07,1,-0.0023228,0.00037103,0.0049626,-0.33041,-0.10815,-9.7626,0,0,45.376,1,1,754,999
3913,6.0686e+07,1,-0.0033353,0.0008801,0.0049075,-0.32897,-0.11625,-9.7548,0,0,45.376,1,1,754,999
3916,6.0688e+07,1,-0.0011648,-0.0015861,0.0027315,-0.3403,-0.10181,-9.7406,0,0,45.377,1,1,754,999
3919,6.0691e+07,1,-0.00052034,-0.0033708,0.0021461,-0.35557,-0.087924,-9.7253,0,0,45.377,1,1,754,999
3950,6.0693e+07,1,-0.00059471,-0.0056203,0.0037,-0.37716,-0.079209,-9.6981,0,0,45.377,1,1,754,999
3954,6.0697e+07,1,-0.0055931,-0.0056708,0.005052,-0.39455,-0.094987,-9.6801,0,0,45.377,1,1,754,999
3958,6.0699e+07,1,-0.0074935,-0.0047211,0.0038432,-0.39753,-0.10967,-9.6831,0,0,45.377,1,1,754,999
3961,6.0701e+07,1,-0.006804,-0.0011226,0.00038944,-0.38117,-0.14102,-9.703,0,0,45.377,1,1,754,999
3992,6.0704e+07,1,-0.0022181,0.0036118,-0.0024956,-0.36516,-0.16519,-9.7198,0,0,45.377,1,1,754,999
3996,6.0706e+07,1,0.00082414,0.0073617,-0.0020212,-0.34067,-0.17941,-9.733,0,0,45.377,1,1,754,999
3999,6.0709e+07,1,0.0017236,0.0069212,-0.0027285,-0.33854,-0.1706,-9.7452,0,0,45.377,1,1,754,999
4002,6.0711e+07,1,0.0029094,0.0054905,-0.0027794,-0.34331,-0.13867,-9.7457,0,0,45.378,1,1,754,999
4033,6.0713e+07,1,0.003285,0.0047648,-0.0014435,-0.34975,-0.11294,-9.738,0,0,45.378,1,1,754,999
4036,6.0716e+07,1,0.0022565,0.0057146,0.0018092,-0.35585,-0.079468,-9.7164,0,0,45.378,1,1,754,999
4043,6.0719e+07,1,0.00099421,0.0065627,0.0017482,-0.36224,-0.083478,-9.7109,0,0,45.378,1,1,754,999
4048,6.0721e+07,1,-0.0026359,0.0077069,-0.00010713,-0.37822,-0.10741,-9.7174,0,0,45.378,1,1,754,999
4079,6.0724e+07,1,-0.0053692,0.0086941,-0.0050849,-0.38851,-0.12869,-9.7324,0,0,45.378,1,1,754,999
4083,6.0727e+07,1,-0.0056277,0.007964,-0.0058555,-0.38475,-0.14519,-9.7457,0,0,45.378,1,1,754,999
4087,6.0729e+07,1,-0.0035657,0.0044071,-0.0072157,-0.38,-0.16091,-9.7502,0,0,45.378,1,1,754,999
4090,6.0732e+07,1,-0.0028695,0.0035842,-0.0063939,-0.37505,-0.15999,-9.7369,0,0,45.378,1,1,754,999
4121,6.0735e+07,1,-0.0019877,0.001097,-0.0023765,-0.36809,-0.1587,-9.6936,0,0,45.378,1,1,754,999
4124,6.0737e+07,1,-0.0011729,-0.0027357,0.0022805,-0.36014,-0.1504,-9.6705,0,0,45.378,1,1,754,999
4128,6.074e+07,1,-0.0010983,-0.0067217,0.0047826,-0.35101,-0.14288,-9.6717,0,0,45.378,1,1,754,999
4132,6.0742e+07,1,0.00030881,-0.0064716,0.004143,-0.34259,-0.14382,-9.6897,0,0,45.378,1,1,754,999
4163,6.0745e+07,1,0.0028385,-0.0036507,0.0031203,-0.3218,-0.14233,-9.7223,0,0,45.379,1,1,754,999
4167,6.0748e+07,1,0.0037451,-0.0026867,0.0023213,-0.31229,-0.13597,-9.7208,0,0,45.379,1,1,754,999
4170,6.075e+07,1,0.0013326,-0.00041709,-3.626e-05,-0.3043,-0.12584,-9.7032,0,0,45.379,1,1,754,999
4173,6.0752e+07,1,-0.0001107,0.0019548,-0.0005179,-0.29235,-0.12501,-9.6992,0,0,45.379,1,1,754,999
4204,6.0754e+07,1,-0.0023358,0.005421,-0.00092629,-0.27353,-0.11339,-9.696,0,0,45.379,1,1,754,999
4207,6.0757e+07,1,-0.0021454,0.0068638,-0.00094062,-0.27269,-0.10869,-9.6972,0,0,45.379,1,1,754,999
4210,6.0764e+07,1,7.9752e-05,0.0032777,-0.0037461,-0.31308,-0.1027,-9.7531,0,0,45.379,1,1,754,999
4213,6.0765e+07,1,0.0033443,0.0014437,-0.0013594,-0.33072,-0.087121,-9.7708,0,0,45.38,1,1,754,999
4245,6.0767e+07,1,0.0038029,0.0020201,-9.052e-05,-0.34508,-0.078322,-9.7746,0,0,45.38,1,1,754,999
4248,6.077e+07,1,0.0041309,0.0025547,1.5435e-05,-0.36527,-0.073989,-9.7757,0,0,45.38,1,1,754,999
4251,6.0773e+07,1,0.0034099,0.00253,-0.00039418,-0.38154,-0.055976,-9.795,0,0,45.38,1,1,754,999
4254,6.0776e+07,1,0.00020705,0.001146,-0.0014018,-0.3827,-0.040185,-9.811,0,0,45.38,1,1,754,999
4285,6.0778e+07,1,-0.0030318,-0.00025514,-0.0018509,-0.36258,-0.020068,-9.819,0,0,45.38,1,1,754,999
4289,6.0781e+07,1,-0.0035956,0.00043448,-0.0020583,-0.35337,-0.022516,-9.8146,0,0,45.38,1,1,754,999
4292,6.0784e+07,1,-0.0034605,0.0021682,-0.0029223,-0.35088,-0.03588,-9.8112,0,0,45.38,1,1,754,999
4295,6.0786e+07,1,-0.00060063,0.00087951,-0.0053789,-0.35412,-0.042193,-9.8085,0,0,45.38,1,1,754,999
4328,6.0789e+07,1,0.0013861,-0.0005306,-0.0060113,-0.36512,-0.061559,-9.8045,0,0,45.381,1,1,754,999
4332,6.0791e+07,1,0.002017,0.00033583,-0.0053376,-0.37728,-0.067681,-9.8055,0,0,45.381,1,1,754,999
4335,6.0793e+07,1,0.0040705,-0.00013554,-0.0039462,-0.3809,-0.08176,-9.805,0,0,45.381,1,1,754,999
4338,6.0796e+07,1,0.004781,-0.0010099,-0.0033356,-0.36859,-0.10076,-9.7922,0,0,45.381,1,1,754,999
4369,6.0799e+07,1,0.0035675,-0.0023834,-0.002833,-0.34151,-0.14734,-9.796,0,0,45.381,1,1,754,999
4373,6.0801e+07,1,0.0010699,-0.0041344,-0.0018258,-0.33619,-0.15851,-9.8248,0,0,45.381,1,1,754,999
4376,6.0804e+07,1,-3.8788e-05,-0.004377,-0.00082527,-0.33365,-0.16229,-9.8561,0,0,45.381,1,1,754,999
4379,6.0807e+07,1,5.764e-05,-0.0022525,0.0013059,-0.33121,-0.16526,-9.8679,0,0,45.381,1,1,754,999
4410,6.0809e+07,1,0.0014116,0.00020826,-0.0014062,-0.32733,-0.1783,-9.853,0,0,45.381,1,1,754,999
4413,6.0812e+07,1,0.0013649,0.00070085,-0.0036202,-0.33219,-0.18757,-9.835,0,0,45.381,1,1,754,999
4416,6.0815e+07,1,0.00082986,8.3283e-06,-0.0027467,-0.34419,-0.18343,-9.8182,0,0,45.381,1,1,754,999
4419,6.0817e+07,1,0.00035146,-0.00077346,-0.0014267,-0.35165,-0.17617,-9.8252,0,0,45.381,1,1,754,999
4450,6.082e+07,1,-0.0044687,-0.0015446,0.00082619,-0.36229,-0.15537,-9.8149,0,0,45.382,1,1,754,999
4458,6.0822e+07,1,-0.0080533,-0.00067117,0.0010594,-0.38135,-0.12779,-9.7751,0,0,45.382,1,1,754,999
4461,6.0824e+07,1,-0.0089862,-5.2939e-05,0.00059334,-0.38923,-0.12084,-9.7572,0,0,45.382,1,1,754,999
4464,6.0828e+07,1,-0.010106,0.0019775,-0.005476,-0.39641,-0.12415,-9.7289,0,0,45.382,1,1,754,999
4495,6.0831e+07,1,-0.0086525,0.0060656,-0.0075531,-0.39315,-0.11649,-9.69,0,0,45.382,1,1,754,999
4499,6.0833e+07,1,-0.0073342,0.0074357,-0.0063812,-0.39274,-0.095038,-9.6605,0,0,45.382,1,1,754,999
4504,6.0836e+07,1,-0.0055821,0.0089809,-0.0017758,-0.3935,-0.064919,-9.6335,0,0,45.382,1,1,754,999
4508,6.0838e+07,1,-0.0050858,0.0077542,-0.0018831,-0.38882,-0.048512,-9.6354,0,0,45.382,1,1,754,999
4539,6.0841e+07,1,-0.0037105,0.004882,-0.0024756,-0.38745,-0.025882,-9.6694,0,0,45.382,1,1,754,999
4542,6.0844e+07,1,0.00095018,0.0068453,-0.000838,-0.38279,-0.010828,-9.7087,0,0,45.383,1,1,754,999
4546,6.0846e+07,1,0.0014974,0.006616,0.00016871,-0.3765,-0.0076601,-9.7334,0,0,45.383,1,1,754,999
4549,6.0848e+07,1,0.0019506,0.0049571,0.0022006,-0.37322,-0.009824,-9.7691,0,0,45.383,1,1,754,999
4580,6.0851e+07,1,0.0034222,0.00223,0.00065676,-0.34901,-0.010871,-9.7855,0,0,45.383,1,1,754,999
4584,6.0855e+07,1,0.0033595,0.00085327,-0.00036978,-0.33383,-0.026605,-9.7802,0,0,45.383,1,1,754,999
4587,6.0857e+07,1,0.00021554,-0.00039113,-0.0030974,-0.31533,-0.04905,-9.7593,0,0,45.383,1,1,754,999
4590,6.0859e+07,1,-0.0044373,0.00012758,-0.004558,-0.30968,-0.05223,-9.7427,0,0,45.383,1,1,754,999
4621,6.0862e+07,1,-0.0073425,-0.00064102,-0.0045351,-0.31213,-0.037604,-9.7079,0,0,45.383,1,1,754,999
4624,6.0864e+07,1,-0.0084319,-0.00076363,-0.0038275,-0.31461,-0.02843,-9.7,0,0,45.383,1,1,754,999
4627,6.0867e+07,1,-0.0075499,-0.0016161,-0.0013443,-0.3098,-0.026025,-9.7017,0,0,45.383,1,1,754,999
4630,6.0872e+07,1,-0.0029343,-0.001527,0.00056831,-0.31665,-0.051476,-9.7028,0,0,45.383,1,1,754,999
4662,6.0874e+07,1,-0.0020193,-4.9844e-05,0.0013291,-0.32227,-0.056839,-9.6982,0,0,45.384,1,1,754,999
4665,6.0877e+07,1,-0.00061963,5.3792e-05,0.0034843,-0.31013,-0.059508,-9.7012,0,0,45.384,1,1,754,999
4668,6.088e+07,1,-0.00098525,-0.0012636,0.0022608,-0.28069,-0.059756,-9.7131,0,0,45.384,1,1,754,999
4671,6.0882e+07,1,-0.0008737,-0.0029224,-0.00024267,-0.26048,-0.05329,-9.7196,0,0,45.384,1,1,754,999
4702,6.0884e+07,1,0.00053533,-0.0054633,-0.0049603,-0.25128,-0.052642,-9.7186,0,0,45.384,1,1,754,999
4706,6.0887e+07,1,0.00066358,-0.0072547,-0.0048553,-0.25252,-0.078943,-9.7066,0,0,45.385,1,1,754,999
4709,6.089e+07,1,0.0012253,-0.007769,-0.0037301,-0.25336,-0.097473,-9.696,0,0,45.385,1,1,754,999
4712,6.0892e+07,1,0.00033619,-0.0082309,0.0020388,-0.26449,-0.10441,-9.6844,0,0,45.385,1,1,754,999
4743,6.0895e+07,1,-6.9796e-05,-0.0063422,-0.00030168,-0.29152,-0.098255,-9.6662,0,0,45.385,1,1,754,999
4747,6.0897e+07,1,-0.00042326,-0.005483,-0.0028054,-0.31315,-0.08339,-9.6673,0,0,45.385,1,1,754,999
4750,6.09e+07,1,-0.001062,-0.0040696,-0.0058182,-0.33753,-0.067348,-9.6819,0,0,45.385,1,1,754,999
4753,6.0902e+07,1,-0.00080498,-0.0030097,-0.0048005,-0.37381,-0.046925,-9.7219,0,0,45.385,1,1,754,999
4784,6.0905e+07,1,0.0013047,-0.00096571,-0.0022926,-0.39049,-0.035667,-9.7551,0,0,45.385,1,1,754,999
4788,6.0908e+07,1,0.0029779,-0.00035656,-0.0015626,-0.41082,-0.022151,-9.7819,0,0,45.386,1,1,754,999
4791,6.091e+07,1,0.003034,-0.00085552,-0.0029426,-0.41186,-0.0078076,-9.775,0,0,45.386,1,1,754,999
4794,6.0912e+07,1,0.0050485,-0.0044331,-0.0019754,-0.40939,0.0081906,-9.7539,0,0,45.386,1,1,754,999
4825,6.0915e+07,1,0.0055161,-0.0057263,-0.0011563,-0.38877,0.019337,-9.717,0,0,45.386,1,1,754,999
4828,6.0918e+07,1,0.0025463,-0.0054617,0.00064768,-0.36824,0.02045,-9.7281,0,0,45.386,1,1,754,999
4831,6.092e+07,1,0.0013153,-0.0053649,0.0013666,-0.36783,0.014297,-9.741,0,0,45.386,1,1,754,999
4834,6.0922e+07,1,-0.00084005,-0.0046663,0.0021392,-0.36642,-0.0085638,-9.7372,0,0,45.386,1,1,754,999
4869,6.0925e+07,1,-0.001306,-0.0022069,-0.00033407,-0.35948,-0.024454,-9.7203,0,0,45.386,1,1,754,999
4873,6.0927e+07,1,-0.00059718,0.0012204,-0.0036347,-0.3484,-0.056171,-9.6907,0,0,45.386,1,1,754,999
4876,6.093e+07,1,0.0017952,0.0023004,-0.004357,-0.34403,-0.086909,-9.679,0,0,45.387,1,1,754,999
4879,6.0933e+07,1,0.003161,0.00041026,-0.0015537,-0.35105,-0.12176,-9.6808,0,0,45.387,1,1,754,999
4910,6.0935e+07,1,0.0015377,0.00059696,-0.0009653,-0.36714,-0.13123,-9.7031,0,0,45.387,1,1,754,999
4913,6.0938e+07,1,-0.00082559,0.003641,-0.0026753,-0.36666,-0.13961,-9.7185,0,0,45.387,1,1,754,999
4916,6.0941e+07,1,-0.0025688,0.0031568,-0.0069057,-0.35892,-0.14808,-9.7423,0,0,45.387,1,1,754,999
4919,6.0942e+07,1,-0.0016797,0.0039249,-0.0086013,-0.33632,-0.16233,-9.7795,0,0,45.387,1,1,754,999
4950,6.0945e+07,1,0.000422,0.0063014,-0.0077048,-0.29517,-0.16913,-9.8292,0,0,45.387,1,1,754,999
4954,6.0947e+07,1,0.00098091,0.0061205,-0.0074102,-0.26764,-0.17356,-9.8637,0,0,45.387,1,1,754,999
4957,6.095e+07,1,0.001427,0.0037504,-0.0079144,-0.24731,-0.17573,-9.8866,0,0,45.387,1,1,754,999
4960,6.0953e+07,1,0.0018629,0.0031463,-0.0070265,-0.23464,-0.15668,-9.9108,0,0,45.388,1,1,754,999
4991,6.0955e+07,1,0.0034114,0.001787,-0.0038547,-0.24257,-0.12192,-9.9469,0,0,45.388,1,1,754,999
4995,6.0958e+07,1,0.0041581,0.0016411,-0.0032432,-0.25292,-0.11246,-9.9555,0,0,45.388,1,1,754,999
4998,6.096e+07,1,0.0033782,0.0016531,-0.0029292,-0.25983,-0.11944,-9.934,0,0,45.388,1,1,754,999
5002,6.0962e+07,1,0.0017282,0.0012816,-0.00072363,-0.26581,-0.12001,-9.9127,0,0,45.389,1,1,754,999
5033,6.0968e+07,1,-0.00041473,0.00028708,0.00085367,-0.30681,-0.12863,-9.8555,0,0,45.389,1,1,754,999
5036,6.0973e+07,1,-3.922e-05,-0.0012103,-0.0013238,-0.36978,-0.14379,-9.8038,0,0,45.389,1,1,754,999
5067,6.0976e+07,1,0.00061895,-0.001814,-0.0012556,-0.39195,-0.14536,-9.7908,0,0,45.389,1,1,754,999
5070,6.0979e+07,1,0.0023661,-0.0042745,0.0043743,-0.41243,-0.14505,-9.7787,0,0,45.389,1,1,754,999
5073,6.0981e+07,1,0.0033393,-0.0060315,0.0074059,-0.415,-0.15416,-9.7678,0,0,45.389,1,1,754,999
5076,6.0983e+07,1,0.0025684,-0.0082472,0.010745,-0.41217,-0.15828,-9.737,0,0,45.389,1,1,754,999
5107,6.0986e+07,1,-0.0003959,-0.0055288,0.0075294,-0.39743,-0.15325,-9.679,0,0,45.39,1,1,754,999
5111,6.0988e+07,1,-0.00092292,-0.0038504,0.0045226,-0.38949,-0.14699,-9.6534,0,0,45.39,1,1,754,999
5114,6.0991e+07,1,-0.00089678,-0.0016061,-0.0063941,-0.38418,-0.14494,-9.6443,0,0,45.39,1,1,754,999
5117,6.0994e+07,1,-0.00091894,-0.0015585,-0.0082264,-0.37971,-0.1505,-9.6366,0,0,45.39,1,1,754,999
5148,6.0996e+07,1,-0.0020149,-0.00039081,-0.0086561,-0.36635,-0.14449,-9.6395,0,0,45.391,1,1,754,999
5151,6.0999e+07,1,-0.0039665,0.0014193,-0.0059963,-0.36292,-0.13472,-9.6489,0,0,45.391,1,1,754,999
5155,6.1002e+07,1,-0.0042786,0.001847,-0.0047571,-0.34892,-0.10674,-9.6858,0,0,45.391,1,1,754,999
5158,6.1005e+07,1,-0.0020424,0.0028594,-0.0020418,-0.33617,-0.098624,-9.7113,0,0,45.391,1,1,754,999
5189,6.1007e+07,1,3.1145e-05,0.003641,-0.00014645,-0.31322,-0.10774,-9.7542,0,0,45.391,1,1,754,999
5192,6.101e+07,1,-0.00050912,0.0037921,-0.0011168,-0.31013,-0.11885,-9.7805,0,0,45.391,1,1,754,999
5196,6.1012e+07,1,-0.0017874,0.0027993,-0.0033073,-0.30601,-0.12757,-9.7928,0,0,45.391,1,1,754,999
5199,6.1015e+07,1,-0.0029254,0.00010611,-0.0043385,-0.29187,-0.13845,-9.7869,0,0,45.391,1,1,754,999
5230,6.1018e+07,1,-0.0020801,-0.0022248,-0.00038328,-0.2756,-0.16206,-9.766,0,0,45.392,1,1,754,999
5233,6.102e+07,1,0.00016366,-0.0034514,0.0061636,-0.27103,-0.18263,-9.7322,0,0,45.392,1,1,754,999
5236,6.1023e+07,1,0.0019973,-0.001473,0.0086149,-0.27118,-0.20184,-9.6981,0,0,45.392,1,1,754,999
5239,6.1025e+07,1,0.002172,-0.00061873,0.008283,-0.27322,-0.20119,-9.6764,0,0,45.392,1,1,754,999
5274,6.1028e+07,1,0.0025232,-0.0012705,0.0044132,-0.26601,-0.19256,-9.6603,0,0,45.392,1,1,754,999
5277,6.103e+07,1,0.0032515,-0.0024411,0.0035644,-0.26357,-0.19198,-9.6604,0,0,45.393,1,1,754,999
5281,6.1032e+07,1,0.0023464,-0.003743,0.0026467,-0.27306,-0.16831,-9.6449,0,0,45.393,1,1,754,999
5285,6.1035e+07,1,0.0011884,-0.0022799,0.0029968,-0.27835,-0.14385,-9.6244,0,0,45.393,1,1,754,999
5316,6.1037e+07,1,-0.00055807,0.0028366,0.0019564,-0.29009,-0.11598,-9.5852,0,0,45.393,1,1,754,999
5321,6.1041e+07,1,0.0032997,0.00556,-0.0020811,-0.31528,-0.1071,-9.5673,0,0,45.393,1,1,754,999
5324,6.1042e+07,1,0.0040162,0.0056736,-0.0032844,-0.32923,-0.10474,-9.5747,0,0,45.393,1,1,754,999
5327,6.1045e+07,1,0.0040789,0.0047027,-0.0046754,-0.34196,-0.10677,-9.6113,0,0,45.393,1,1,754,999
5358,6.1048e+07,1,0.0041454,0.0018527,-0.0042942,-0.34075,-0.10914,-9.6501,0,0,45.393,1,1,754,999
5361,6.105e+07,1,0.0017543,0.00031534,-0.005202,-0.33715,-0.10531,-9.7053,0,0,45.394,1,1,754,999
5365,6.1053e+07,1,-0.0014625,-0.0029982,-0.0052701,-0.33963,-0.10526,-9.7333,0,0,45.394,1,1,754,999
5368,6.1055e+07,1,-0.0029187,-0.0071116,-0.0035201,-0.35135,-0.10589,-9.7695,0,0,45.394,1,1,754,999
5399,6.1057e+07,1,-0.0035475,-0.0085409,-0.0027271,-0.35989,-0.094632,-9.7915,0,0,45.394,1,1,754,999
5402,6.1061e+07,1,-0.0033149,-0.0094166,-0.0018789,-0.35669,-0.082715,-9.8211,0,0,45.394,1,1,754,999
5406,6.1062e+07,1,-0.0027707,-0.009111,-0.0021848,-0.34284,-0.094332,-9.8371,0,0,45.395,1,1,754,999
5409,6.1068e+07,1,0.0044976,0.0016926,-0.0017664,-0.3418,-0.13143,-9.8456,0,0,45.395,1,1,754,999
5440,6.1071e+07,1,0.0043842,0.0041414,-0.00068844,-0.34926,-0.12863,-9.8302,0,0,45.395,1,1,754,999
5444,6.1074e+07,1,0.0026512,0.0040298,0.0015047,-0.35294,-0.11747,-9.8197,0,0,45.396,1,1,754,999
5447,6.1076e+07,1,0.0018779,0.003725,0.00049994,-0.34305,-0.12061,-9.8156,0,0,45.396,1,1,754,999
5450,6.1078e+07,1,0.0018035,0.0046198,-0.0034755,-0.31131,-0.12576,-9.8066,0,0,45.396,1,1,754,999
5481,6.1081e+07,1,0.0025519,0.0073394,-0.0072871,-0.29474,-0.12394,-9.8027,0,0,45.396,1,1,754,999
5485,6.1083e+07,1,0.0031329,0.0070616,-0.0080959,-0.29393,-0.13853,-9.7951,0,0,45.396,1,1,754,999
5488,6.1086e+07,1,0.003767,0.0036141,-0.0063711,-0.29848,-0.14463,-9.7766,0,0,45.396,1,1,754,999
5491,6.1089e+07,1,0.0051627,0.0037318,-0.0043575,-0.30302,-0.13699,-9.7544,0,0,45.396,1,1,754,999
5522,6.1091e+07,1,0.0052534,0.0045919,-0.0034943,-0.30179,-0.1135,-9.7346,0,0,45.396,1,1,754,999
5525,6.1094e+07,1,0.0045163,0.003727,-0.0025305,-0.30504,-0.099246,-9.7289,0,0,45.396,1,1,754,999
5528,6.1097e+07,1,0.0052506,0.002909,-0.0015391,-0.32321,-0.067721,-9.719,0,0,45.397,1,1,754,999
5531,6.1099e+07,1,0.0060207,0.0027387,-0.00025183,-0.33965,-0.04826,-9.7147,0,0,45.397,1,1,754,999
5562,6.1102e+07,1,0.0041758,0.0026368,0.0047852,-0.35164,-0.034566,-9.7162,0,0,45.397,1,1,754,999
5566,6.1104e+07,1,0.0023055,0.0019593,0.005701,-0.34863,-0.028877,-9.7195,0,0,45.397,1,1,754,999
5569,6.1106e+07,1,-0.0002065,0.00078896,0.0045024,-0.3313,-0.032785,-9.7303,0,0,45.398,1,1,754,999
5573,6.1109e+07,1,-8.8681e-05,0.0013559,0.0022446,-0.3176,-0.02496,-9.7255,0,0,45.398,1,1,754,999
5604,6.1112e+07,1,0.00046195,0.003038,-0.0010037,-0.29049,-0.0020553,-9.7341,0,0,45.398,1,1,754,999
5607,6.1115e+07,1,-0.00050585,0.0055763,-0.0067226,-0.26136,0.015059,-9.7662,0,0,45.398,1,1,754,999
5610,6.1117e+07,1,-0.0012951,0.005043,-0.0073946,-0.24897,0.020693,-9.7962,0,0,45.398,1,1,754,999
5613,6.1119e+07,1,-0.0016063,0.0023786,-0.0072533,-0.2604,0.014278,-9.8225,0,0,45.399,1,1,754,999
5647,6.1122e+07,1,0.00030931,0.002101,-0.003625,-0.27362,-0.0092583,-9.824,0,0,45.399,1,1,754,999
5651,6.1124e+07,1,0.0017851,0.0042604,0.00025831,-0.28542,-0.043927,-9.8127,0,0,45.399,1,1,754,999
5654,6.1127e+07,1,0.0021569,0.0050786,0.00043778,-0.29507,-0.057618,-9.802,0,0,45.399,1,1,754,999
5661,6.113e+07,1,0.00098088,0.0048922,-0.0023292,-0.31774,-0.069616,-9.7994,0,0,45.399,1,1,754,999
5692,6.1132e+07,1,-0.0026647,0.0021746,-0.0056725,-0.34758,-0.091716,-9.7969,0,0,45.399,1,1,754,999
5695,6.1135e+07,1,-0.006153,-0.0021417,-0.0109,-0.36259,-0.10522,-9.7806,0,0,45.399,1,1,754,999
5698,6.1138e+07,1,-0.004127,-0.0030544,-0.013454,-0.37001,-0.10335,-9.7616,0,0,45.399,1,1,754,999
5701,6.114e+07,1,-0.0018791,-0.0008511,-0.012558,-0.37003,-0.097043,-9.774,0,0,45.4,1,1,754,999
5732,6.1142e+07,1,0.002853,0.0039996,-0.0048303,-0.36911,-0.1,-9.832,0,0,45.4,1,1,754,999
5736,6.1145e+07,1,0.0039372,0.0037177,-0.001594,-0.36224,-0.10642,-9.878,0,0,45.4,1,1,754,999
5739,6.1147e+07,1,0.0042197,0.0024414,0.0032768,-0.34767,-0.12469,-9.9091,0,0,45.4,1,1,754,999
5742,6.115e+07,1,0.0012662,0.0035791,0.0040273,-0.34346,-0.13112,-9.9067,0,0,45.4,1,1,754,999
5773,6.1153e+07,1,-0.0029217,0.0040013,0.00069571,-0.34129,-0.11687,-9.8978,0,0,45.401,1,1,754,999
5776,6.1155e+07,1,-0.0034905,0.0049452,-0.002842,-0.33526,-0.092306,-9.883,0,0,45.401,1,1,754,999
5780,6.1157e+07,1,-0.0015583,0.0052963,-0.0019893,-0.32766,-0.062576,-9.8729,0,0,45.401,1,1,754,999
5783,6.116e+07,1,-0.0011092,0.0044138,6.5986e-05,-0.31997,-0.036777,-9.8503,0,0,45.401,1,1,754,999
5814,6.1164e+07,1,-0.0039195,0.0042806,0.00039779,-0.32316,0.0089187,-9.8055,0,0,45.401,1,1,754,999
5817,6.1166e+07,1,-0.0064398,0.0018253,-0.0040408,-0.33274,0.034316,-9.7657,0,0,45.401,1,1,754,999
5820,6.1168e+07,1,-0.0043179,-0.0030089,-0.0055839,-0.32993,0.026325,-9.7405,0,0,45.401,1,1,754,999
5823,6.117e+07,1,-0.00036865,-0.0053432,-0.0025484,-0.31305,-0.019363,-9.6957,0,0,45.401,1,1,754,999
5854,6.1177e+07,1,-0.0018456,0.0012236,-0.00062609,-0.2963,-0.13243,-9.7095,0,0,45.402,1,1,754,999
5857,6.1179e+07,1,-0.0042688,0.0063177,-0.0010792,-0.30708,-0.16006,-9.7097,0,0,45.402,1,1,754,999
5861,6.1181e+07,1,-0.0045887,0.0079019,-0.0015706,-0.32367,-0.17539,-9.7027,0,0,45.402,1,1,754,999
5892,6.1183e+07,1,-0.0043749,0.0069779,-0.004143,-0.3445,-0.18299,-9.6833,0,0,45.402,1,1,754,999
5895,6.1186e+07,1,-0.0032404,0.0039953,-0.0034751,-0.34964,-0.18407,-9.6797,0,0,45.402,1,1,754,999
5898,6.1189e+07,1,-0.0026811,0.0031165,-0.0031347,-0.361,-0.17724,-9.6887,0,0,45.402,1,1,754,999
5901,6.1191e+07,1,-0.002544,0.0021709,-0.0015897,-0.37065,-0.16347,-9.7109,0,0,45.402,1,1,754,999
5932,6.1193e+07,1,-0.0037034,0.0018787,0.0008815,-0.3838,-0.15473,-9.7215,0,0,45.402,1,1,754,999
5935,6.1196e+07,1,-0.0032659,0.00081352,0.0028837,-0.38531,-0.14485,-9.7054,0,0,45.403,1,1,754,999
5938,6.1199e+07,1,-0.0013993,0.00044937,0.0027641,-0.38347,-0.13132,-9.6918,0,0,45.403,1,1,754,999
5941,6.1202e+07,1,-0.00041856,0.002421,0.0011705,-0.37233,-0.12059,-9.6651,0,0,45.403,1,1,754,999
5972,6.1204e+07,1,-0.0014781,0.007394,-0.0023779,-0.34504,-0.11028,-9.6425,0,0,45.403,1,1,754,999
5976,6.1207e+07,1,-0.001104,0.0093923,-0.0025989,-0.33343,-0.10948,-9.6395,0,0,45.404,1,1,754,999
5980,6.1209e+07,1,0.00083189,0.01133,-0.0021984,-0.31685,-0.095485,-9.6593,0,0,45.404,1,1,754,999
5983,6.1212e+07,1,0.00045841,0.0082997,-0.0036334,-0.31611,-0.082181,-9.6836,0,0,45.404,1,1,754,999
6014,6.1215e+07,1,-0.0031659,0.0048855,-0.0049264,-0.31919,-0.048914,-9.7114,0,0,45.404,1,1,754,999
6017,6.1217e+07,1,-0.0050406,0.0018761,-0.00392,-0.31005,-0.0075579,-9.7219,0,0,45.404,1,1,754,999
6020,6.122e+07,1,-0.0033635,-0.0025372,-0.0018928,-0.29974,0.014416,-9.7225,0,0,45.404,1,1,754,999
6023,6.1222e+07,1,-0.0022191,-0.0043135,-0.00054835,-0.29056,0.029504,-9.7351,0,0,45.404,1,1,754,999
6054,6.1225e+07,1,0.0013891,-0.0043989,0.0034834,-0.28729,0.022115,-9.7662,0,0,45.404,1,1,754,999
6059,6.1228e+07,1,0.0030685,-0.0031688,0.006432,-0.28509,0.017302,-9.7826,0,0,45.404,1,1,754,999
6063,6.123e+07,1,0.0046174,-0.0038235,0.007941,-0.28953,-0.011489,-9.7761,0,0,45.405,1,1,754,999
6070,6.1232e+07,1,0.0068977,-0.0060124,0.0078576,-0.29301,-0.028718,-9.7578,0,0,45.405,1,1,754,999
6101,6.1235e+07,1,0.0052387,-0.0062617,0.0064219,-0.29538,-0.032671,-9.7249,0,0,45.405,1,1,754,999
6104,6.1237e+07,1,0.0012322,-0.0085681,0.0071566,-0.30278,-0.031693,-9.7139,0,0,45.405,1,1,754,999
6107,6.124e+07,1,-0.0022294,-0.0092772,0.0071686,-0.30718,-0.042471,-9.6991,0,0,45.405,1,1,754,999
6110,6.1242e+07,1,-0.0026554,-0.0060052,0.0060721,-0.2956,-0.052425,-9.694,0,0,45.405,1,1,754,999
6141,6.1245e+07,1,-0.00077733,-0.0015806,0.0038842,-0.2743,-0.060182,-9.6911,0,0,45.405,1,1,754,999
6144,6.1248e+07,1,0.0018263,-0.0010718,0.0038417,-0.26752,-0.066238,-9.6962,0,0,45.405,1,1,754,999
6148,6.125e+07,1,0.0031882,-0.0045477,0.0061706,-0.25633,-0.077268,-9.6958,0,0,45.406,1,1,754,999
6151,6.1252e+07,1,0.0036514,-0.0048197,0.0079075,-0.25319,-0.076982,-9.6919,0,0,45.406,1,1,754,999
6182,6.1255e+07,1,0.0058266,-0.00086098,0.011024,-0.24631,-0.068981,-9.71,0,0,45.406,1,1,754,999
6185,6.1257e+07,1,0.0073152,0.0021502,0.010631,-0.24111,-0.062234,-9.7341,0,0,45.406,1,1,754,999
6188,6.126e+07,1,0.0067831,0.0027287,0.0078573,-0.23523,-0.056085,-9.7657,0,0,45.406,1,1,754,999
6191,6.1262e+07,1,0.0057141,0.0053835,0.0024707,-0.23127,-0.063606,-9.781,0,0,45.407,1,1,754,999
6222,6.1265e+07,1,0.0052384,0.0059882,-0.0013386,-0.23312,-0.088881,-9.7974,0,0,45.407,1,1,754,999
6225,6.1267e+07,1,0.0036009,0.0030337,-0.0033303,-0.23186,-0.10145,-9.7866,0,0,45.407,1,1,754,999
6229,6.127e+07,1,0.00023162,-0.00029578,-0.003272,-0.23315,-0.1125,-9.7456,0,0,45.407,1,1,754,999
6232,6.1274e+07,1,-0.0026561,-0.0018179,0.001386,-0.293,-0.10672,-9.7636,0,0,45.407,1,1,754,999
6263,6.128e+07,1,-0.0041479,-0.0017132,0.00033222,-0.37361,-0.089666,-9.7935,0,0,45.407,1,1,754,999
6267,6.1282e+07,1,-0.0041536,-0.00025658,-0.001724,-0.39554,-0.10363,-9.808,0,0,45.408,1,1,754,999
6270,6.1285e+07,1,-0.0026685,-0.00062236,-0.0034228,-0.41729,-0.12935,-9.8318,0,0,45.408,1,1,754,999
6303,6.1288e+07,1,-0.00091939,-0.0021179,-0.0020148,-0.42046,-0.14734,-9.8554,0,0,45.408,1,1,754,999
6306,6.1291e+07,1,0.001353,-0.0020447,-0.0021005,-0.41629,-0.14768,-9.8588,0,0,45.408,1,1,754,999
6309,6.1293e+07,1,0.00084383,-7.7237e-05,-0.0027773,-0.41339,-0.15118,-9.8479,0,0,45.408,1,1,754,999
6312,6.1295e+07,1,2.0774e-05,0.00062111,-0.0034247,-0.41295,-0.15667,-9.831,0,0,45.408,1,1,754,999
6343,6.1298e+07,1,-0.0040992,0.0022839,-0.0055391,-0.42102,-0.15193,-9.7909,0,0,45.408,1,1,754,999
6346,6.1301e+07,1,-0.005319,0.003308,-0.0055931,-0.43326,-0.14217,-9.7602,0,0,45.408,1,1,754,999
6350,6.1303e+07,1,-0.0056067,0.0046337,-0.004565,-0.44184,-0.12529,-9.7438,0,0,45.408,1,1,754,999
6355,6.1306e+07,1,-0.0051992,0.0058643,-0.005285,-0.44538,-0.11441,-9.7378,0,0,45.409,1,1,754,999
6386,6.1308e+07,1,-0.0054181,0.0075733,-0.010222,-0.45666,-0.105,-9.7382,0,0,45.409,1,1,754,999
6389,6.1311e+07,1,-0.0042653,0.0075711,-0.014925,-0.45371,-0.094301,-9.7289,0,0,45.409,1,1,754,999
6392,6.1313e+07,1,-0.0036671,0.0060808,-0.015326,-0.44461,-0.082794,-9.7282,0,0,45.409,1,1,754,999
6395,6.1316e+07,1,-0.003813,0.0061567,-0.013857,-0.42315,-0.060671,-9.7296,0,0,45.409,1,1,754,999
6426,6.1318e+07,1,-0.0023126,0.0071014,-0.0062841,-0.40659,-0.044286,-9.7383,0,0,45.409,1,1,754,999
6429,6.1321e+07,1,-0.0030545,0.0056306,-0.0024536,-0.39566,-0.045385,-9.747,0,0,45.409,1,1,754,999
6433,6.1323e+07,1,-0.004348,0.0047199,-0.0017008,-0.37879,-0.058426,-9.7359,0,0,45.409,1,1,754,999
6436,6.1326e+07,1,-0.0080325,0.0031568,-0.0023307,-0.36775,-0.063204,-9.7234,0,0,45.409,1,1,754,999
6467,6.133e+07,1,-0.0086682,0.0029119,-0.0027335,-0.35454,-0.047652,-9.725,0,0,45.41,1,1,754,999
6470,6.1331e+07,1,-0.006676,-0.00022921,-0.0011617,-0.34141,-0.018354,-9.7402,0,0,45.41,1,1,754,999
6478,6.1334e+07,1,-0.0052092,-0.0014005,-0.00092578,-0.3404,-0.0021165,-9.7535,0,0,45.41,1,1,754,999
6481,6.1337e+07,1,-0.001889,-0.0024577,-0.00046146,-0.34421,0.012449,-9.7783,0,0,45.41,1,1,754,999
6512,6.1339e+07,1,0.0024536,-0.0026076,0.0035994,-0.35101,0.023934,-9.7929,0,0,45.41,1,1,754,999
6515,6.1342e+07,1,0.0042558,-0.0023945,0.0051791,-0.35585,0.030879,-9.803,0,0,45.41,1,1,754,999
6518,6.1344e+07,1,0.0061681,-0.0013836,0.0048982,-0.36858,0.013163,-9.7842,0,0,45.41,1,1,754,999
6521,6.1347e+07,1,0.0045779,0.00090969,0.00041428,-0.37439,-0.0073768,-9.7679,0,0,45.41,1,1,754,999
6552,6.1349e+07,1,0.000245,0.0030642,-0.0056708,-0.36666,-0.033278,-9.7402,0,0,45.411,1,1,754,999
6555,6.1352e+07,1,-0.0028612,0.0067827,-0.0095329,-0.35268,-0.053848,-9.7303,0,0,45.411,1,1,754,999
6560,6.1354e+07,1,-0.00339,0.008177,-0.0088745,-0.33891,-0.095264,-9.7397,0,0,45.411,1,1,754,999
6563,6.1357e+07,1,-0.0032396,0.0073163,-0.0074265,-0.33517,-0.11127,-9.7518,0,0,45.411,1,1,754,999
6594,6.1359e+07,1,-0.0018682,0.0046586,-0.0014488,-0.33221,-0.11774,-9.763,0,0,45.411,1,1,754,999
6597,6.1362e+07,1,-0.0024933,0.0037601,0.0014937,-0.32896,-0.11345,-9.7658,0,0,45.411,1,1,754,999
6600,6.1364e+07,1,-0.003208,0.0024778,0.0068912,-0.32095,-0.11531,-9.7558,0,0,45.411,1,1,754,999
6603,6.1367e+07,1,-0.0033623,0.0024297,0.0063639,-0.32222,-0.1233,-9.751,0,0,45.411,1,1,754,999
6634,6.137e+07,1,-0.003847,0.0015389,0.0041801,-0.33053,-0.14385,-9.7468,0,0,45.411,1,1,754,999
6637,6.1372e+07,1,-0.0040675,0.00061669,0.0056563,-0.33026,-0.1535,-9.7368,0,0,45.412,1,1,754,999
6641,6.1374e+07,1,-0.0034945,0.00066585,0.00589,-0.32782,-0.15179,-9.7218,0,0,45.412,1,1,754,999
6644,6.1383e+07,1,-0.00045864,-4.2005e-05,0.0014264,-0.33597,-0.12621,-9.7342,0,0,45.412,1,1,754,999
6676,6.1385e+07,1,0.001167,-0.0006598,0.0019195,-0.32487,-0.15221,-9.7227,0,0,45.412,1,1,754,999
6679,6.1388e+07,1,0.0015697,-0.0025854,0.0021869,-0.31197,-0.17264,-9.7043,0,0,45.412,1,1,754,999
6682,6.1391e+07,1,0.0016534,-0.0039362,0.0044375,-0.28483,-0.18041,-9.7129,0,0,45.412,1,1,754,999
6685,6.1393e+07,1,0.00022663,-0.0034607,0.0058376,-0.27313,-0.17369,-9.7314,0,0,45.413,1,1,754,999
6716,6.1396e+07,1,-0.001724,-0.0025504,0.0058148,-0.27361,-0.15021,-9.7558,0,0,45.413,1,1,754,999
6720,6.1398e+07,1,-0.00037639,-0.00089159,0.0042122,-0.2723,-0.13404,-9.7722,0,0,45.413,1,1,754,999
6723,6.1401e+07,1,0.001693,0.00041746,0.001768,-0.2681,-0.13504,-9.7808,0,0,45.413,1,1,754,999
6727,6.1404e+07,1,0.0019039,-0.0015448,0.00089686,-0.27334,-0.11274,-9.7883,0,0,45.413,1,1,754,999
6758,6.1407e+07,1,-0.00089493,-0.0036863,-0.00044804,-0.27748,-0.075932,-9.7799,0,0,45.413,1,1,754,999
6762,6.1409e+07,1,-0.0032255,-0.0025938,-0.0025584,-0.27407,-0.062351,-9.7744,0,0,45.413,1,1,754,999
6765,6.1411e+07,1,-0.0055828,0.00059771,-0.0020799,-0.27835,-0.057212,-9.7687,0,0,45.413,1,1,754,999
6768,6.1413e+07,1,-0.0073995,0.0028922,0.00099554,-0.27814,-0.070906,-9.7703,0,0,45.413,1,1,754,999
6799,6.1416e+07,1,-0.0079419,0.0023828,0.00088078,-0.27421,-0.091214,-9.7638,0,0,45.414,1,1,754,999
6802,6.1419e+07,1,-0.0077003,0.0021101,-0.0003132,-0.27563,-0.099207,-9.7666,0,0,45.414,1,1,754,999
6805,6.1421e+07,1,-0.0034032,0.0031283,-0.0048309,-0.28405,-0.10845,-9.7486,0,0,45.414,1,1,754,999
6808,6.1423e+07,1,-0.002306,0.0033457,-0.0065753,-0.29842,-0.1216,-9.7299,0,0,45.414,1,1,754,999
6839,6.1426e+07,1,-0.0014163,0.0047914,-0.0078407,-0.3226,-0.14135,-9.681,0,0,45.414,1,1,754,999
6843,6.1429e+07,1,-0.00051305,0.0053232,-0.0055486,-0.3311,-0.14041,-9.6663,0,0,45.414,1,1,754,999
6848,6.1432e+07,1,0.0011104,0.0017788,-0.0032671,-0.334,-0.12395,-9.676,0,0,45.414,1,1,754,999
6851,6.1434e+07,1,0.002543,-0.0035759,0.00061523,-0.33388,-0.1154,-9.675,0,0,45.414,1,1,754,999
6886,6.1436e+07,1,0.0021237,-0.0063056,0.0051023,-0.32415,-0.11159,-9.6785,0,0,45.414,1,1,754,999
6889,6.1439e+07,1,0.0008013,-0.0064898,0.0048644,-0.31541,-0.12033,-9.697,0,0,45.414,1,1,754,999
6892,6.1441e+07,1,3.4282e-05,-0.0041822,-0.003015,-0.30881,-0.13547,-9.7513,0,0,45.414,1,1,754,999
6895,6.1444e+07,1,0.0018462,-0.0025458,-0.0045269,-0.31048,-0.1294,-9.7932,0,0,45.414,1,1,754,999
6926,6.1447e+07,1,0.0054315,0.0026233,-0.0031351,-0.30418,-0.098616,-9.8375,0,0,45.414,1,1,754,999
6930,6.1449e+07,1,0.0064808,0.0051431,0.00083918,-0.3001,-0.074725,-9.8546,0,0,45.415,1,1,754,999
6933,6.1451e+07,1,0.0054661,0.0024419,0.0045624,-0.29355,-0.054088,-9.8686,0,0,45.415,1,1,754,999
6936,6.1454e+07,1,0.0027197,-0.00081477,0.0070568,-0.30209,-0.047445,-9.8825,0,0,45.415,1,1,754,999
6967,6.1457e+07,1,-0.00092509,-0.0018739,0.0069694,-0.32287,-0.053622,-9.8948,0,0,45.415,1,1,754,999
6971,6.1459e+07,1,-0.002758,-0.0028809,0.004158,-0.3275,-0.054694,-9.8648,0,0,45.415,1,1,754,999
6974,6.1461e+07,1,-0.001369,-0.0066992,0.00079614,-0.3203,-0.057072,-9.8447,0,0,45.415,1,1,754,999
6977,6.1464e+07,1,-0.0011913,-0.0080495,-0.0014666,-0.30521,-0.072653,-9.819,0,0,45.415,1,1,754,999
7008,6.1467e+07,1,-0.0030935,-0.0048431,-0.002779,-0.29616,-0.089111,-9.8052,0,0,45.415,1,1,754,999
7011,6.147e+07,1,-0.0033541,-0.0043139,-0.0034085,-0.29328,-0.09482,-9.7995,0,0,45.416,1,1,754,999
7014,6.1473e+07,1,-0.0023299,-0.0067079,-0.0034638,-0.28991,-0.099094,-9.7933,0,0,45.416,1,1,754,999
7017,6.1475e+07,1,-0.0030357,-0.0067991,-0.0031508,-0.29498,-0.10586,-9.784,0,0,45.416,1,1,754,999
7048,6.1478e+07,1,-0.0046623,-0.0029772,-0.0035819,-0.31407,-0.11082,-9.7724,0,0,45.416,1,1,754,999
7052,6.148e+07,1,-0.0046511,0.0013822,-0.0032642,-0.32205,-0.11609,-9.7583,0,0,45.416,1,1,754,999
7055,6.1483e+07,1,-0.0033539,0.00094624,-0.0018204,-0.32268,-0.11513,-9.7501,0,0,45.416,1,1,754,999
7058,6.1486e+07,1,-0.002844,-0.0026988,-0.0020311,-0.31685,-0.10484,-9.7212,0,0,45.416,1,1,754,999
7061,6.1488e+07,1,-0.0027091,-0.0040975,-0.0023546,-0.31551,-0.098793,-9.698,0,0,45.416,1,1,754,999
7092,6.1491e+07,1,-0.0013222,-0.0046061,-0.0029501,-0.32606,-0.078534,-9.6438,0,0,45.416,1,1,754,999
7095,6.1494e+07,1,0.00088808,-0.0030403,-0.0025947,-0.34144,-0.064938,-9.6338,0,0,45.416,1,1,754,999
7099,6.1497e+07,1,0.0030894,-0.0020455,-0.0039122,-0.3652,-0.047352,-9.6273,0,0,45.416,1,1,754,999
7102,6.1498e+07,1,0.0025365,-0.00019075,-0.0049822,-0.37629,-0.035389,-9.6282,0,0,45.416,1,1,754,999
7133,6.1501e+07,1,-0.0014371,0.001669,-0.0061968,-0.36222,-0.010216,-9.6257,0,0,45.416,1,1,754,999
7137,6.1503e+07,1,-0.0061597,0.002709,-0.0072479,-0.34317,-0.00051217,-9.6263,0,0,45.416,1,1,754,999
7140,6.1506e+07,1,-0.0080044,0.0030569,-0.0056904,-0.3227,-0.0003313,-9.6337,0,0,45.416,1,1,754,999
7144,6.1509e+07,1,-0.0076772,0.0018092,-0.0043769,-0.3152,0.0028259,-9.6543,0,0,45.416,1,1,754,999
7175,6.1512e+07,1,-0.0081604,-0.0025861,-0.0016086,-0.32529,0.0096813,-9.7094,0,0,45.416,1,1,754,999
7178,6.1515e+07,1,-0.0059652,-0.0011947,-0.0016042,-0.34937,-0.010173,-9.7536,0,0,45.417,1,1,754,999
7181,6.1517e+07,1,-0.004403,0.0010881,-0.00039421,-0.35676,-0.033842,-9.7613,0,0,45.417,1,1,754,999
7185,6.152e+07,1,0.001323,0.0074512,0.0040761,-0.34918,-0.056402,-9.7657,0,0,45.417,1,1,754,999
7216,6.1522e+07,1,0.0019417,0.0045352,0.0046684,-0.33309,-0.065431,-9.782,0,0,45.417,1,1,754,999
7219,6.1525e+07,1,0.0011609,0.0017751,0.003435,-0.32088,-0.070033,-9.7894,0,0,45.417,1,1,754,999
7222,6.1528e+07,1,-0.001523,-0.0070962,-8.0149e-05,-0.30307,-0.076424,-9.7931,0,0,45.417,1,1,754,999
7225,6.153e+07,1,-0.0018021,-0.0083736,-0.00083213,-0.30194,-0.085351,-9.7934,0,0,45.417,1,1,754,999
7256,6.1533e+07,1,-0.0010906,-0.0071192,0.0001001,-0.3148,-0.10333,-9.773,0,0,45.417,1,1,754,999
7260,6.1535e+07,1,-0.00056106,-0.0024125,0.0039841,-0.32971,-0.10221,-9.7394,0,0,45.417,1,1,754,999
7263,6.1538e+07,1,-0.001115,-0.0018392,0.0045634,-0.33946,-0.09781,-9.7304,0,0,45.417,1,1,754,999
7270,6.1541e+07,1,-0.0023131,-0.0027888,0.0060123,-0.34926,-0.092739,-9.7267,0,0,45.417,1,1,754,999
7301,6.1544e+07,1,-0.0024069,-0.0030789,0.0079163,-0.3555,-0.061836,-9.7152,0,0,45.417,1,1,754,999
7304,6.1546e+07,1,-0.0014309,-0.00073685,0.0079657,-0.35005,-0.043489,-9.7157,0,0,45.417,1,1,754,999
7307,6.1548e+07,1,0.00127,0.00044865,0.0031651,-0.34279,-0.033814,-9.7479,0,0,45.418,1,1,754,999
7310,6.1551e+07,1,0.0034853,0.00038291,-0.00089951,-0.34926,-0.035595,-9.7783,0,0,45.418,1,1,754,999
7341,6.1554e+07,1,0.0042374,-0.00053881,-0.0013572,-0.36454,-0.031136,-9.8207,0,0,45.418,1,1,754,999
7345,6.1556e+07,1,0.0037001,-0.0030568,-0.00042332,-0.37726,-0.034282,-9.8273,0,0,45.418,1,1,754,999
7348,6.1558e+07,1,0.0024784,-0.0022309,-0.00028742,-0.37532,-0.056664,-9.8098,0,0,45.418,1,1,754,999
7351,6.1561e+07,1,-0.00019638,-0.0005258,-0.0014456,-0.37127,-0.075628,-9.7706,0,0,45.418,1,1,754,999
7382,6.1564e+07,1,-0.0039132,-6.5191e-05,-0.0047135,-0.36942,-0.094821,-9.7524,0,0,45.418,1,1,754,999
7385,6.1566e+07,1,-0.0039104,-0.00065748,-0.0063871,-0.37029,-0.12478,-9.7292,0,0,45.418,1,1,754,999
7389,6.1569e+07,1,-0.001577,-0.00035182,-0.0059642,-0.36947,-0.1664,-9.6879,0,0,45.418,1,1,754,999
7392,6.1571e+07,1,-0.00023805,-4.1e-05,-0.0031249,-0.36178,-0.17892,-9.6666,0,0,45.418,1,1,754,999
7424,6.1573e+07,1,-0.00034965,-0.00029654,-0.0014802,-0.33888,-0.17813,-9.6543,0,0,45.418,1,1,754,999
7428,6.1577e+07,1,0.00069431,-0.002575,0.00030357,-0.32195,-0.1737,-9.6578,0,0,45.418,1,1,754,999
7431,6.1579e+07,1,0.0013038,-0.0036726,0.00040392,-0.30236,-0.18032,-9.6514,0,0,45.418,1,1,754,999
7434,6.1584e+07,1,0.0055599,-0.0016619,0.005191,-0.28189,-0.17751,-9.634,0,0,45.418,1,1,754,999
7465,6.1587e+07,1,0.0048736,-0.0038939,0.0037811,-0.30021,-0.16252,-9.631,0,0,45.418,1,1,754,999
7468,6.159e+07,1,0.0016419,-0.0062805,0.00087574,-0.31936,-0.15797,-9.6343,0,0,45.418,1,1,754,999
7471,6.1592e+07,1,0.00016427,-0.0033124,-0.0021848,-0.34107,-0.14562,-9.6549,0,0,45.418,1,1,754,999
7474,6.1594e+07,1,0.0014537,-0.0017358,-0.0032749,-0.34366,-0.13578,-9.6762,0,0,45.418,1,1,754,999
7506,6.1596e+07,1,0.004258,-0.00072406,-0.0037194,-0.3443,-0.11389,-9.7117,0,0,45.418,1,1,754,999
7509,6.1599e+07,1,0.0055459,0.00019359,-0.0033298,-0.34266,-0.096543,-9.7186,0,0,45.418,1,1,754,999
7512,6.1602e+07,1,0.0019546,0.0029367,-0.0014755,-0.33698,-0.081036,-9.7123,0,0,45.419,1,1,754,999
7515,6.1604e+07,1,-0.00089135,0.0035442,-0.001226,-0.33249,-0.076513,-9.7098,0,0,45.419,1,1,754,999
7546,6.1607e+07,1,-0.0049572,0.0038447,-0.0013564,-0.31976,-0.071912,-9.7202,0,0,45.419,1,1,754,999
7550,6.1609e+07,1,-0.004018,-0.0014097,-0.0013908,-0.31027,-0.077075,-9.7531,0,0,45.419,1,1,754,999
7553,6.1612e+07,1,-0.002541,-0.003324,-0.00090471,-0.30346,-0.083074,-9.7802,0,0,45.419,1,1,754,999
7556,6.1614e+07,1,3.4659e-07,-0.0045906,0.00028101,-0.28403,-0.097881,-9.7976,0,0,45.419,1,1,754,999
7587,6.1617e+07,1,0.0011619,-0.0038614,-0.00050101,-0.26186,-0.12258,-9.8022,0,0,45.419,1,1,754,999
7591,6.162e+07,1,0.0012455,-0.0041765,-0.00083232,-0.24751,-0.13028,-9.7954,0,0,45.419,1,1,754,999
7594,6.1622e+07,1,0.00034506,-0.0012884,-0.00037268,-0.24191,-0.13228,-9.7911,0,0,45.419,1,1,754,999
7598,6.1624e+07,1,-0.0013682,0.00063938,0.00026633,-0.25524,-0.12376,-9.7842,0,0,45.419,1,1,754,999
7629,6.1627e+07,1,-0.0040869,0.0034142,6.7904e-06,-0.27931,-0.097895,-9.7851,0,0,45.419,1,1,754,999
7633,6.163e+07,1,-0.0053526,0.0056181,-0.00078449,-0.29113,-0.075354,-9.7766,0,0,45.419,1,1,754,999
7636,6.1632e+07,1,-0.0063941,0.005774,-0.0023119,-0.30602,-0.038431,-9.7542,0,0,45.419,1,1,754,999
7639,6.1634e+07,1,-0.0054431,0.0048223,-0.0040974,-0.30759,-0.019843,-9.7378,0,0,45.419,1,1,754,999
7672,6.1637e+07,1,-0.002257,0.0044201,-0.0028411,-0.30716,-0.010911,-9.712,0,0,45.419,1,1,754,999
7676,6.164e+07,1,-0.00024246,0.0040887,-0.0016,-0.30819,-0.016791,-9.7079,0,0,45.419,1,1,754,999
7683,6.1643e+07,1,0.0040882,0.0013449,-0.00094453,-0.29996,-0.02411,-9.7256,0,0,45.419,1,1,754,999
7686,6.1645e+07,1,0.0041653,0.00018866,-0.0015245,-0.29423,-0.034586,-9.7525,0,0,45.419,1,1,754,999
7717,6.1648e+07,1,0.0019868,-0.0031569,-0.0017089,-0.29459,-0.064772,-9.7901,0,0,45.419,1,1,754,999
7720,6.165e+07,1,-0.003401,-0.0012637,0.00018656,-0.31331,-0.10338,-9.8155,0,0,45.419,1,1,754,999
7723,6.1653e+07,1,-0.0050086,0.0017245,0.00046142,-0.32793,-0.13618,-9.8138,0,0,45.419,1,1,754,999
7726,6.1656e+07,1,-0.0059676,0.0063729,0.0014352,-0.3611,-0.16671,-9.7881,0,0,45.419,1,1,754,999
7757,6.1658e+07,1,-0.0018548,0.01055,0.0026597,-0.38685,-0.18071,-9.7789,0,0,45.419,1,1,754,999
7761,6.1661e+07,1,7.9087e-05,0.010178,0.0022972,-0.3922,-0.17482,-9.7773,0,0,45.419,1,1,754,999
7764,6.1663e+07,1,0.0035258,0.0057736,0.0017008,-0.39098,-0.16005,-9.7756,0,0,45.419,1,1,754,999
7767,6.1666e+07,1,0.0021733,-0.0010601,0.0017446,-0.3869,-0.15354,-9.7761,0,0,45.419,1,1,754,999
7798,6.1669e+07,1,-0.0014706,-0.0046291,-0.00038305,-0.38236,-0.13894,-9.7816,0,0,45.42,1,1,754,999
7801,6.1671e+07,1,-0.006402,-0.0036447,-0.0046375,-0.38046,-0.1198,-9.7789,0,0,45.42,1,1,754,999
7804,6.1674e+07,1,-0.010386,-0.0014213,-0.0083638,-0.38528,-0.08959,-9.7812,0,0,45.42,1,1,754,999
7807,6.1676e+07,1,-0.0085252,-0.001562,-0.0085308,-0.38995,-0.075762,-9.7802,0,0,45.42,1,1,754,999
7838,6.1678e+07,1,-0.0038743,-0.0013822,-0.0027697,-0.39568,-0.051561,-9.7672,0,0,45.42,1,1,754,999
7842,6.1681e+07,1,-0.002242,-0.0012299,0.00065891,-0.40128,-0.041774,-9.7398,0,0,45.42,1,1,754,999
7845,6.1683e+07,1,-0.00026956,-0.0017546,0.0044194,-0.40114,-0.036403,-9.6917,0,0,45.42,1,1,754,999
7848,6.1686e+07,1,0.00020084,-0.0017544,0.0039722,-0.39265,-0.038587,-9.6692,0,0,45.42,1,1,754,999
7879,6.1694e+07,1,-0.0025729,-0.0032432,-0.0048541,-0.31811,-0.055726,-9.6774,0,0,45.42,1,1,754,999
7883,6.1697e+07,1,-0.0030735,-0.0036129,-0.0053934,-0.30357,-0.06302,-9.6852,0,0,45.42,1,1,754,999
7914,6.17e+07,1,-0.0042048,-0.0047068,-2.6643e-05,-0.28095,-0.078335,-9.6848,0,0,45.42,1,1,754,999
7917,6.1702e+07,1,-0.002705,-0.0070858,0.0013132,-0.26721,-0.083402,-9.6947,0,0,45.42,1,1,754,999
7920,6.1704e+07,1,-0.0027353,-0.0074542,0.00043339,-0.26537,-0.085025,-9.7049,0,0,45.42,1,1,754,999
7924,6.1707e+07,1,-0.002483,-0.0058885,-0.0016815,-0.27346,-0.082205,-9.7062,0,0,45.42,1,1,754,999
7955,6.171e+07,1,-0.0017013,-0.0059084,-0.0010852,-0.28716,-0.084183,-9.7043,0,0,45.42,1,1,754,999
7958,6.1712e+07,1,0.00018396,-0.0050179,-0.0011389,-0.30944,-0.094582,-9.7019,0,0,45.42,1,1,754,999
7962,6.1715e+07,1,0.0024244,-0.0039964,-0.0013477,-0.32241,-0.097145,-9.7015,0,0,45.42,1,1,754,999
7966,6.1717e+07,1,0.0031172,-0.0021449,-0.00055213,-0.33726,-0.10283,-9.7035,0,0,45.42,1,1,754,999
7997,6.172e+07,1,0.0015141,-0.0005618,0.00010855,-0.34868,-0.10214,-9.7016,0,0,45.42,1,1,754,999
8000,6.1723e+07,1,-0.00045119,0.00097203,0.00050119,-0.36865,-0.098141,-9.7029,0,0,45.42,1,1,754,999
8003,6.1724e+07,1,-0.00072548,0.0015913,0.001092,-0.37444,-0.095807,-9.7069,0,0,45.42,1,1,754,999
8008,6.1727e+07,1,-0.00035568,0.001401,0.0035794,-0.37611,-0.096803,-9.7202,0,0,45.42,1,1,754,999
8039,6.173e+07,1,-0.00040654,0.002474,0.0043784,-0.38309,-0.10668,-9.7395,0,0,45.42,1,1,754,999
8042,6.1732e+07,1,0.00023772,0.0024152,0.0023214,-0.38816,-0.1129,-9.7559,0,0,45.42,1,1,754,999
8045,6.1735e+07,1,0.0013369,0.0024159,0.0018251,-0.39054,-0.11258,-9.7803,0,0,45.421,1,1,754,999
8048,6.1737e+07,1,0.0039415,0.0039209,0.00079512,-0.37881,-0.10089,-9.8084,0,0,45.421,1,1,754,999
8079,6.1741e+07,1,0.0051163,0.0041361,-0.00059838,-0.36639,-0.087183,-9.8171,0,0,45.421,1,1,754,999
8082,6.1742e+07,1,0.0033504,0.003478,-0.0024645,-0.34386,-0.069184,-9.8104,0,0,45.421,1,1,754,999
8089,6.1746e+07,1,0.00087857,0.0019565,-0.0040654,-0.33532,-0.057441,-9.7985,0,0,45.421,1,1,754,999
8095,6.1747e+07,1,0.00073228,0.00054686,-0.0064488,-0.33878,-0.032344,-9.7747,0,0,45.421,1,1,754,999
8126,6.175e+07,1,0.0015203,0.00056935,-0.0078102,-0.34349,-0.025316,-9.756,0,0,45.421,1,1,754,999
8129,6.1753e+07,1,0.0027654,0.0021435,-0.0059441,-0.34837,-0.031547,-9.7298,0,0,45.421,1,1,754,999
8132,6.1755e+07,1,0.0025578,0.0042248,-0.0041871,-0.34285,-0.046866,-9.7183,0,0,45.421,1,1,754,999
8135,6.1757e+07,1,0.0024171,0.0077752,-0.0007745,-0.33254,-0.079255,-9.7144,0,0,45.421,1,1,754,999
8166,6.1761e+07,1,0.0021649,0.0076629,-0.00029517,-0.32192,-0.091463,-9.7101,0,0,45.421,1,1,754,999
8169,6.1763e+07,1,0.0012939,0.0086122,-0.0015994,-0.31532,-0.094753,-9.7077,0,0,45.421,1,1,754,999
8172,6.1765e+07,1,0.00011671,0.0096819,-0.0017722,-0.31789,-0.086067,-9.7106,0,0,45.421,1,1,754,999
8177,6.1767e+07,1,-0.0026775,0.009209,-0.0020815,-0.33936,-0.056365,-9.7161,0,0,45.421,1,1,754,999
8208,6.177e+07,1,-0.0068297,0.0088766,-0.00242,-0.35065,-0.043296,-9.7217,0,0,45.421,1,1,754,999
8211,6.1773e+07,1,-0.0071176,0.0081445,-0.00023135,-0.3538,-0.030043,-9.7305,0,0,45.421,1,1,754,999
8214,6.1775e+07,1,-0.0055316,0.0076858,0.0010583,-0.35295,-0.020863,-9.7347,0,0,45.421,1,1,754,999
8217,6.1778e+07,1,-0.0014943,0.0062267,0.0020379,-0.35057,-0.010664,-9.7387,0,0,45.422,1,1,754,999
8250,6.1781e+07,1,-0.00092175,0.0057109,0.001038,-0.35167,-0.024891,-9.7344,0,0,45.422,1,1,754,999
8253,6.1785e+07,1,-0.00069797,0.0060758,0.0021628,-0.36076,-0.026456,-9.7176,0,0,45.422,1,1,754,999
8256,6.1786e+07,1,-0.00049053,0.0043067,0.0060479,-0.36574,-0.012148,-9.6838,0,0,45.422,1,1,754,999
8260,6.1789e+07,1,-0.00069447,-0.0008748,0.0071079,-0.36104,-0.0064439,-9.6684,0,0,45.422,1,1,754,999
8291,6.1792e+07,1,-0.00084539,-0.0055591,0.0056766,-0.32716,-0.0088079,-9.691,0,0,45.422,1,1,754,999
8294,6.1795e+07,1,-0.0013214,-0.0057652,0.0045079,-0.30739,-0.011712,-9.7103,0,0,45.422,1,1,754,999
8297,6.1798e+07,1,-0.0013251,-0.0030847,-6.8708e-05,-0.29173,-0.018509,-9.7269,0,0,45.422,1,1,754,999
8301,6.18e+07,1,-0.0016067,0.0011244,-0.0046179,-0.29538,-0.019625,-9.7433,0,0,45.422,1,1,754,999
8332,6.1802e+07,1,-0.0017623,0.0027284,-0.0035229,-0.3218,-0.029733,-9.7477,0,0,45.422,1,1,754,999
8335,6.1805e+07,1,-0.0018006,0.0017522,-0.0020607,-0.34371,-0.043117,-9.7423,0,0,45.422,1,1,754,999
8338,6.1807e+07,1,-0.003756,-0.00016349,-0.0016899,-0.37074,-0.06704,-9.7481,0,0,45.422,1,1,754,999
8341,6.181e+07,1,-0.0059122,0.00056875,-0.0033722,-0.39276,-0.074223,-9.7482,0,0,45.422,1,1,754,999
8372,6.1813e+07,1,-0.005489,0.0017513,-0.0034872,-0.4222,-0.086657,-9.7406,0,0,45.422,1,1,754,999
8375,6.1816e+07,1,-0.0059078,0.0019315,-0.0040273,-0.43598,-0.084574,-9.7238,0,0,45.422,1,1,754,999
8378,6.1818e+07,1,-0.0074941,0.0027062,-0.0029097,-0.43776,-0.068466,-9.7209,0,0,45.422,1,1,754,999
8382,6.182e+07,1,-0.0070355,0.0033141,-0.002867,-0.41833,-0.043129,-9.6967,0,0,45.422,1,1,754,999
8414,6.1823e+07,1,-0.0050684,0.0028951,-0.0035346,-0.38803,-0.035532,-9.6539,0,0,45.422,1,1,754,999
8417,6.1826e+07,1,-0.0035822,0.0024914,-0.0014984,-0.37776,-0.031444,-9.6371,0,0,45.422,1,1,754,999
8421,6.1828e+07,1,-0.0029353,0.0020428,0.00048423,-0.37553,-0.026568,-9.637,0,0,45.422,1,1,754,999
8425,6.183e+07,1,-0.0033393,0.0022935,0.0056333,-0.38246,-0.015307,-9.6856,0,0,45.422,1,1,754,999
8456,6.1833e+07,1,-0.0029928,0.0023258,0.0061037,-0.38774,-0.014863,-9.7285,0,0,45.423,1,1,754,999
8459,6.1836e+07,1,-0.0024726,0.0024496,0.0063513,-0.38085,-0.028559,-9.749,0,0,45.423,1,1,754,999
8462,6.1838e+07,1,-0.0052013,0.0031208,0.0051957,-0.36646,-0.032649,-9.737,0,0,45.423,1,1,754,999
8466,6.184e+07,1,-0.0075667,0.0053662,0.00065146,-0.33652,-0.041876,-9.7084,0,0,45.423,1,1,754,999
8499,6.1843e+07,1,-0.0068613,0.0064891,-0.0015718,-0.32445,-0.050627,-9.6862,0,0,45.423,1,1,754,999
8502,6.1845e+07,1,-0.0076336,0.0065086,0.00027649,-0.31542,-0.070876,-9.6435,0,0,45.423,1,1,754,999
8509,6.1849e+07,1,-0.0085827,0.0082041,-0.001778,-0.31327,-0.081101,-9.6231,0,0,45.423,1,1,754,999
8513,6.1851e+07,1,-0.0076415,0.006871,-0.0044267,-0.32465,-0.097681,-9.6142,0,0,45.423,1,1,754,999
8544,6.1854e+07,1,-0.0049859,0.0018294,-0.0036041,-0.35043,-0.091491,-9.6125,0,0,45.423,1,1,754,999
8547,6.1856e+07,1,-0.0023117,-0.0018056,-0.0026591,-0.36285,-0.077517,-9.6219,0,0,45.423,1,1,754,999
8550,6.1858e+07,1,0.00034131,-0.0017604,-0.0016546,-0.36857,-0.080518,-9.6516,0,0,45.423,1,1,754,999
8553,6.1861e+07,1,0.0015373,-0.0010888,-0.0016542,-0.36872,-0.088392,-9.6752,0,0,45.423,1,1,754,999
8584,6.1863e+07,1,0.002821,0.00077802,-0.0014175,-0.37754,-0.087725,-9.7033,0,0,45.423,1,1,754,999
8587,6.1866e+07,1,0.0022493,0.00066613,-0.0017643,-0.38063,-0.08576,-9.7255,0,0,45.423,1,1,754,999
8590,6.1868e+07,1,-0.0014075,0.0017619,-0.0042245,-0.38858,-0.083001,-9.7457,0,0,45.423,1,1,754,999
8594,6.1871e+07,1,-0.0034637,0.0034622,-0.004958,-0.39696,-0.083853,-9.7457,0,0,45.423,1,1,754,999
8625,6.1873e+07,1,-0.0030316,0.0043224,-0.0034095,-0.40153,-0.091451,-9.7598,0,0,45.423,1,1,754,999
8628,6.1876e+07,1,-0.002867,0.0042909,0.00044574,-0.38892,-0.10881,-9.7886,0,0,45.423,1,1,754,999
8631,6.1879e+07,1,-0.00062227,0.0011339,0.0057085,-0.38261,-0.10637,-9.7911,0,0,45.423,1,1,754,999
8634,6.1882e+07,1,0.0041507,-0.0013253,0.008286,-0.36658,-0.10284,-9.7918,0,0,45.423,1,1,754,999
8637,6.1884e+07,1,0.0076421,-0.0024092,0.0071566,-0.31768,-0.10679,-9.7925,0,0,45.423,1,1,754,999
8668,6.1886e+07,1,0.0068285,-0.00052383,0.0027652,-0.27122,-0.11855,-9.7811,0,0,45.423,1,1,754,999
8671,6.1889e+07,1,0.0025092,0.0042206,-0.0015503,-0.25127,-0.13346,-9.7745,0,0,45.423,1,1,754,999
8675,6.1892e+07,1,-0.0013986,0.005833,-0.0041348,-0.22714,-0.15981,-9.7703,0,0,45.423,1,1,754,999
8678,6.1894e+07,1,-0.0022829,0.0059232,-0.0047461,-0.22613,-0.1631,-9.7726,0,0,45.423,1,1,754,999
8709,6.1897e+07,1,-0.00094261,0.0066581,-0.0035775,-0.25203,-0.13949,-9.8059,0,0,45.423,1,1,754,999
8712,6.19e+07,1,-0.0007475,0.0050631,-0.0022872,-0.26211,-0.13069,-9.8056,0,0,45.423,1,1,754,999
8716,6.1902e+07,1,-0.00019561,0.0046343,-0.0024546,-0.26718,-0.12326,-9.7928,0,0,45.423,1,1,754,999
8719,6.1905e+07,1,-0.00057683,0.0012089,-0.0025615,-0.26652,-0.11625,-9.7827,0,0,45.423,1,1,754,999
8750,6.1907e+07,1,-0.0019119,-0.0017385,-0.0030009,-0.26401,-0.10435,-9.7814,0,0,45.423,1,1,754,999
8753,6.191e+07,1,-0.0021141,-0.0023613,-0.0022143,-0.26856,-0.086532,-9.7958,0,0,45.423,1,1,754,999
8757,6.1913e+07,1,-0.0013211,-0.00015744,0.0010481,-0.28398,-0.066074,-9.8174,0,0,45.423,1,1,754,999
8760,6.1916e+07,1,-0.00089495,0.0020107,0.0006965,-0.28744,-0.062776,-9.8316,0,0,45.423,1,1,754,999
8763,6.1917e+07,1,0.00026717,0.0036761,-0.0010444,-0.29987,-0.063189,-9.8432,0,0,45.423,1,1,754,999
8794,6.192e+07,1,0.00024343,-0.00078325,-0.00090597,-0.32156,-0.074045,-9.8653,0,0,45.423,1,1,754,999
8798,6.1923e+07,1,-0.00098216,-0.0022686,-0.0019178,-0.33785,-0.076076,-9.8735,0,0,45.423,1,1,754,999
8801,6.1925e+07,1,-0.0024433,-0.002608,-0.0030672,-0.34529,-0.084878,-9.8672,0,0,45.423,1,1,754,999
8804,6.1928e+07,1,-0.0016068,-0.001627,-0.0017814,-0.3371,-0.10258,-9.8315,0,0,45.423,1,1,754,999
8835,6.1931e+07,1,-0.00025508,-0.00082483,0.0010098,-0.32445,-0.10269,-9.7758,0,0,45.423,1,1,754,999
8838,6.1933e+07,1,0.00035119,-0.0024334,0.0010872,-0.31773,-0.089425,-9.7295,0,0,45.423,1,1,754,999
8842,6.1935e+07,1,0.00096645,-0.0021297,0.00026833,-0.31335,-0.078645,-9.6991,0,0,45.423,1,1,754,999
8846,6.1939e+07,1,0.0021232,-0.0018472,0.0011754,-0.30653,-0.07897,-9.6684,0,0,45.423,1,1,754,999
8877,6.1942e+07,1,0.0031574,-0.001923,0.0064305,-0.29381,-0.08692,-9.6708,0,0,45.423,1,1,754,999
8881,6.1944e+07,1,0.0028504,-0.0014917,0.0068668,-0.28862,-0.094077,-9.6946,0,0,45.423,1,1,754,999
8884,6.1946e+07,1,0.0021053,-0.00030936,0.0062715,-0.28032,-0.10565,-9.7218,0,0,45.423,1,1,754,999
8887,6.1949e+07,1,0.0020824,0.0010938,0.0077222,-0.27281,-0.10772,-9.7326,0,0,45.423,1,1,754,999
8922,6.1952e+07,1,0.0022291,-0.00079553,0.0087506,-0.25764,-0.094904,-9.7584,0,0,45.423,1,1,754,999
8925,6.1954e+07,1,0.0006712,-0.0029469,0.0089969,-0.25376,-0.082834,-9.771,0,0,45.423,1,1,754,999
8928,6.1956e+07,1,-0.0018074,-0.0052036,0.0069152,-0.26607,-0.067358,-9.7701,0,0,45.423,1,1,754,999
8931,6.1959e+07,1,-0.0022402,-0.0054817,0.004929,-0.27637,-0.070279,-9.7631,0,0,45.423,1,1,754,999
8962,6.1961e+07,1,-0.00063241,-0.00123,-0.00034341,-0.29104,-0.087723,-9.7451,0,0,45.423,1,1,754,999
8966,6.1964e+07,1,-0.00039328,6.4383e-06,0.00021551,-0.30133,-0.10224,-9.7458,0,0,45.423,1,1,754,999
8969,6.1966e+07,1,-0.0017487,0.0012468,0.0022419,-0.31175,-0.1227,-9.7579,0,0,45.423,1,1,754,999
8972,6.1969e+07,1,-0.0047249,0.0013107,0.0004536,-0.31,-0.12398,-9.7507,0,0,45.423,1,1,754,999
9003,6.1971e+07,1,-0.0083287,-0.00036193,-0.0006097,-0.31252,-0.10786,-9.7391,0,0,45.423,1,1,754,999
9006,6.1973e+07,1,-0.010438,0.0015128,-0.0011634,-0.31808,-0.09765,-9.7506,0,0,45.423,1,1,754,999
9009,6.1977e+07,1,-0.0083589,0.0043591,-0.00075601,-0.30874,-0.080596,-9.7567,0,0,45.423,1,1,754,999
9012,6.1979e+07,1,-0.0069113,0.003403,-0.0013585,-0.2986,-0.071939,-9.748,0,0,45.423,1,1,754,999
9043,6.1981e+07,1,-0.004159,0.0020044,-0.002968,-0.28668,-0.054912,-9.7288,0,0,45.423,1,1,754,999
9047,6.1984e+07,1,-0.0022823,0.0019216,-0.0035761,-0.28718,-0.050253,-9.7266,0,0,45.423,1,1,754,999
9050,6.1986e+07,1,0.0028681,0.0026127,-0.0056587,-0.288,-0.069453,-9.7422,0,0,45.423,1,1,754,999
9053,6.1992e+07,1,0.003431,-0.0011509,-0.0035839,-0.27989,-0.078559,-9.794,0,0,45.423,1,1,754,999
9084,6.1994e+07,1,0.001008,-0.0065498,-0.0015579,-0.29157,-0.076154,-9.7971,0,0,45.423,1,1,754,999
9088,6.1997e+07,1,0.00074197,-0.0083149,-0.0023565,-0.30639,-0.071744,-9.7953,0,0,45.423,1,1,754,999
9092,6.2e+07,1,0.0011584,-0.0078563,-0.0037358,-0.32369,-0.06182,-9.7797,0,0,45.423,1,1,754,999
9095,6.2003e+07,1,0.0027161,-0.0034046,-0.0043557,-0.33292,-0.054527,-9.7606,0,0,45.423,1,1,754,999
9098,6.2005e+07,1,0.0018353,-0.0037334,-0.001213,-0.33468,-0.05973,-9.7494,0,0,45.423,1,1,754,999
9129,6.2008e+07,1,0.0013202,-0.0041516,0.00022337,-0.34074,-0.070175,-9.7429,0,0,45.423,1,1,754,999
9132,6.2011e+07,1,0.0024904,-0.003561,0.0018173,-0.35003,-0.073374,-9.7502,0,0,45.423,1,1,754,999
9135,6.2013e+07,1,0.0038509,-0.00058454,0.00075542,-0.34649,-0.050565,-9.7558,0,0,45.423,1,1,754,999
9138,6.2015e+07,1,0.0031597,0.0027072,-0.0017211,-0.34845,-0.031896,-9.7418,0,0,45.423,1,1,754,999
9169,6.2018e+07,1,8.0566e-05,0.0039819,-0.0029895,-0.35762,-0.013856,-9.7307,0,0,45.423,1,1,754,999
9173,6.202e+07,1,-0.0028702,0.0028036,-0.0014735,-0.35791,-0.014252,-9.7155,0,0,45.424,1,1,754,999
9176,6.2023e+07,1,-0.0045531,-0.0018266,0.00048716,-0.35769,-0.015052,-9.7223,0,0,45.424,1,1,754,999
9179,6.2026e+07,1,-0.0034132,-0.0057767,8.139e-05,-0.35476,-0.019349,-9.7545,0,0,45.424,1,1,754,999
9212,6.2029e+07,1,0.00014646,-0.0063004,0.00062444,-0.34936,-0.021966,-9.7701,0,0,45.424,1,1,754,999
9215,6.2031e+07,1,0.0023584,-0.0044408,0.001478,-0.34579,-0.031514,-9.7744,0,0,45.424,1,1,754,999
9218,6.2033e+07,1,0.0010356,-0.00079196,0.00011961,-0.34806,-0.042578,-9.7797,0,0,45.424,1,1,754,999
9222,6.2036e+07,1,-0.00010952,0.0006102,0.00015077,-0.34704,-0.047703,-9.7762,0,0,45.424,1,1,754,999
9253,6.2039e+07,1,0.00059626,-0.000317,0.001358,-0.33837,-0.059906,-9.765,0,0,45.424,1,1,754,999
9257,6.2041e+07,1,0.00028762,0.00016295,0.0014082,-0.32623,-0.064505,-9.7586,0,0,45.424,1,1,754,999
9260,6.2044e+07,1,-0.00087747,0.00074492,-2.1031e-05,-0.30844,-0.059055,-9.755,0,0,45.424,1,1,754,999
9263,6.2046e+07,1,-0.00069043,-0.00020975,-0.00045122,-0.27966,-0.05361,-9.7569,0,0,45.424,1,1,754,999
9294,6.205e+07,1,0.00017891,-0.0014295,-0.00050605,-0.27308,-0.063017,-9.7649,0,0,45.424,1,1,754,999
9298,6.2052e+07,1,0.0050364,-0.0057006,0.00064774,-0.27327,-0.083417,-9.749,0,0,45.424,1,1,754,999
9305,6.2054e+07,1,0.0056442,-0.0054432,0.00097179,-0.27772,-0.094904,-9.7372,0,0,45.424,1,1,754,999
9308,6.2056e+07,1,0.0045419,-0.0012438,-0.00013684,-0.28656,-0.10966,-9.7293,0,0,45.424,1,1,754,999
9339,6.2059e+07,1,0.0046576,0.006435,-0.0028707,-0.31268,-0.1268,-9.7342,0,0,45.424,1,1,754,999
9342,6.2061e+07,1,0.004705,0.0071644,-0.0027364,-0.32465,-0.12694,-9.7564,0,0,45.424,1,1,754,999
9345,6.2064e+07,1,0.0041302,0.0062554,-0.0021128,-0.32667,-0.11875,-9.785,0,0,45.424,1,1,754,999
9348,6.2067e+07,1,0.0016137,0.0062034,-0.0011562,-0.32981,-0.10484,-9.8185,0,0,45.424,1,1,754,999
9379,6.2069e+07,1,-0.0010741,0.0071922,0.0014623,-0.32853,-0.099932,-9.8237,0,0,45.424,1,1,754,999
9383,6.2072e+07,1,-0.0015621,0.0072168,0.0016473,-0.32121,-0.09122,-9.8308,0,0,45.424,1,1,754,999
9386,6.2074e+07,1,-0.00029391,0.0072685,-5.2033e-05,-0.32237,-0.067108,-9.8564,0,0,45.424,1,1,754,999
9389,6.2077e+07,1,0.0009574,0.0052834,-0.0019963,-0.33435,-0.043801,-9.87,0,0,45.424,1,1,754,999
9420,6.208e+07,1,0.0020689,0.0031559,-0.0042874,-0.35511,-0.017958,-9.8731,0,0,45.424,1,1,754,999
9423,6.2082e+07,1,0.0028106,0.0027868,-0.0051896,-0.37178,-0.029264,-9.8513,0,0,45.424,1,1,754,999
9426,6.2084e+07,1,0.0028238,0.0016901,-0.0054465,-0.37935,-0.049565,-9.8322,0,0,45.424,1,1,754,999
9429,6.2087e+07,1,0.00024529,0.0015422,-0.0042002,-0.37252,-0.085911,-9.8363,0,0,45.424,1,1,754,999
9460,6.209e+07,1,-0.001896,0.0022139,-0.0037647,-0.36323,-0.10444,-9.8517,0,0,45.424,1,1,754,999
9464,6.2094e+07,1,-0.0065285,0.0053273,-0.0034234,-0.35569,-0.1184,-9.8671,0,0,45.424,1,1,754,999
9467,6.2095e+07,1,-0.0056401,0.0044662,-0.0015132,-0.35663,-0.11897,-9.8596,0,0,45.424,1,1,754,999
9470,6.2098e+07,1,-0.0042426,0.0019379,-0.00045939,-0.35508,-0.11711,-9.8583,0,0,45.425,1,1,754,999
9501,6.2104e+07,1,-0.00057317,-0.0039712,0.0028579,-0.34791,-0.11683,-9.8255,0,0,45.425,1,1,754,999
9504,6.2106e+07,1,0.001142,-0.0012955,-0.00017785,-0.34915,-0.11599,-9.8005,0,0,45.425,1,1,754,999
9507,6.2108e+07,1,0.0012008,0.00077405,-0.0018266,-0.35056,-0.10125,-9.757,0,0,45.425,1,1,754,999
9538,6.2111e+07,1,0.00081453,0.0022206,-0.0020813,-0.35509,-0.10278,-9.7473,0,0,45.425,1,1,754,999
9541,6.2113e+07,1,-0.0012195,0.0059591,0.0014097,-0.37407,-0.12254,-9.7245,0,0,45.425,1,1,754,999
9545,6.2116e+07,1,-0.00081824,0.0056876,0.0033243,-0.38431,-0.13689,-9.7162,0,0,45.425,1,1,754,999
9548,6.2119e+07,1,-0.0001356,0.0039798,0.0066725,-0.38609,-0.16069,-9.7166,0,0,45.425,1,1,754,999
9579,6.2121e+07,1,0.00041443,0.00063048,0.0062129,-0.37472,-0.19498,-9.7284,0,0,45.425,1,1,754,999
9582,6.2124e+07,1,0.001449,-0.00036082,0.0063072,-0.37091,-0.20903,-9.7339,0,0,45.425,1,1,754,999
9586,6.2126e+07,1,0.0030536,-0.000141,0.0050579,-0.37081,-0.20737,-9.7385,0,0,45.425,1,1,754,999
9590,6.2129e+07,1,0.0029297,9.1719e-05,0.0020935,-0.37322,-0.18834,-9.7229,0,0,45.425,1,1,754,999
9621,6.2132e+07,1,-0.00010371,-0.00067018,0.0016113,-0.37244,-0.16336,-9.6863,0,0,45.425,1,1,754,999
9624,6.2135e+07,1,-0.0023431,-7.8526e-05,0.0015313,-0.35396,-0.14395,-9.6398,0,0,45.425,1,1,754,999
9627,6.2137e+07,1,-0.0027785,-3.3358e-05,0.0012679,-0.34565,-0.12851,-9.6131,0,0,45.425,1,1,754,999
9630,6.2139e+07,1,-0.0020225,-0.001694,0.0013826,-0.3545,-0.10533,-9.6073,0,0,45.425,1,1,754,999
9661,6.2142e+07,1,-0.0025008,-0.0013567,0.00094547,-0.37689,-0.084752,-9.6434,0,0,45.425,1,1,754,999
9665,6.2144e+07,1,-0.0031487,-0.00025189,0.0010421,-0.38456,-0.063513,-9.6655,0,0,45.425,1,1,754,999
9669,6.2147e+07,1,-0.0034627,-0.0016234,0.0026585,-0.38359,-0.041011,-9.6872,0,0,45.425,1,1,754,999
9672,6.2149e+07,1,-0.0029362,-0.002281,0.0031693,-0.35254,-0.028469,-9.7097,0,0,45.425,1,1,754,999
9703,6.2152e+07,1,-0.0017129,-0.0005366,0.0017557,-0.31261,-0.026385,-9.7335,0,0,45.425,1,1,754,999
9706,6.2154e+07,1,-0.0018221,0.0018958,0.001113,-0.29174,-0.013728,-9.7443,0,0,45.425,1,1,754,999
9714,6.2158e+07,1,-0.00056636,0.0023847,0.002309,-0.25825,-0.0079277,-9.7582,0,0,45.425,1,1,754,999
9717,6.216e+07,1,-0.00045076,0.0023699,0.0029556,-0.24384,-0.011118,-9.775,0,0,45.425,1,1,754,999
9748,6.2162e+07,1,-0.0035124,0.0044198,-0.0011407,-0.24322,-0.011605,-9.7814,0,0,45.426,1,1,754,999
9751,6.2165e+07,1,-0.0046108,0.0044516,-0.0032125,-0.25145,-0.027278,-9.7597,0,0,45.426,1,1,754,999
9755,6.2167e+07,1,-0.0068491,0.0043028,-0.0029484,-0.27058,-0.064467,-9.7371,0,0,45.426,1,1,754,999
9758,6.217e+07,1,-0.0099332,0.0037404,-0.0014122,-0.28479,-0.081717,-9.7373,0,0,45.426,1,1,754,999
9789,6.2173e+07,1,-0.012245,0.0034731,-0.0013261,-0.31113,-0.090008,-9.7244,0,0,45.426,1,1,754,999
9793,6.2175e+07,1,-0.012579,0.0028489,-0.00022834,-0.3219,-0.081915,-9.6918,0,0,45.426,1,1,754,999
9797,6.2178e+07,1,-0.010875,0.00060616,0.0035726,-0.31947,-0.066633,-9.677,0,0,45.426,1,1,754,999
9800,6.2181e+07,1,-0.0077887,0.00067987,0.0057527,-0.32194,-0.058512,-9.6811,0,0,45.426,1,1,754,999
9831,6.2183e+07,1,-0.0031611,0.0013176,0.0058317,-0.32882,-0.051369,-9.6885,0,0,45.426,1,1,754,999
9834,6.2186e+07,1,0.00044543,0.0016394,0.0039456,-0.3338,-0.050899,-9.6962,0,0,45.426,1,1,754,999
9837,6.2188e+07,1,0.0030705,0.00067062,0.0034462,-0.34133,-0.064269,-9.7203,0,0,45.426,1,1,754,999
9840,6.2191e+07,1,0.0045882,-0.0024871,0.00215,-0.34362,-0.082632,-9.7361,0,0,45.426,1,1,754,999
9871,6.2194e+07,1,0.0057702,-0.0046098,-0.0011871,-0.34909,-0.10058,-9.7548,0,0,45.426,1,1,754,999
9874,6.2197e+07,1,0.0057466,-0.0034556,-0.0056495,-0.36341,-0.11243,-9.7824,0,0,45.426,1,1,754,999
9878,6.2199e+07,1,0.003809,-0.00012763,-0.0071897,-0.3704,-0.11773,-9.7989,0,0,45.426,1,1,754,999
9881,6.2201e+07,1,0.00099727,0.0031866,-0.0084336,-0.38037,-0.13605,-9.806,0,0,45.426,1,1,754,999
9912,6.2204e+07,1,-0.0020267,0.0053645,-0.0091802,-0.38169,-0.15333,-9.8005,0,0,45.426,1,1,754,999
9915,6.2207e+07,1,-0.0015039,0.0041461,-0.0086771,-0.37965,-0.17274,-9.7928,0,0,45.426,1,1,754,999
9918,6.2209e+07,1,-0.00088931,0.0030773,-0.0081908,-0.38061,-0.17913,-9.7842,0,0,45.426,1,1,754,999
9921,6.2211e+07,1,0.00085157,0.0039591,-0.0034108,-0.36587,-0.17817,-9.7552,0,0,45.426,1,1,754,999
9952,6.2214e+07,1,0.0018604,0.0052976,-0.0014456,-0.34151,-0.17859,-9.743,0,0,45.426,1,1,754,999
9955,6.2217e+07,1,0.0015615,0.0062074,0.00080814,-0.31783,-0.1819,-9.7422,0,0,45.426,1,1,754,999
9959,6.2219e+07,1,0.00065959,0.0037526,0.0013088,-0.31085,-0.18184,-9.7362,0,0,45.426,1,1,754,999
9962,6.2221e+07,1,-0.0016892,-0.00077384,0.002645,-0.30751,-0.17929,-9.7314,0,0,45.426,1,1,754,999
9993,6.2224e+07,1,-0.0046466,-0.003812,0.0036909,-0.30648,-0.17327,-9.7304,0,0,45.426,1,1,754,999
9996,6.2226e+07,1,-0.0037189,-0.0043486,0.0025379,-0.31055,-0.16495,-9.7325,0,0,45.426,1,1,754,999
10000,6.2229e+07,1,-0.0017536,-0.0039144,0.0019294,-0.30405,-0.15928,-9.7391,0,0,45.426,1,1,754,999
10003,6.2231e+07,1,0.0024554,-0.0014539,-0.00041363,-0.2999,-0.14955,-9.7513,0,0,45.426,1,1,754,999
10036,6.2234e+07,1,0.0022426,-0.00013745,-0.0013292,-0.30162,-0.14612,-9.7652,0,0,45.426,1,1,754,999
10039,6.2236e+07,1,-0.0011301,0.0024641,-0.0008763,-0.31186,-0.13681,-9.7702,0,0,45.426,1,1,754,999
10042,6.2239e+07,1,-0.0022673,0.0019115,-0.0012585,-0.31067,-0.13572,-9.7565,0,0,45.426,1,1,754,999
10045,6.2242e+07,1,-0.002904,0.00039428,-0.0033014,-0.30211,-0.12521,-9.732,0,0,45.426,1,1,754,999
10076,6.2244e+07,1,-0.0025022,-0.0014563,-0.0056564,-0.31935,-0.11835,-9.7124,0,0,45.426,1,1,754,999
10079,6.2247e+07,1,-0.0010354,-0.0029404,-0.0053066,-0.32494,-0.11886,-9.7102,0,0,45.426,1,1,754,999
10083,6.2249e+07,1,0.0019867,-0.0044457,-0.0022798,-0.33024,-0.12471,-9.7065,0,0,45.426,1,1,754,999
10087,6.2252e+07,1,0.0042916,-0.0024199,0.00075443,-0.33103,-0.12962,-9.7012,0,0,45.426,1,1,754,999
10118,6.2255e+07,1,0.0050917,0.00020877,0.0012115,-0.33421,-0.12987,-9.705,0,0,45.426,1,1,754,999
10121,6.2257e+07,1,0.004513,0.0017162,0.0015687,-0.32797,-0.13359,-9.7206,0,0,45.426,1,1,754,999
10128,6.2259e+07,1,0.0022167,0.0035471,0.0015513,-0.32122,-0.15179,-9.7381,0,0,45.426,1,1,754,999
10131,6.2262e+07,1,0.00074751,0.0041016,0.0010471,-0.32361,-0.15903,-9.7568,0,0,45.426,1,1,754,999
10162,6.2264e+07,1,-0.003316,0.0017323,-0.0028404,-0.3275,-0.1436,-9.7795,0,0,45.426,1,1,754,999
10165,6.2267e+07,1,-0.0033791,0.0002078,-0.0036406,-0.32714,-0.13516,-9.7889,0,0,45.426,1,1,754,999
10169,6.227e+07,1,-0.0024573,-0.0015568,-0.00059138,-0.31093,-0.13254,-9.7901,0,0,45.426,1,1,754,999
10172,6.2272e+07,1,-0.0046093,-0.0018085,0.0045991,-0.30224,-0.12968,-9.7914,0,0,45.426,1,1,754,999
10205,6.2274e+07,1,-0.0081205,0.0010586,0.0045499,-0.29584,-0.13298,-9.7831,0,0,45.426,1,1,754,999
10208,6.2277e+07,1,-0.0097246,0.0021194,-4.985e-05,-0.28627,-0.12927,-9.7745,0,0,45.426,1,1,754,999
10211,6.228e+07,1,-0.0063743,0.0025281,-0.0020861,-0.2755,-0.11169,-9.7594,0,0,45.426,1,1,754,999
10214,6.2282e+07,1,-0.0012917,0.0039062,-0.0021061,-0.27297,-0.099966,-9.7537,0,0,45.426,1,1,754,999
10245,6.2284e+07,1,0.00061988,0.0060101,-0.0029942,-0.28075,-0.08553,-9.7291,0,0,45.426,1,1,754,999
10248,6.2287e+07,1,0.00084598,0.0069112,-0.0028863,-0.28575,-0.077933,-9.7071,0,0,45.426,1,1,754,999
10252,6.2289e+07,1,0.0023257,0.0062884,-0.00020266,-0.29008,-0.078308,-9.6885,0,0,45.426,1,1,754,999
10255,6.2292e+07,1,0.0028151,0.0050138,0.00054551,-0.29626,-0.088326,-9.6859,0,0,45.426,1,1,754,999
10286,6.2296e+07,1,0.0035843,0.0026402,0.00089323,-0.28906,-0.090036,-9.6707,0,0,45.426,1,1,754,999
10289,6.2297e+07,1,0.0028876,0.0017658,0.0019982,-0.28156,-0.073552,-9.6761,0,0,45.426,1,1,754,999
10293,6.23e+07,1,0.0021752,0.002082,0.0015624,-0.29366,-0.060263,-9.6885,0,0,45.426,1,1,754,999
10296,6.2306e+07,1,-0.0069023,0.0024423,-0.00098884,-0.31459,-0.021676,-9.7136,0,0,45.426,1,1,754,999
10327,6.2308e+07,1,-0.0066645,0.0011201,0.001387,-0.31047,-0.027256,-9.6893,0,0,45.426,1,1,754,999
10330,6.2311e+07,1,-0.0038168,-0.00070233,0.0021193,-0.31032,-0.032045,-9.6767,0,0,45.426,1,1,754,999
10333,6.2314e+07,1,-0.0035917,0.00087702,-0.0002659,-0.31245,-0.059651,-9.6714,0,0,45.426,1,1,754,999
10336,6.2316e+07,1,-0.0046249,0.0028008,-0.0020025,-0.30726,-0.077189,-9.6773,0,0,45.426,1,1,754,999
10367,6.2319e+07,1,-0.0071224,0.0060082,-0.0033089,-0.28991,-0.07919,-9.6843,0,0,45.426,1,1,754,999
10371,6.2321e+07,1,-0.0060923,0.0070037,-0.0033253,-0.27668,-0.074344,-9.6768,0,0,45.426,1,1,754,999
10374,6.2324e+07,1,-0.00056248,0.0095618,-0.0024141,-0.26988,-0.066486,-9.6701,0,0,45.426,1,1,754,999
10377,6.2326e+07,1,0.0024833,0.008911,-0.00060202,-0.27945,-0.068408,-9.6763,0,0,45.426,1,1,754,999
10408,6.2329e+07,1,0.0013394,0.0056285,0.00018865,-0.29237,-0.062517,-9.6854,0,0,45.426,1,1,754,999
10411,6.2332e+07,1,3.1726e-06,0.002503,-0.00082526,-0.30157,-0.048884,-9.6915,0,0,45.426,1,1,754,999
10414,6.2334e+07,1,-0.0014506,0.00097885,-0.0042549,-0.3086,-0.04254,-9.7022,0,0,45.426,1,1,754,999
10417,6.2337e+07,1,-0.0027727,0.00064145,-0.0059102,-0.32864,-0.048514,-9.7157,0,0,45.426,1,1,754,999
10448,6.2339e+07,1,-0.0020107,0.00085429,-0.0065402,-0.34924,-0.060042,-9.7355,0,0,45.426,1,1,754,999
10452,6.2342e+07,1,-0.0024188,0.0011891,-0.0053966,-0.35358,-0.065258,-9.74,0,0,45.426,1,1,754,999
10455,6.2344e+07,1,-0.0027478,0.0040232,-0.0037951,-0.35202,-0.074356,-9.7408,0,0,45.426,1,1,754,999
10458,6.2347e+07,1,-0.002645,0.006275,-0.0017031,-0.36221,-0.081233,-9.7492,0,0,45.426,1,1,754,999
10489,6.235e+07,1,-0.0031959,0.0054193,-9.9165e-05,-0.37252,-0.071939,-9.7595,0,0,45.426,1,1,754,999
10492,6.2351e+07,1,-0.0053334,0.0050022,-0.00065239,-0.3701,-0.061425,-9.7812,0,0,45.426,1,1,754,999
10495,6.2354e+07,1,-0.0076993,0.0049885,-0.0030823,-0.36243,-0.052752,-9.8128,0,0,45.426,1,1,754,999
10498,6.2357e+07,1,-0.0075256,0.0056496,-0.004505,-0.36491,-0.054771,-9.8131,0,0,45.426,1,1,754,999
10529,6.2359e+07,1,-0.00312,0.0096736,-0.0067588,-0.37053,-0.061606,-9.7929,0,0,45.426,1,1,754,999
10537,6.2362e+07,1,-0.0024249,0.010469,-0.0056937,-0.37345,-0.062314,-9.7911,0,0,45.426,1,1,754,999
10540,6.2364e+07,1,-0.0038135,0.010291,-0.0022597,-0.38491,-0.067736,-9.7898,0,0,45.426,1,1,754,999
10543,6.2367e+07,1,-0.004829,0.0086282,9.4278e-05,-0.38741,-0.077832,-9.7861,0,0,45.426,1,1,754,999
10552,6.2388e+07,1,-0.00082119,-0.0073244,0.0042686,-0.31439,-0.17709,-9.7708,0,0,45.426,1,1,754,999
10583,6.239e+07,1,-0.0012211,-0.0071307,0.0049639,-0.29919,-0.18723,-9.7854,0,0,45.426,1,1,754,999
10588,6.2393e+07,1,-0.002727,-0.0052868,0.0047757,-0.27546,-0.19596,-9.7869,0,0,45.426,1,1,754,999
10591,6.2395e+07,1,-0.0024463,-0.0038905,0.001533,-0.2678,-0.19638,-9.7664,0,0,45.426,1,1,754,999
10594,6.2399e+07,1,-0.0017096,-0.002638,0.00048211,-0.27817,-0.20119,-9.7311,0,0,45.426,1,1,754,999
10597,6.24e+07,1,0.001618,-0.00090512,-6.4689e-05,-0.29387,-0.21159,-9.7036,0,0,45.426,1,1,754,999
10628,6.2403e+07,1,0.0027383,-0.0012255,0.00031363,-0.29658,-0.20636,-9.703,0,0,45.426,1,1,754,999
10631,6.2405e+07,1,0.0046609,-0.001671,0.0019058,-0.29219,-0.19011,-9.7209,0,0,45.426,1,1,754,999
10634,6.2409e+07,1,0.0073131,-0.00080293,0.0012237,-0.29396,-0.17774,-9.7385,0,0,45.426,1,1,754,999
10637,6.241e+07,1,0.010522,-0.0011302,-0.00011741,-0.30015,-0.14255,-9.7632,0,0,45.426,1,1,754,999
10668,6.2416e+07,1,0.0085042,0.00087247,-0.0047299,-0.28423,-0.056656,-9.7009,0,0,45.426,1,1,754,999
10672,6.2418e+07,1,0.0066901,0.0012362,-0.0039221,-0.27744,-0.03955,-9.652,0,0,45.426,1,1,754,999
10675,6.2421e+07,1,0.0029276,0.00099605,-0.00010664,-0.27585,-0.033839,-9.6201,0,0,45.426,1,1,754,999
10706,6.2424e+07,1,-0.0026372,-0.0040859,0.0010197,-0.26886,-0.029083,-9.6276,0,0,45.426,1,1,754,999
10709,6.2426e+07,1,-0.0037206,-0.0056578,-2.6304e-05,-0.25843,-0.025722,-9.659,0,0,45.426,1,1,754,999
10713,6.2429e+07,1,-0.0031695,-0.0060933,-0.00049071,-0.24822,-0.027567,-9.6835,0,0,45.426,1,1,754,999
10716,6.2431e+07,1,-0.0011247,-0.004658,0.0021539,-0.24523,-0.05269,-9.6924,0,0,45.426,1,1,754,999
10747,6.2435e+07,1,-0.00023349,-0.0041454,0.0034252,-0.23914,-0.086914,-9.6907,0,0,45.426,1,1,754,999
10750,6.2437e+07,1,0.0014821,-0.0044742,0.0036461,-0.221,-0.12896,-9.6845,0,0,45.426,1,1,754,999
10755,6.2439e+07,1,0.0019325,-0.0038681,0.0036366,-0.21725,-0.14382,-9.6903,0,0,45.427,1,1,754,999
10758,6.2441e+07,1,0.0029594,-0.00033,0.00058116,-0.22876,-0.1414,-9.6949,0,0,45.427,1,1,754,999
10789,6.2444e+07,1,0.0039077,0.00089267,-3.758e-05,-0.24375,-0.12884,-9.6913,0,0,45.427,1,1,754,999
10792,6.2447e+07,1,0.0034467,0.00058577,0.00058819,-0.25095,-0.12074,-9.6876,0,0,45.427,1,1,754,999
10796,6.2449e+07,1,0.0018456,-0.00057079,0.0015527,-0.25546,-0.11646,-9.6874,0,0,45.427,1,1,754,999
10799,6.2451e+07,1,-0.00048782,-0.00021928,-0.0002021,-0.26143,-0.096223,-9.7029,0,0,45.427,1,1,754,999
10830,6.2454e+07,1,-0.0043617,0.0012367,-0.0042655,-0.26406,-0.071203,-9.7203,0,0,45.427,1,1,754,999
10833,6.2457e+07,1,-0.0076995,0.003027,-0.0079748,-0.26583,-0.060221,-9.7324,0,0,45.427,1,1,754,999
10836,6.2459e+07,1,-0.008771,0.0037393,-0.0088732,-0.26546,-0.058998,-9.7475,0,0,45.427,1,1,754,999
10839,6.2462e+07,1,-0.006649,0.0029875,-0.0082376,-0.27146,-0.060633,-9.7779,0,0,45.427,1,1,754,999
10874,6.2464e+07,1,-0.0049059,0.00076962,-0.0074188,-0.2873,-0.065637,-9.8376,0,0,45.427,1,1,754,999
10877,6.2467e+07,1,-0.00412,-0.00059721,-0.0067605,-0.29254,-0.07612,-9.8734,0,0,45.427,1,1,754,999
10881,6.2469e+07,1,-0.0013927,-0.0016332,-0.003228,-0.29833,-0.094965,-9.901,0,0,45.427,1,1,754,999
10884,6.2472e+07,1,-0.0010428,-0.00086895,-0.0019565,-0.3091,-0.1042,-9.893,0,0,45.427,1,1,754,999
10915,6.2475e+07,1,-0.00099214,0.0011641,-0.00036782,-0.32615,-0.11472,-9.8823,0,0,45.427,1,1,754,999
10918,6.2477e+07,1,-0.0022453,0.0060877,0.0031104,-0.33254,-0.10861,-9.8886,0,0,45.427,1,1,754,999
10922,6.248e+07,1,-0.0030633,0.0073808,0.0049035,-0.32703,-0.10166,-9.8812,0,0,45.427,1,1,754,999
10925,6.2482e+07,1,-0.0013409,0.0064407,0.0064513,-0.30778,-0.086122,-9.8516,0,0,45.427,1,1,754,999
10956,6.2485e+07,1,0.00056972,0.0053629,0.0038314,-0.28912,-0.065644,-9.8174,0,0,45.427,1,1,754,999
10959,6.2487e+07,1,0.0013338,0.0049004,0.0027395,-0.28768,-0.05553,-9.8109,0,0,45.427,1,1,754,999
10963,6.249e+07,1,-0.00014989,0.0046271,0.0010992,-0.29494,-0.057261,-9.8165,0,0,45.427,1,1,754,999
10966,6.2492e+07,1,-0.0011146,0.003124,0.0016178,-0.30017,-0.064733,-9.8207,0,0,45.427,1,1,754,999
10997,6.2495e+07,1,-0.0026704,0.00028174,0.0035142,-0.29051,-0.073731,-9.8179,0,0,45.427,1,1,754,999
11000,6.2498e+07,1,-0.0043075,-7.1712e-05,0.0042831,-0.28947,-0.074843,-9.8181,0,0,45.427,1,1,754,999
11005,6.25e+07,1,-0.0046892,0.0011454,0.0049853,-0.29618,-0.076932,-9.8168,0,0,45.427,1,1,754,999
11008,6.2503e+07,1,-0.0052075,0.0036198,0.004421,-0.30222,-0.072402,-9.8147,0,0,45.427,1,1,754,999
11039,6.2505e+07,1,-0.004776,0.0085942,0.0026633,-0.3179,-0.045208,-9.8202,0,0,45.427,1,1,754,999
11042,6.2513e+07,1,-0.0036652,0.012344,-0.0059331,-0.32221,-0.00085941,-9.8323,0,0,45.427,1,1,754,999
11074,6.2516e+07,1,-0.0041528,0.010627,-0.0059337,-0.31026,0.0028974,-9.8319,0,0,45.427,1,1,754,999
11077,6.2518e+07,1,-0.0032308,0.0053029,-0.0068193,-0.30407,-0.00057635,-9.8282,0,0,45.427,1,1,754,999
11080,6.2521e+07,1,-0.0023948,0.0039976,-0.0069358,-0.31112,-0.0083471,-9.8236,0,0,45.427,1,1,754,999
11083,6.2524e+07,1,-0.0027585,0.0036668,-0.0060672,-0.31224,-0.01521,-9.8116,0,0,45.427,1,1,754,999
11114,6.2526e+07,1,-0.0028965,0.0021827,0.00098121,-0.28996,-0.013857,-9.8021,0,0,45.427,1,1,754,999
11117,6.253e+07,1,-0.0018448,0.00017029,0.0013075,-0.27435,-0.015245,-9.8093,0,0,45.427,1,1,754,999
11120,6.2531e+07,1,-0.0035877,-0.0028107,-0.00073395,-0.26285,-0.020007,-9.8226,0,0,45.427,1,1,754,999
11123,6.2534e+07,1,-0.0044554,-0.0030363,-0.0014681,-0.25873,-0.026618,-9.8126,0,0,45.427,1,1,754,999
11154,6.2537e+07,1,-0.0039337,-0.00082578,-0.0061186,-0.25438,-0.025983,-9.7966,0,0,45.427,1,1,754,999
11158,6.2539e+07,1,-0.0022395,0.00041751,-0.0050357,-0.24541,-0.025732,-9.7971,0,0,45.427,1,1,754,999
11161,6.2542e+07,1,-0.001386,-0.0019707,-0.0013099,-0.24391,-0.028737,-9.7985,0,0,45.427,1,1,754,999
11164,6.2545e+07,1,-0.0014536,-0.0022793,-9.6267e-06,-0.24621,-0.036482,-9.7886,0,0,45.427,1,1,754,999
11195,6.2547e+07,1,0.0001708,-0.0040208,0.00061556,-0.24268,-0.027355,-9.7687,0,0,45.428,1,1,754,999
11198,6.255e+07,1,0.00062805,-0.0050559,0.00030529,-0.23455,-0.021522,-9.7693,0,0,45.428,1,1,754,999
11202,6.2552e+07,1,0.0024087,-0.0057144,0.00077711,-0.22503,-0.022115,-9.7609,0,0,45.428,1,1,754,999
11205,6.2555e+07,1,0.0035247,-0.0060397,-0.0006128,-0.22131,-0.027771,-9.7471,0,0,45.428,1,1,754,999
11236,6.2557e+07,1,0.0044485,-0.0037922,-0.00064425,-0.22501,-0.03817,-9.748,0,0,45.428,1,1,754,999
11240,6.256e+07,1,0.004255,-9.1736e-05,0.0030118,-0.23614,-0.03858,-9.7515,0,0,45.428,1,1,754,999
11243,6.2562e+07,1,0.0017968,0.0013738,0.0041925,-0.2574,-0.032038,-9.7508,0,0,45.428,1,1,754,999
11246,6.2565e+07,1,0.00051802,-2.2041e-06,0.0036264,-0.26737,-0.03053,-9.732,0,0,45.428,1,1,754,999
11281,6.2568e+07,1,-0.0030632,-0.0040289,0.00094132,-0.26986,-0.035707,-9.6835,0,0,45.428,1,1,754,999
11284,6.2571e+07,1,-0.0025754,-0.003706,-0.00030082,-0.27436,-0.035836,-9.6769,0,0,45.428,1,1,754,999
11287,6.2573e+07,1,0.0010782,-0.0017221,0.00051228,-0.28048,-0.03767,-9.6764,0,0,45.428,1,1,754,999
11291,6.2576e+07,1,0.0052914,-8.786e-05,0.0015364,-0.29119,-0.051535,-9.6803,0,0,45.428,1,1,754,999
11322,6.2578e+07,1,0.0074712,0.001419,0.0015954,-0.28922,-0.064401,-9.6676,0,0,45.428,1,1,754,999
11326,6.2581e+07,1,0.0075055,0.0033566,0.00066001,-0.28418,-0.077863,-9.6533,0,0,45.428,1,1,754,999
11329,6.2583e+07,1,0.0066909,0.0050227,-3.8334e-05,-0.27582,-0.08627,-9.6494,0,0,45.428,1,1,754,999
11332,6.2586e+07,1,0.0045942,0.0082772,-0.0018042,-0.26848,-0.098894,-9.666,0,0,45.428,1,1,754,999
11363,6.2588e+07,1,-0.00099321,0.0093548,-0.0071192,-0.2565,-0.11263,-9.6853,0,0,45.428,1,1,754,999
11367,6.2591e+07,1,-0.0024147,0.0093806,-0.0085133,-0.24991,-0.11749,-9.6862,0,0,45.428,1,1,754,999
11370,6.2594e+07,1,-0.0041141,0.0083111,-0.0086068,-0.24509,-0.10592,-9.686,0,0,45.428,1,1,754,999
11375,6.2596e+07,1,-0.003496,0.0065196,-0.0070014,-0.25497,-0.089362,-9.6829,0,0,45.428,1,1,754,999
11406,6.2598e+07,1,-0.00099178,0.0044939,-0.0032039,-0.27406,-0.071819,-9.6873,0,0,45.428,1,1,754,999
11409,6.2601e+07,1,-0.0017985,0.0037352,0.0017537,-0.29095,-0.068694,-9.6844,0,0,45.428,1,1,754,999
11412,6.2604e+07,1,-0.0022273,0.0013446,0.0026109,-0.30798,-0.057277,-9.6921,0,0,45.428,1,1,754,999
11415,6.2607e+07,1,0.00013052,-0.0054944,0.0020753,-0.32373,-0.039418,-9.7037,0,0,45.428,1,1,754,999
11418,6.2611e+07,1,0.0033982,-0.010907,-0.0038749,-0.3405,-0.041045,-9.7147,0,0,45.428,1,1,754,999
11450,6.2614e+07,1,0.0048315,-0.0063949,-0.0059152,-0.33107,-0.053873,-9.7209,0,0,45.428,1,1,754,999
11453,6.2617e+07,1,0.0043457,-0.0013294,-0.0045865,-0.32787,-0.070338,-9.7277,0,0,45.428,1,1,754,999
11456,6.262e+07,1,0.0022841,0.0014384,-0.0030488,-0.31223,-0.089288,-9.7277,0,0,45.428,1,1,754,999
11459,6.2622e+07,1,9.4357e-05,0.0042273,-0.0033453,-0.31076,-0.096377,-9.7365,0,0,45.428,1,1,754,999
11492,6.2625e+07,1,-0.0016243,0.0063314,-0.0032315,-0.31873,-0.099255,-9.7518,0,0,45.428,1,1,754,999
11496,6.2627e+07,1,-0.0043954,0.0061157,-0.0032176,-0.32321,-0.092189,-9.7602,0,0,45.428,1,1,754,999
11499,6.263e+07,1,-0.0066889,0.0055956,-0.0017086,-0.33316,-0.087868,-9.7428,0,0,45.428,1,1,754,999
11502,6.2632e+07,1,-0.0053523,0.0042565,0.0014398,-0.33768,-0.087672,-9.7311,0,0,45.428,1,1,754,999
11533,6.2635e+07,1,-0.0021019,0.0030561,0.0038154,-0.33972,-0.082425,-9.7415,0,0,45.428,1,1,754,999
11536,6.2637e+07,1,5.1725e-06,0.00078464,0.0037687,-0.34224,-0.075236,-9.7347,0,0,45.428,1,1,754,999
11539,6.264e+07,1,0.0009895,-0.0009538,0.0032251,-0.33809,-0.072001,-9.7265,0,0,45.428,1,1,754,999
11542,6.2642e+07,1,0.0024012,-0.0041044,0.0021206,-0.31506,-0.075463,-9.7259,0,0,45.428,1,1,754,999
11573,6.2645e+07,1,0.00046257,-0.00203,-0.00021648,-0.29626,-0.074817,-9.7338,0,0,45.428,1,1,754,999
11577,6.2648e+07,1,-0.0022746,0.0029915,-0.0023563,-0.27348,-0.071164,-9.7509,0,0,45.428,1,1,754,999
11580,6.265e+07,1,-0.001665,0.0059013,-0.0025729,-0.25991,-0.070144,-9.7712,0,0,45.428,1,1,754,999
11583,6.2652e+07,1,-0.00063619,0.0051978,-0.00030339,-0.24842,-0.067996,-9.787,0,0,45.428,1,1,754,999
11614,6.2654e+07,1,-0.00066504,0.0044006,0.0011148,-0.24577,-0.066239,-9.7967,0,0,45.428,1,1,754,999
11617,6.2658e+07,1,-0.0010778,0.00037044,0.0056607,-0.25432,-0.080893,-9.818,0,0,45.428,1,1,754,999
11620,6.266e+07,1,-0.0019121,-0.00025681,0.0057777,-0.26295,-0.089989,-9.8392,0,0,45.428,1,1,754,999
11623,6.2662e+07,1,-0.0061194,0.0025394,0.00019738,-0.27523,-0.098465,-9.8679,0,0,45.428,1,1,754,999
11654,6.2665e+07,1,-0.0064559,0.0036227,-0.0010446,-0.30304,-0.11021,-9.8985,0,0,45.428,1,1,754,999
11658,6.2667e+07,1,-0.0046124,0.0025747,-0.0015726,-0.33975,-0.10565,-9.8997,0,0,45.428,1,1,754,999
11665,6.267e+07,1,-0.0030832,-0.0014947,-0.0018226,-0.36108,-0.098098,-9.8847,0,0,45.428,1,1,754,999
11668,6.2672e+07,1,-0.0029334,-0.0036864,-0.003751,-0.39155,-0.084059,-9.8613,0,0,45.428,1,1,754,999
11699,6.2675e+07,1,-0.0030435,-0.0028169,-0.006481,-0.41326,-0.083182,-9.8596,0,0,45.428,1,1,754,999
11702,6.2677e+07,1,-0.0034785,-0.00020822,-0.0082383,-0.43108,-0.095636,-9.8606,0,0,45.428,1,1,754,999
11705,6.268e+07,1,-0.0042643,0.0010364,-0.0079944,-0.44142,-0.095748,-9.8793,0,0,45.428,1,1,754,999
11709,6.2683e+07,1,-0.0053183,0.0027492,-0.0077792,-0.44834,-0.08544,-9.8888,0,0,45.428,1,1,754,999
11740,6.2686e+07,1,-0.0038866,0.00079098,-0.006366,-0.43764,-0.091672,-9.8699,0,0,45.428,1,1,754,999
11744,6.2688e+07,1,-0.0039739,-0.0011908,-0.0041276,-0.42855,-0.10343,-9.8462,0,0,45.428,1,1,754,999
11747,6.269e+07,1,-0.0029993,-0.0020481,-0.0015871,-0.43545,-0.11032,-9.8088,0,0,45.429,1,1,754,999
11750,6.2693e+07,1,-0.0019466,-0.0016776,-0.0019309,-0.45432,-0.11806,-9.7986,0,0,45.429,1,1,754,999
11781,6.2696e+07,1,-0.00021808,-0.0032827,-0.0024431,-0.46172,-0.12565,-9.7932,0,0,45.429,1,1,754,999
11786,6.2698e+07,1,-0.0012565,-0.0049927,-0.0049426,-0.45401,-0.12784,-9.7854,0,0,45.429,1,1,754,999
11789,6.2701e+07,1,-0.0012951,-0.0069161,-0.0072283,-0.44152,-0.12355,-9.7717,0,0,45.429,1,1,754,999
11792,6.2703e+07,1,0.00013931,-0.0058147,-0.0049918,-0.42274,-0.11301,-9.7692,0,0,45.429,1,1,754,999
11823,6.2705e+07,1,0.001656,-0.0013239,0.0003976,-0.39685,-0.093386,-9.7687,0,0,45.429,1,1,754,999
11827,6.2713e+07,1,0.0048213,-0.0069367,0.0028147,-0.38489,-0.031297,-9.7877,0,0,45.429,1,1,754,999
11858,6.2716e+07,1,0.0032015,-0.0060859,-0.0011256,-0.39263,-0.028383,-9.7904,0,0,45.429,1,1,754,999
11861,6.2718e+07,1,-0.0029551,-0.0045007,-0.0028443,-0.38917,-0.03398,-9.7783,0,0,45.429,1,1,754,999
11864,6.2722e+07,1,-0.0065906,-0.0033695,-0.0039666,-0.3875,-0.042255,-9.7722,0,0,45.429,1,1,754,999
11867,6.2724e+07,1,-0.0089311,0.00079967,-0.005718,-0.37931,-0.060084,-9.7659,0,0,45.429,1,1,754,999
11898,6.2726e+07,1,-0.0044597,0.0011096,-0.0037135,-0.35183,-0.075935,-9.7645,0,0,45.429,1,1,754,999
11902,6.2729e+07,1,-0.0023549,0.0020619,-0.0025035,-0.33073,-0.084352,-9.7594,0,0,45.429,1,1,754,999
11906,6.2732e+07,1,-0.00024309,0.0047487,-0.0021547,-0.30936,-0.089023,-9.7521,0,0,45.429,1,1,754,999
11909,6.2734e+07,1,-0.00082437,0.00449,-0.0023935,-0.29436,-0.085002,-9.7638,0,0,45.429,1,1,754,999
11940,6.2737e+07,1,-0.00069558,0.0013794,0.00070133,-0.27733,-0.070901,-9.8075,0,0,45.428,1,1,754,999
11944,6.274e+07,1,9.0357e-05,-0.0020457,0.0019741,-0.28139,-0.067495,-9.8317,0,0,45.428,1,1,754,999
11947,6.2742e+07,1,-0.00014591,-0.0028479,0.0015183,-0.29098,-0.062699,-9.8442,0,0,45.428,1,1,754,999
11950,6.2745e+07,1,-0.00098947,-0.0015762,-0.00061869,-0.28802,-0.063501,-9.8372,0,0,45.428,1,1,754,999
11981,6.2747e+07,1,-0.0006815,-0.0005064,-0.002728,-0.27637,-0.068811,-9.8097,0,0,45.428,1,1,754,999
11984,6.275e+07,1,-9.2178e-05,-0.00076746,-0.0019906,-0.26358,-0.075313,-9.7904,0,0,45.428,1,1,754,999
11987,6.2752e+07,1,0.00092853,-0.0035148,0.00028435,-0.25357,-0.077608,-9.7865,0,0,45.428,1,1,754,999
11990,6.2754e+07,1,8.6812e-05,-0.0056588,0.00095031,-0.25536,-0.080421,-9.7795,0,0,45.428,1,1,754,999
12021,6.2757e+07,1,-0.0008826,-0.0036192,0.0022744,-0.25575,-0.073471,-9.7596,0,0,45.428,1,1,754,999
12025,6.276e+07,1,-0.0016554,0.001397,0.0023802,-0.25913,-0.071445,-9.762,0,0,45.428,1,1,754,999
12028,6.2762e+07,1,-0.0014472,0.0039317,0.00081469,-0.26892,-0.073121,-9.7761,0,0,45.428,1,1,754,999
12031,6.2765e+07,1,-0.00012608,0.0056749,-0.0028223,-0.29718,-0.077419,-9.8089,0,0,45.428,1,1,754,999
12064,6.2767e+07,1,0.0010301,0.0078421,-0.0043862,-0.33627,-0.083961,-9.8318,0,0,45.428,1,1,754,999
12068,6.277e+07,1,0.0012807,0.00868,-0.0047501,-0.37083,-0.082106,-9.8341,0,0,45.428,1,1,754,999
12075,6.2773e+07,1,0.0022332,0.0082966,-0.005465,-0.39776,-0.088182,-9.83,0,0,45.428,1,1,754,999
12080,6.2775e+07,1,0.0027838,0.0070204,-0.0045917,-0.41642,-0.10459,-9.8163,0,0,45.428,1,1,754,999
12111,6.2778e+07,1,0.0018593,0.0071182,-0.0027942,-0.41523,-0.11311,-9.7979,0,0,45.428,1,1,754,999
12114,6.278e+07,1,-0.00073438,0.0048336,0.0013744,-0.40304,-0.13009,-9.7702,0,0,45.428,1,1,754,999
12117,6.2782e+07,1,-0.00029225,0.0027727,0.0024866,-0.38786,-0.13448,-9.7519,0,0,45.428,1,1,754,999
12120,6.2786e+07,1,0.0010845,-0.0021931,0.002365,-0.37192,-0.11837,-9.7435,0,0,45.428,1,1,754,999
12151,6.2788e+07,1,-0.00079853,-0.0023803,0.00047521,-0.35782,-0.096264,-9.7477,0,0,45.428,1,1,754,999
12155,6.2791e+07,1,-0.002023,-0.0014493,-0.00030917,-0.34935,-0.090477,-9.7552,0,0,45.428,1,1,754,999
12159,6.2793e+07,1,-0.0087538,-0.0012035,-0.0039975,-0.33437,-0.092117,-9.7454,0,0,45.428,1,1,754,999
12162,6.2796e+07,1,-0.0099545,-0.0010098,-0.0036485,-0.32164,-0.099121,-9.7205,0,0,45.428,1,1,754,999
12193,6.2799e+07,1,-0.0087232,-0.0005333,-0.0020278,-0.3027,-0.097697,-9.7028,0,0,45.428,1,1,754,999
12196,6.2801e+07,1,-0.0054512,0.00013794,-0.0018202,-0.29851,-0.094722,-9.7191,0,0,45.428,1,1,754,999
12200,6.2803e+07,1,-0.0024991,0.0013982,-0.0030698,-0.31029,-0.086851,-9.7488,0,0,45.427,1,1,754,999
12203,6.2805e+07,1,-0.0003932,0.002376,0.00042443,-0.31365,-0.092163,-9.7566,0,0,45.427,1,1,754,999
12234,6.2808e+07,1,0.00092334,0.0034273,0.0046312,-0.3209,-0.10598,-9.7495,0,0,45.427,1,1,754,999
12238,6.2812e+07,1,0.00052824,0.0028489,0.0057342,-0.33374,-0.10981,-9.7465,0,0,45.427,1,1,754,999
12241,6.2815e+07,1,-0.0026186,-0.0025149,0.0056163,-0.34502,-0.10851,-9.7432,0,0,45.427,1,1,754,999
12244,6.2816e+07,1,-0.0037073,-0.0066826,0.0019441,-0.34617,-0.097502,-9.7407,0,0,45.427,1,1,754,999
12275,6.2819e+07,1,-0.0046294,-0.010988,-0.0012975,-0.34151,-0.083432,-9.7662,0,0,45.427,1,1,754,999
12278,6.2821e+07,1,-0.0055991,-0.0098904,-0.0060578,-0.33843,-0.069818,-9.79,0,0,45.427,1,1,754,999
12281,6.2825e+07,1,-0.0050977,-0.0065131,-0.0075395,-0.33146,-0.052869,-9.7952,0,0,45.427,1,1,754,999
12284,6.2827e+07,1,-0.0021431,0.0007254,-0.0065845,-0.30589,-0.03181,-9.7769,0,0,45.427,1,1,754,999
12317,6.283e+07,1,0.001191,0.0050923,-0.0022233,-0.29116,-0.019163,-9.7601,0,0,45.427,1,1,754,999
12321,6.2832e+07,1,0.00041049,0.0048705,-0.0014976,-0.287,-0.018818,-9.7637,0,0,45.427,1,1,754,999
12324,6.2834e+07,1,-0.0035827,0.0042367,-0.00057516,-0.27859,-0.0072849,-9.7776,0,0,45.427,1,1,754,999
12327,6.2837e+07,1,-0.004633,0.0044256,0.00049547,-0.26855,0.0040528,-9.7743,0,0,45.427,1,1,754,999
12358,6.284e+07,1,-0.0052761,0.0054737,0.0019548,-0.25296,0.00010338,-9.7776,0,0,45.427,1,1,754,999
12362,6.2842e+07,1,-0.00058492,0.0058967,0.0010068,-0.24033,-0.016069,-9.778,0,0,45.427,1,1,754,999
12365,6.2845e+07,1,0.00047051,0.0050702,0.00046125,-0.24725,-0.027864,-9.7757,0,0,45.427,1,1,754,999
12368,6.2847e+07,1,0.0020171,0.0039973,-0.0017288,-0.27738,-0.054031,-9.7928,0,0,45.426,1,1,754,999
12399,6.285e+07,1,0.0036615,0.0028335,-0.003719,-0.29856,-0.069949,-9.7966,0,0,45.426,1,1,754,999
12402,6.2853e+07,1,0.0022734,0.001621,-0.0046681,-0.32437,-0.095551,-9.7704,0,0,45.426,1,1,754,999
12405,6.2855e+07,1,0.0026144,0.0015671,-0.0058813,-0.33724,-0.10904,-9.7375,0,0,45.426,1,1,754,999
12408,6.2857e+07,1,0.0021799,0.0024659,-0.0063318,-0.34992,-0.10241,-9.6994,0,0,45.426,1,1,754,999
12439,6.286e+07,1,0.00046763,0.0034976,-0.0060637,-0.35618,-0.093241,-9.6875,0,0,45.426,1,1,754,999
12443,6.2863e+07,1,-0.0022971,0.0084218,-0.003353,-0.36117,-0.085117,-9.6802,0,0,45.426,1,1,754,999
12446,6.2865e+07,1,-0.0025335,0.0089555,-0.003153,-0.36081,-0.076821,-9.6788,0,0,45.426,1,1,754,999
12449,6.2867e+07,1,-0.0025803,0.0086686,-0.0047654,-0.35166,-0.07007,-9.7018,0,0,45.426,1,1,754,999
12480,6.287e+07,1,-0.0011862,0.0078995,-0.0058232,-0.33771,-0.06709,-9.7358,0,0,45.426,1,1,754,999
12483,6.2872e+07,1,0.00047132,0.0045281,-0.0072822,-0.32091,-0.06,-9.7745,0,0,45.426,1,1,754,999
12491,6.2875e+07,1,0.0010051,0.0023112,-0.006536,-0.3145,-0.051895,-9.7871,0,0,45.426,1,1,754,999
12494,6.2878e+07,1,0.0010852,0.0014097,-0.0043877,-0.2994,-0.042054,-9.798,0,0,45.426,1,1,754,999
12525,6.288e+07,1,-0.0011482,0.0038623,-0.0026336,-0.28337,-0.020342,-9.7967,0,0,45.426,1,1,754,999
12529,6.2883e+07,1,-0.0042999,0.007609,-0.00070739,-0.27002,-0.010754,-9.7858,0,0,45.426,1,1,754,999
12532,6.2885e+07,1,-0.004143,0.0066392,0.00052875,-0.26191,-0.0020603,-9.7777,0,0,45.426,1,1,754,999
12535,6.2888e+07,1,-0.0026162,0.0038982,0.0023199,-0.26737,0.004444,-9.7794,0,0,45.426,1,1,754,999
12566,6.2891e+07,1,-0.002415,-0.0031294,0.0015219,-0.29035,0.011253,-9.7705,0,0,45.425,1,1,754,999
12569,6.2893e+07,1,-0.0026845,-0.004732,0.00053691,-0.29123,0.0091165,-9.7694,0,0,45.425,1,1,754,999
12572,6.2896e+07,1,-0.0031161,-0.0061632,0.00073829,-0.29274,0.00024441,-9.762,0,0,45.425,1,1,754,999
12575,6.2899e+07,1,-0.0030382,-0.0045248,0.0019579,-0.30018,-0.0045729,-9.746,0,0,45.425,1,1,754,999
12606,6.2901e+07,1,-0.0023882,-0.003237,0.0013686,-0.328,-0.023771,-9.7276,0,0,45.425,1,1,754,999
12610,6.2904e+07,1,0.00063946,-0.004139,0.00087361,-0.34744,-0.045757,-9.7264,0,0,45.425,1,1,754,999
12613,6.2906e+07,1,0.0034103,-0.0031453,0.0019769,-0.37391,-0.075114,-9.7232,0,0,45.425,1,1,754,999
12616,6.2909e+07,1,0.003813,-0.0015646,0.003006,-0.3792,-0.083758,-9.7183,0,0,45.425,1,1,754,999
12647,6.2911e+07,1,0.0025636,0.0027837,0.0057329,-0.37381,-0.10448,-9.7213,0,0,45.425,1,1,754,999
12652,6.2915e+07,1,0.0016464,0.0036044,0.0050467,-0.37001,-0.12873,-9.7278,0,0,45.425,1,1,754,999
12655,6.2919e+07,1,0.0037413,0.0026129,-0.00041206,-0.3636,-0.15061,-9.7496,0,0,45.425,1,1,754,999
12686,6.2922e+07,1,0.0044399,-0.00049108,-0.00022733,-0.36339,-0.13658,-9.7557,0,0,45.424,1,1,754,999
12689,6.2924e+07,1,0.0030854,-0.0036975,-9.1141e-05,-0.36709,-0.1266,-9.752,0,0,45.424,1,1,754,999
12692,6.2928e+07,1,0.0027222,-0.0019051,0.0013347,-0.37173,-0.1178,-9.7525,0,0,45.424,1,1,754,999
12695,6.293e+07,1,0.0026585,-0.0008295,0.0024565,-0.37018,-0.11439,-9.7474,0,0,45.424,1,1,754,999
12726,6.2933e+07,1,0.0024662,-0.0011303,0.0033965,-0.35911,-0.097613,-9.7255,0,0,45.424,1,1,754,999
12731,6.2935e+07,1,-0.00081649,-0.00013141,0.00016326,-0.34666,-0.077795,-9.6885,0,0,45.424,1,1,754,999
12734,6.2938e+07,1,-0.0034393,0.0003871,-0.0020479,-0.33816,-0.068534,-9.6763,0,0,45.424,1,1,754,999
12737,6.2941e+07,1,-0.0070568,0.00098018,-0.0055676,-0.33217,-0.067931,-9.6632,0,0,45.424,1,1,754,999
12768,6.2943e+07,1,-0.0080758,0.0010251,-0.0062854,-0.33845,-0.088714,-9.6794,0,0,45.424,1,1,754,999
12771,6.2946e+07,1,-0.0073909,0.0011383,-0.0056596,-0.34577,-0.099479,-9.6894,0,0,45.424,1,1,754,999
12774,6.2948e+07,1,-0.001941,0.00079163,-0.0004586,-0.35413,-0.10472,-9.6916,0,0,45.424,1,1,754,999
12777,6.2951e+07,1,-0.00048047,0.00063491,0.00071282,-0.34777,-0.096353,-9.6887,0,0,45.424,1,1,754,999
12808,6.2954e+07,1,0.0021411,0.00095641,0.0013186,-0.33974,-0.080633,-9.6879,0,0,45.424,1,1,754,999
12812,6.2956e+07,1,0.0049739,0.0012517,4.2504e-05,-0.34271,-0.055131,-9.7001,0,0,45.423,1,1,754,999
12815,6.2958e+07,1,0.0050093,0.00094863,-8.7755e-05,-0.35373,-0.034729,-9.7232,0,0,45.423,1,1,754,999
12818,6.2961e+07,1,0.0038792,-0.00050079,0.0003513,-0.35936,-0.012386,-9.762,0,0,45.423,1,1,754,999
12849,6.2963e+07,1,0.0028922,-0.0020124,-0.00020303,-0.35818,-0.012384,-9.7831,0,0,45.423,1,1,754,999
12852,6.2966e+07,1,0.00077007,-0.0025753,-0.0018625,-0.34694,-0.024099,-9.7964,0,0,45.423,1,1,754,999
12855,6.2969e+07,1,-0.0013939,-0.00061883,-0.0011364,-0.33759,-0.044085,-9.795,0,0,45.423,1,1,754,999
12858,6.2971e+07,1,-0.0013364,0.00060068,0.0023236,-0.33405,-0.092592,-9.7782,0,0,45.423,1,1,754,999
12889,6.2974e+07,1,-0.0019978,0.0015154,0.0035281,-0.34676,-0.11509,-9.7618,0,0,45.423,1,1,754,999
12893,6.2976e+07,1,-0.0019403,0.0018264,0.0012269,-0.36204,-0.14237,-9.7304,0,0,45.423,1,1,754,999
12902,6.2979e+07,1,-0.0018589,0.0011801,0.00064055,-0.36343,-0.15871,-9.7126,0,0,45.423,1,1,754,999
12905,6.2981e+07,1,0.0034652,-0.0018335,0.0026887,-0.35712,-0.16879,-9.7065,0,0,45.423,1,1,754,999
12936,6.2984e+07,1,0.0055949,-0.003016,0.0033704,-0.34818,-0.16634,-9.713,0,0,45.423,1,1,754,999
12940,6.2986e+07,1,0.0046678,-0.0030619,0.0026729,-0.35152,-0.16547,-9.7197,0,0,45.423,1,1,754,999
12943,6.2988e+07,1,0.0020524,-0.0018289,0.00016632,-0.35869,-0.16347,-9.7309,0,0,45.422,1,1,754,999
12946,6.2992e+07,1,0.0018831,-0.0010051,-0.001708,-0.35338,-0.15435,-9.7529,0,0,45.422,1,1,754,999
12977,6.2994e+07,1,0.0036938,0.00062635,-0.0023456,-0.33973,-0.15572,-9.7754,0,0,45.422,1,1,754,999
12980,6.2997e+07,1,0.0054647,0.00071003,-0.0023636,-0.33034,-0.16591,-9.782,0,0,45.422,1,1,754,999
12983,6.2999e+07,1,0.0045286,-0.00017842,-0.00057299,-0.3293,-0.16996,-9.7814,0,0,45.422,1,1,754,999
12986,6.3001e+07,1,0.0039418,0.00013761,0.0026145,-0.33499,-0.16849,-9.7755,0,0,45.422,1,1,754,999
13017,6.3004e+07,1,0.0031694,0.0011437,0.0042523,-0.34084,-0.16504,-9.7853,0,0,45.422,1,1,754,999
13021,6.3007e+07,1,0.00095664,0.0011861,0.0023173,-0.35372,-0.16679,-9.7978,0,0,45.422,1,1,754,999
13024,6.3009e+07,1,-0.00023374,-0.00017183,-0.0031124,-0.36228,-0.18147,-9.8134,0,0,45.422,1,1,754,999
13027,6.3011e+07,1,-0.00011225,-0.0010222,-0.0057872,-0.37354,-0.19131,-9.822,0,0,45.422,1,1,754,999
13058,6.3014e+07,1,0.00020724,-0.0028561,-0.0076094,-0.40259,-0.20103,-9.8131,0,0,45.422,1,1,754,999
13061,6.3022e+07,1,0.00090309,0.0025431,-0.00065917,-0.3907,-0.1567,-9.7853,0,0,45.422,1,1,754,999
13092,6.3025e+07,1,0.0012992,0.0024297,-0.00076394,-0.37873,-0.13823,-9.7732,0,0,45.422,1,1,754,999
13095,6.3027e+07,1,0.00018977,0.0028197,-0.00083493,-0.35266,-0.10207,-9.7522,0,0,45.422,1,1,754,999
13098,6.303e+07,1,-0.002274,0.0034606,0.0024505,-0.33002,-0.070866,-9.7548,0,0,45.422,1,1,754,999
13101,6.3033e+07,1,-0.0031806,0.004343,0.0039267,-0.29849,-0.033513,-9.7803,0,0,45.421,1,1,754,999
13134,6.3036e+07,1,-0.00179,0.0078673,0.0045265,-0.27908,-0.019151,-9.8058,0,0,45.421,1,1,754,999
13137,6.3038e+07,1,-0.0015567,0.010558,0.0034826,-0.26392,-0.0084513,-9.8104,0,0,45.421,1,1,754,999
13140,6.3041e+07,1,-0.0023596,0.010042,0.000336,-0.23778,-0.0019906,-9.8082,0,0,45.421,1,1,754,999
13143,6.3043e+07,1,-0.0031788,0.0074765,-0.0014007,-0.22723,-0.016738,-9.8062,0,0,45.421,1,1,754,999
13174,6.3046e+07,1,-0.0024794,0.0052778,-0.00014959,-0.23193,-0.046274,-9.8032,0,0,45.421,1,1,754,999
13178,6.3049e+07,1,-0.00063515,0.003734,0.0011288,-0.24831,-0.059597,-9.7838,0,0,45.421,1,1,754,999
13181,6.3051e+07,1,0.00029733,0.004426,-0.00082792,-0.25271,-0.071714,-9.762,0,0,45.421,1,1,754,999
13185,6.3053e+07,1,0.00072711,0.0063729,-0.0041978,-0.25337,-0.082992,-9.7317,0,0,45.421,1,1,754,999
13216,6.3056e+07,1,0.0014142,0.0068079,-0.0040256,-0.25245,-0.082988,-9.7224,0,0,45.421,1,1,754,999
13220,6.3059e+07,1,0.0031154,0.0080279,-0.0024516,-0.25239,-0.072042,-9.7392,0,0,45.421,1,1,754,999
13224,6.3061e+07,1,0.0042971,0.0082468,-0.0018214,-0.25382,-0.063647,-9.7531,0,0,45.421,1,1,754,999
13227,6.3063e+07,1,0.0086085,0.0053413,-0.0021562,-0.25918,-0.06488,-9.7788,0,0,45.421,1,1,754,999
13258,6.3066e+07,1,0.008321,0.0028348,-0.0028695,-0.2768,-0.085076,-9.8027,0,0,45.42,1,1,754,999
13261,6.3069e+07,1,0.0067702,0.0018604,-0.0018949,-0.28808,-0.10473,-9.8288,0,0,45.42,1,1,754,999
13264,6.3071e+07,1,0.0022036,0.0011535,0.00069112,-0.29725,-0.11591,-9.8469,0,0,45.42,1,1,754,999
13267,6.3073e+07,1,-0.0032495,0.0018518,0.00079606,-0.31502,-0.12375,-9.8419,0,0,45.42,1,1,754,999
13298,6.3076e+07,1,-0.0049275,0.0015815,0.00035287,-0.32464,-0.13623,-9.8229,0,0,45.42,1,1,754,999
13302,6.3078e+07,1,-0.0032796,0.001685,-0.00085784,-0.34127,-0.16228,-9.7773,0,0,45.42,1,1,754,999
13309,6.3082e+07,1,-0.0023094,0.0028605,-0.0015723,-0.35017,-0.17016,-9.7464,0,0,45.42,1,1,754,999
13312,6.3084e+07,1,-0.00039079,0.0075417,-0.0010648,-0.36349,-0.1744,-9.7037,0,0,45.42,1,1,754,999
13343,6.3086e+07,1,0.0014895,0.0074584,0.0019961,-0.36595,-0.17508,-9.6891,0,0,45.42,1,1,754,999
13346,6.3089e+07,1,-0.00094022,0.0081695,0.0060297,-0.3653,-0.18449,-9.6853,0,0,45.42,1,1,754,999
13349,6.3091e+07,1,-0.0039692,0.0083049,0.0056445,-0.36281,-0.19254,-9.6685,0,0,45.42,1,1,754,999
13352,6.3095e+07,1,-0.0044281,0.0077135,0.0039961,-0.35861,-0.18611,-9.653,0,0,45.42,1,1,754,999
13383,6.3097e+07,1,-0.0019233,0.0047519,0.001795,-0.36619,-0.15326,-9.6369,0,0,45.42,1,1,754,999
13387,6.31e+07,1,-9.3128e-05,0.0034732,0.00095737,-0.36759,-0.1389,-9.6231,0,0,45.42,1,1,754,999
13390,6.3102e+07,1,0.0017298,0.0037399,0.00093455,-0.36013,-0.12026,-9.6166,0,0,45.42,1,1,754,999
13393,6.3105e+07,1,0.0015019,0.0037004,0.0017846,-0.36658,-0.10501,-9.6251,0,0,45.42,1,1,754,999
13424,6.3108e+07,1,-0.00040162,0.0022765,0.0016841,-0.37919,-0.075397,-9.6294,0,0,45.42,1,1,754,999
13427,6.311e+07,1,-0.0013332,0.0027958,0.0011745,-0.38569,-0.063098,-9.6331,0,0,45.419,1,1,754,999
13430,6.3112e+07,1,-0.0033858,0.0061815,0.00094082,-0.39185,-0.046538,-9.6511,0,0,45.419,1,1,754,999
13434,6.3115e+07,1,-0.0038029,0.0050918,0.0012205,-0.39015,-0.037565,-9.6627,0,0,45.419,1,1,754,999
13465,6.3117e+07,1,-0.0027482,-0.0013679,0.00029779,-0.39125,-0.033298,-9.6588,0,0,45.419,1,1,754,999
13469,6.3125e+07,1,-0.0002905,-0.0016269,-0.0060008,-0.35914,-0.060838,-9.6581,0,0,45.419,1,1,754,999
13500,6.3128e+07,1,0.0028486,0.0028567,-0.0042237,-0.36647,-0.072406,-9.6767,0,0,45.419,1,1,754,999
13505,6.313e+07,1,0.001873,0.0033788,-0.0045991,-0.3825,-0.081377,-9.7157,0,0,45.419,1,1,754,999
13508,6.3133e+07,1,-0.00012441,0.00068107,-0.006901,-0.39081,-0.07548,-9.7445,0,0,45.419,1,1,754,999
13511,6.3136e+07,1,-0.0011539,0.00056936,-0.0062626,-0.39387,-0.048498,-9.7912,0,0,45.419,1,1,754,999
13542,6.3138e+07,1,-0.00058373,0.0016648,-0.0029877,-0.37876,-0.028994,-9.8242,0,0,45.419,1,1,754,999
13545,6.3141e+07,1,0.00064447,0.0014132,0.0029301,-0.36657,-0.025005,-9.8463,0,0,45.419,1,1,754,999
13548,6.3144e+07,1,-6.5568e-05,0.00049665,0.0079318,-0.34836,-0.029555,-9.8556,0,0,45.419,1,1,754,999
13551,6.3146e+07,1,-0.0035351,0.00024739,0.0082297,-0.33894,-0.041151,-9.8502,0,0,45.419,1,1,754,999
13582,6.3149e+07,1,-0.0040871,0.00064878,0.0037869,-0.33,-0.053503,-9.8354,0,0,45.419,1,1,754,999
13586,6.3151e+07,1,-0.0032574,0.0016471,0.001241,-0.32544,-0.052116,-9.825,0,0,45.419,1,1,754,999
13589,6.3153e+07,1,-0.0011796,0.0036506,-0.00063251,-0.32393,-0.045043,-9.7902,0,0,45.419,1,1,754,999
13592,6.3156e+07,1,-0.0017268,0.001286,0.00033212,-0.32971,-0.044242,-9.7565,0,0,45.419,1,1,754,999
13623,6.3158e+07,1,-0.0022091,-0.0028368,-8.8221e-05,-0.34348,-0.056801,-9.7018,0,0,45.419,1,1,754,999
13626,6.3162e+07,1,0.00023877,-0.0010746,-0.0021901,-0.34233,-0.070723,-9.6726,0,0,45.419,1,1,754,999
13630,6.3164e+07,1,0.0014229,-0.00032492,-0.0018471,-0.33859,-0.082032,-9.6701,0,0,45.419,1,1,754,999
13633,6.3166e+07,1,0.0044401,0.00010794,-0.0014136,-0.34215,-0.10661,-9.6774,0,0,45.419,1,1,754,999
13664,6.3169e+07,1,0.0049576,-0.0012839,0.00074713,-0.33498,-0.12525,-9.6945,0,0,45.419,1,1,754,999
13668,6.3171e+07,1,0.0031179,-0.0029075,0.003081,-0.31466,-0.14417,-9.7183,0,0,45.419,1,1,754,999
13671,6.3174e+07,1,0.0036626,-0.0050355,0.0041572,-0.30366,-0.14775,-9.737,0,0,45.419,1,1,754,999
13674,6.3176e+07,1,0.0060011,-0.0046349,0.0028058,-0.29621,-0.14006,-9.7668,0,0,45.419,1,1,754,999
13705,6.3179e+07,1,0.0076413,-0.00028879,0.0022456,-0.28985,-0.14524,-9.7826,0,0,45.419,1,1,754,999
13708,6.3181e+07,1,0.0072996,0.0011173,0.0039973,-0.28635,-0.1654,-9.807,0,0,45.419,1,1,754,999
13715,6.3184e+07,1,0.0061161,0.00078293,0.0045362,-0.28904,-0.17155,-9.8316,0,0,45.419,1,1,754,999
13718,6.3186e+07,1,0.0018876,-0.00067821,0.0012954,-0.2963,-0.17172,-9.851,0,0,45.419,1,1,754,999
13749,6.3189e+07,1,-0.00031502,-0.0014386,-0.0014225,-0.29883,-0.16541,-9.8636,0,0,45.419,1,1,754,999
13753,6.3191e+07,1,-0.0023788,-0.000696,-0.0033315,-0.2922,-0.1713,-9.8506,0,0,45.419,1,1,754,999
13756,6.3193e+07,1,-0.0055594,0.0021126,-0.0044268,-0.28599,-0.18118,-9.8163,0,0,45.419,1,1,754,999
13759,6.3196e+07,1,-0.0052967,0.0040286,-0.0033647,-0.28161,-0.17246,-9.7586,0,0,45.419,1,1,754,999
13791,6.3199e+07,1,-0.0028665,0.0045291,-0.002293,-0.27814,-0.15156,-9.7486,0,0,45.419,1,1,754,999
13795,6.3202e+07,1,-0.0011617,0.0020924,0.00037866,-0.27614,-0.11414,-9.7646,0,0,45.419,1,1,754,999
13799,6.3204e+07,1,-0.00092259,0.00079898,0.0012274,-0.27538,-0.095683,-9.7629,0,0,45.419,1,1,754,999
13802,6.3206e+07,1,-0.0018123,-0.0026567,0.0019477,-0.29679,-0.088045,-9.746,0,0,45.419,1,1,754,999
13833,6.3208e+07,1,-0.0019632,-0.0033685,0.0022836,-0.31898,-0.088765,-9.7448,0,0,45.418,1,1,754,999
13836,6.3211e+07,1,-0.00031304,-0.0010917,0.0027076,-0.35601,-0.08871,-9.7784,0,0,45.418,1,1,754,999
13839,6.3216e+07,1,-0.00020121,0.00029595,0.0012744,-0.38171,-0.095156,-9.8034,0,0,45.418,1,1,754,999
13870,6.3219e+07,1,0.003579,0.0017026,0.00036424,-0.37727,-0.088707,-9.8091,0,0,45.418,1,1,754,999
13874,6.3222e+07,1,0.0047088,0.0019171,0.00086494,-0.36586,-0.078916,-9.8122,0,0,45.418,1,1,754,999
13877,6.3225e+07,1,0.0034647,-0.0005298,0.00094143,-0.35249,-0.072206,-9.8077,0,0,45.418,1,1,754,999
13880,6.3228e+07,1,0.00021625,-0.004384,0.00079313,-0.3569,-0.066983,-9.8252,0,0,45.418,1,1,754,999
13883,6.3229e+07,1,-0.002622,-0.0036103,-0.0011864,-0.36549,-0.064934,-9.8522,0,0,45.418,1,1,754,999
13914,6.3232e+07,1,-0.0031256,0.0010689,-0.0023806,-0.36275,-0.061117,-9.8546,0,0,45.418,1,1,754,999
13917,6.3235e+07,1,-0.0045186,0.0028781,-0.0017152,-0.35757,-0.059231,-9.8505,0,0,45.418,1,1,754,999
13920,6.3238e+07,1,-0.0050937,0.0057346,-0.0030796,-0.35141,-0.054762,-9.8239,0,0,45.418,1,1,754,999
13925,6.324e+07,1,-0.0059997,0.01008,-0.0040825,-0.34755,-0.051952,-9.7917,0,0,45.418,1,1,754,999
13956,6.3243e+07,1,-0.0051897,0.010981,-0.0018265,-0.33272,-0.054382,-9.7503,0,0,45.418,1,1,754,999
13960,6.3245e+07,1,-0.0029767,0.009629,0.0021908,-0.32076,-0.05718,-9.7468,0,0,45.418,1,1,754,999
13964,6.3248e+07,1,-0.0009435,0.0065636,0.0041957,-0.31352,-0.064189,-9.7367,0,0,45.418,1,1,754,999
13967,6.325e+07,1,-0.0010867,0.0026905,0.0038827,-0.29779,-0.087089,-9.7054,0,0,45.418,1,1,754,999
