LineNo,TimeUS,I,GyrX,GyrY,GyrZ,AccX,AccY,AccZ,EG,EA,T,GH,AH,GHz,AHz
186,5.9683e+07,2,-0.00078974,0.0022388,-0.0010901,-0.24353,-0.10592,-9.8256,0,0,36.752,1,1,7746,3872
293,5.9712e+07,2,-0.00028638,0.00058549,0.0024573,-0.24486,-0.095406,-9.8301,0,0,36.753,1,1,7746,3872
324,5.9715e+07,2,-0.0012107,0.00065751,0.0027879,-0.24337,-0.097926,-9.8346,0,0,36.753,1,1,7746,3872
405,5.9739e+07,2,0.0012604,0.0010847,0.0010466,-0.24015,-0.11243,-9.841,0,0,36.754,1,1,7746,3872
436,5.9742e+07,2,0.0019407,0.00071656,0.0015812,-0.24124,-0.1136,-9.8381,0,0,36.754,1,1,7746,3872
516,5.9758e+07,2,-0.00085946,-0.0009557,0.0015836,-0.23401,-0.12701,-9.7987,0,0,36.754,1,1,7746,3872
632,5.9779e+07,2,0.00039334,-0.00013396,-0.00022008,-0.22658,-0.10603,-9.8186,0,0,36.755,1,1,7746,3872
747,5.98e+07,2,-0.0021962,-0.00069493,-0.0012745,-0.22788,-0.11232,-9.8357,0,0,36.755,1,1,7746,3872
862,5.9826e+07,2,-0.00059663,-0.00026947,0.00061045,-0.22339,-0.1144,-9.8329,0,0,36.756,1,1,7746,3872
980,5.9853e+07,2,0.00025938,-0.0031125,-0.00080751,-0.2382,-0.10282,-9.7985,0,0,36.756,1,1,7746,3872
1093,5.9911e+07,2,6.4164e-06,0.00013017,-0.000804,-0.25373,-0.10143,-9.8401,0,0,36.755,1,1,7746,3872
1208,6.0015e+07,2,0.00090407,0.00093484,-0.000399,-0.21977,-0.11713,-9.8209,0,0,36.754,1,1,7746,3872
1239,6.0017e+07,2,-0.00043446,0.00025944,-0.0010225,-0.21913,-0.11978,-9.8177,0,0,36.754,1,1,7746,3872
1295,6.0044e+07,2,0.00051579,-0.00013529,-0.00011489,-0.222,-0.11856,-9.8174,0,0,36.754,1,1,7746,3872
1328,6.0047e+07,2,0.00023581,0.00098437,-0.00057816,-0.22475,-0.11713,-9.8229,0,0,36.754,1,1,7746,3872
1389,6.0064e+07,2,-0.0013458,-0.00092627,0.0011684,-0.2225,-0.11052,-9.8269,0,0,36.754,1,1,7746,3872
1482,6.0085e+07,2,7.7024e-05,-0.00099824,0.0016464,-0.22205,-0.10725,-9.8115,0,0,36.754,1,1,7746,3872
1548,6.0089e+07,2,0.00019171,-0.0020147,0.00022836,-0.22124,-0.11032,-9.812,0,0,36.754,1,1,7746,3872
1551,6.0091e+07,2,7.4926e-05,-0.0025942,0.00065512,-0.22204,-0.11244,-9.8127,0,0,36.754,1,1,7746,3872
1565,6.0099e+07,2,-0.00012262,-0.0025984,0.0010334,-0.22464,-0.11382,-9.814,0,0,36.753,1,1,7746,3872
1573,6.0102e+07,2,-0.00069971,-0.0024764,0.00067145,-0.22289,-0.11032,-9.8151,0,0,36.753,1,1,7746,3872
1604,6.0104e+07,2,-0.00077392,-0.0022355,0.00044598,-0.22233,-0.10855,-9.8135,0,0,36.753,1,1,7746,3872
1607,6.0107e+07,2,-0.00049356,-0.0015049,8.9493e-06,-0.22247,-0.10841,-9.814,0,0,36.753,1,1,7746,3872
1610,6.011e+07,2,-9.7476e-05,-0.00063039,-0.00052944,-0.22322,-0.10838,-9.8173,0,0,36.753,1,1,7746,3872
1613,6.0112e+07,2,0.00047358,-0.00052633,-0.0013107,-0.2237,-0.10759,-9.825,0,0,36.753,1,1,7746,3872
1644,6.0114e+07,2,0.00072602,-0.00026612,-0.00106,-0.22398,-0.10691,-9.8346,0,0,36.753,1,1,7746,3872
1648,6.0117e+07,2,0.00053161,-0.0002374,-0.0011294,-0.22496,-0.10647,-9.8369,0,0,36.753,1,1,7746,3872
1652,6.012e+07,2,0.00036509,0.00037115,-0.00076482,-0.23101,-0.10477,-9.8415,0,0,36.753,1,1,7746,3872
1655,6.0123e+07,2,0.00026839,0.0004322,-0.00089513,-0.23746,-0.10292,-9.8405,0,0,36.753,1,1,7746,3872
1686,6.0125e+07,2,0.00033536,0.00011836,-0.0010983,-0.24568,-0.10201,-9.8356,0,0,36.753,1,1,7746,3872
1689,6.0128e+07,2,0.0015424,-0.0010768,-4.9159e-05,-0.24881,-0.10293,-9.8299,0,0,36.753,1,1,7746,3872
1692,6.013e+07,2,0.0024754,-0.0012804,4.9429e-05,-0.24796,-0.10359,-9.8276,0,0,36.753,1,1,7746,3872
1695,6.0132e+07,2,0.0017729,-0.0015884,-0.00099171,-0.24756,-0.10357,-9.8246,0,0,36.753,1,1,7746,3872
1726,6.0136e+07,2,0.0011454,-0.001327,-0.0014063,-0.24634,-0.10353,-9.8231,0,0,36.753,1,1,7746,3872
1730,6.0138e+07,2,0.00036134,0.00011517,-0.0022076,-0.24357,-0.10415,-9.8198,0,0,36.753,1,1,7746,3872
1733,6.0141e+07,2,-0.00028322,0.0015125,-0.0025304,-0.24063,-0.10539,-9.8176,0,0,36.753,1,1,7746,3872
1736,6.0143e+07,2,-0.00052563,0.0025747,-0.0020997,-0.23974,-0.1064,-9.8172,0,0,36.753,1,1,7746,3872
1767,6.0146e+07,2,-0.00083774,0.0028961,-0.00146,-0.23834,-0.10707,-9.8189,0,0,36.753,1,1,7746,3872
1770,6.0149e+07,2,-0.00090128,0.0029339,-0.0016454,-0.23811,-0.10729,-9.8201,0,0,36.753,1,1,7746,3872
1773,6.0153e+07,2,0.00056755,0.0022661,-0.0038529,-0.24153,-0.11115,-9.8259,0,0,36.753,1,1,7746,3872
1804,6.0156e+07,2,0.0012274,0.0024469,-0.0035198,-0.24309,-0.11089,-9.826,0,0,36.753,1,1,7746,3872
1808,6.0158e+07,2,0.0029087,0.0021857,-0.0015053,-0.24567,-0.11315,-9.8273,0,0,36.753,1,1,7746,3872
1811,6.0161e+07,2,0.0021341,0.0013111,-0.00050978,-0.2483,-0.11368,-9.8293,0,0,36.753,1,1,7746,3872
1814,6.0164e+07,2,0.00070946,0.00072043,0.00065453,-0.25123,-0.11409,-9.8309,0,0,36.753,1,1,7746,3872
1845,6.0166e+07,2,-0.00028177,0.0010181,0.0012885,-0.2546,-0.1144,-9.8292,0,0,36.753,1,1,7746,3872
1849,6.0169e+07,2,-3.2371e-05,0.0017983,0.00082762,-0.25568,-0.11301,-9.8257,0,0,36.753,1,1,7746,3872
1852,6.0171e+07,2,-0.00014358,0.0020741,0.00082475,-0.25512,-0.11335,-9.8219,0,0,36.753,1,1,7746,3872
1855,6.0174e+07,2,-0.00055416,0.002496,0.0012674,-0.25387,-0.11579,-9.8163,0,0,36.753,1,1,7746,3872
1886,6.0177e+07,2,-0.00089236,0.0019889,0.001844,-0.25158,-0.11847,-9.8138,0,0,36.753,1,1,7746,3872
1889,6.0179e+07,2,-0.0016301,0.0014604,0.0015192,-0.25089,-0.11886,-9.8136,0,0,36.753,1,1,7746,3872
1892,6.0182e+07,2,-0.0013418,0.0012147,0.0015116,-0.24788,-0.11977,-9.8109,0,0,36.753,1,1,7746,3872
1895,6.0184e+07,2,-0.0011492,0.00091171,0.0015517,-0.24581,-0.12162,-9.8078,0,0,36.752,1,1,7746,3872
1926,6.0187e+07,2,-0.00097698,0.00036531,0.0018377,-0.24341,-0.12328,-9.8052,0,0,36.752,1,1,7746,3872
1930,6.019e+07,2,-0.0017376,0.00056977,0.001808,-0.24262,-0.12453,-9.799,0,0,36.752,1,1,7746,3872
1933,6.0192e+07,2,-0.0017941,0.0010451,0.0016484,-0.24276,-0.12488,-9.7934,0,0,36.752,1,1,7746,3872
1936,6.0195e+07,2,-0.0010121,0.0012003,0.0014427,-0.24278,-0.12704,-9.7905,0,0,36.752,1,1,7746,3872
1967,6.0197e+07,2,-0.0014622,0.0008903,0.00091597,-0.24215,-0.12926,-9.7919,0,0,36.752,1,1,7746,3872
1971,6.02e+07,2,-0.0018418,0.00034505,0.00052484,-0.24215,-0.13112,-9.7941,0,0,36.752,1,1,7746,3872
1974,6.0202e+07,2,-0.0018947,-0.00056814,0.00037765,-0.24357,-0.13209,-9.7978,0,0,36.752,1,1,7746,3872
1981,6.0205e+07,2,-0.001305,-0.0010009,0.00053315,-0.24463,-0.13242,-9.8078,0,0,36.752,1,1,7746,3872
2012,6.0207e+07,2,-0.00034925,-0.0016972,0.00071015,-0.245,-0.12786,-9.819,0,0,36.752,1,1,7746,3872
2016,6.021e+07,2,-0.00017498,-0.0012172,0.00012848,-0.24505,-0.12432,-9.8224,0,0,36.752,1,1,7746,3872
2019,6.0212e+07,2,0.00025922,-0.00030962,0.00017895,-0.24519,-0.12286,-9.8224,0,0,36.752,1,1,7746,3872
2023,6.0215e+07,2,0.00035582,0.00077267,0.00094896,-0.24682,-0.11799,-9.8203,0,0,36.752,1,1,7746,3872
2056,6.0218e+07,2,-0.00035807,0.0017478,0.00066174,-0.24665,-0.11286,-9.8202,0,0,36.752,1,1,7746,3872
2059,6.022e+07,2,-0.00023199,0.0012511,0.00081862,-0.24437,-0.10833,-9.821,0,0,36.752,1,1,7746,3872
2062,6.0223e+07,2,-0.00010274,0.00031987,0.00016009,-0.24158,-0.10064,-9.8218,0,0,36.752,1,1,7746,3872
2065,6.0225e+07,2,0.00025256,-0.00033155,0.00037978,-0.23957,-0.097777,-9.8216,0,0,36.752,1,1,7746,3872
2096,6.0227e+07,2,-0.00020633,-0.0017843,0.00098049,-0.23688,-0.097596,-9.82,0,0,36.752,1,1,7746,3872
2100,6.023e+07,2,-0.00030517,-0.0017608,0.0014313,-0.23517,-0.097124,-9.8195,0,0,36.752,1,1,7746,3872
2103,6.0233e+07,2,-0.00040076,-0.0013937,0.0007903,-0.23312,-0.096873,-9.82,0,0,36.752,1,1,7746,3872
2106,6.0236e+07,2,1.5611e-05,-0.00061098,-0.00019724,-0.23244,-0.098529,-9.8208,0,0,36.751,1,1,7746,3872
2137,6.0239e+07,2,0.0011243,-0.00043474,-0.0010865,-0.23369,-0.10045,-9.8214,0,0,36.751,1,1,7746,3872
2141,6.0241e+07,2,0.00072263,-0.0012246,-0.0015541,-0.23449,-0.10192,-9.8213,0,0,36.751,1,1,7746,3872
2144,6.0243e+07,2,0.00097344,-0.0013833,-0.00072423,-0.23547,-0.10394,-9.8216,0,0,36.751,1,1,7746,3872
2147,6.0246e+07,2,0.0019281,-5.2592e-06,0.0013949,-0.2367,-0.10694,-9.8202,0,0,36.751,1,1,7746,3872
2178,6.025e+07,2,0.0023788,0.00041668,0.0018057,-0.23645,-0.10966,-9.8187,0,0,36.751,1,1,7746,3872
2181,6.0253e+07,2,0.0033067,0.0020909,0.0018889,-0.23383,-0.11425,-9.8181,0,0,36.751,1,1,7746,3872
2184,6.0254e+07,2,0.0015884,0.0033743,0.0013062,-0.23129,-0.11797,-9.8167,0,0,36.751,1,1,7746,3872
2187,6.0257e+07,2,-7.6422e-09,0.0038329,0.001389,-0.23084,-0.1185,-9.8179,0,0,36.75,1,1,7746,3872
2218,6.026e+07,2,-0.00027759,0.0035609,0.0013532,-0.23122,-0.11874,-9.8195,0,0,36.75,1,1,7746,3872
2221,6.0261e+07,2,0.00053272,0.0024224,0.00085121,-0.23158,-0.11959,-9.8234,0,0,36.75,1,1,7746,3872
2225,6.0264e+07,2,0.00047404,0.0017609,0.00032116,-0.23109,-0.11952,-9.8258,0,0,36.75,1,1,7746,3872
2229,6.0267e+07,2,0.00022267,0.0015252,0.00051066,-0.22861,-0.11742,-9.8258,0,0,36.75,1,1,7746,3872
2260,6.0269e+07,2,0.00038013,0.0019177,0.00025698,-0.22708,-0.11671,-9.8239,0,0,36.75,1,1,7746,3872
2263,6.0272e+07,2,0.0018212,0.0012507,-0.0001818,-0.22553,-0.11712,-9.8222,0,0,36.75,1,1,7746,3872
2266,6.0274e+07,2,0.0021568,0.00078623,8.4559e-05,-0.2241,-0.11766,-9.8225,0,0,36.75,1,1,7746,3872
2270,6.0277e+07,2,0.0010192,0.0012201,0.00018226,-0.22349,-0.11636,-9.8212,0,0,36.75,1,1,7746,3872
2301,6.028e+07,2,-1.4434e-05,0.0014778,1.032e-05,-0.22348,-0.11431,-9.8203,0,0,36.75,1,1,7746,3872
2304,6.0283e+07,2,0.00066827,0.0015828,-5.4639e-05,-0.2243,-0.11377,-9.8198,0,0,36.75,1,1,7746,3872
2307,6.0285e+07,2,0.0007668,0.00061761,0.0013112,-0.2268,-0.1135,-9.8181,0,0,36.75,1,1,7746,3872
2310,6.0288e+07,2,0.00037293,0.00041234,0.00157,-0.22918,-0.11374,-9.8187,0,0,36.75,1,1,7746,3872
2343,6.0291e+07,2,-8.6399e-05,0.00037363,0.0017892,-0.23203,-0.11724,-9.8198,0,0,36.75,1,1,7746,3872
2346,6.0293e+07,2,4.4834e-05,0.0003335,0.0020114,-0.23254,-0.11867,-9.819,0,0,36.751,1,1,7746,3872
2349,6.0295e+07,2,-9.1347e-05,0.00038203,0.0017706,-0.23269,-0.11823,-9.8183,0,0,36.751,1,1,7746,3872
2353,6.0298e+07,2,-0.001508,0.0010331,0.00030838,-0.23206,-0.115,-9.8145,0,0,36.751,1,1,7746,3872
2384,6.0301e+07,2,-0.0021533,0.0009363,-0.00042445,-0.2316,-0.11265,-9.813,0,0,36.751,1,1,7746,3872
2387,6.0303e+07,2,-0.0021786,-0.00044735,-0.0010148,-0.231,-0.10944,-9.8129,0,0,36.751,1,1,7746,3872
2390,6.0306e+07,2,-0.0021548,-0.001275,-0.0011489,-0.22927,-0.1056,-9.8131,0,0,36.751,1,1,7746,3872
2397,6.0308e+07,2,-0.001937,-0.0013454,-0.0014384,-0.22708,-0.10334,-9.8128,0,0,36.751,1,1,7746,3872
2428,6.0311e+07,2,-0.0010696,-0.0012833,-0.0011062,-0.22545,-0.10165,-9.8154,0,0,36.751,1,1,7746,3872
2431,6.0313e+07,2,0.00014061,-0.0014922,-0.00058388,-0.22518,-0.10137,-9.8164,0,0,36.751,1,1,7746,3872
2434,6.0316e+07,2,0.00077934,-0.0012676,0.00039218,-0.22526,-0.10333,-9.8159,0,0,36.751,1,1,7746,3872
2439,6.0318e+07,2,0.00060991,-0.0014098,0.0011795,-0.2238,-0.10438,-9.8143,0,0,36.751,1,1,7746,3872
2472,6.0321e+07,2,-0.00032887,-0.0015368,0.0011568,-0.22068,-0.10431,-9.8092,0,0,36.751,1,1,7746,3872
2475,6.0324e+07,2,-0.00092261,-0.0022412,0.0014071,-0.21996,-0.10357,-9.807,0,0,36.751,1,1,7746,3872
2478,6.0326e+07,2,-0.0016326,-0.002463,0.0012558,-0.21996,-0.10308,-9.8056,0,0,36.751,1,1,7746,3872
2483,6.0328e+07,2,-0.0016587,-0.0028559,0.00096532,-0.21856,-0.10466,-9.8073,0,0,36.751,1,1,7746,3872
2514,6.0331e+07,2,-0.0013076,-0.003064,0.0013801,-0.218,-0.10585,-9.8093,0,0,36.751,1,1,7746,3872
2517,6.0333e+07,2,-0.0011551,-0.0026611,0.0015641,-0.22016,-0.10727,-9.8145,0,0,36.751,1,1,7746,3872
2520,6.0336e+07,2,-0.0012489,-0.0016471,0.00081336,-0.22121,-0.10777,-9.817,0,0,36.751,1,1,7746,3872
2523,6.0339e+07,2,-0.0011894,-0.00057925,0.00073443,-0.22413,-0.10904,-9.8223,0,0,36.751,1,1,7746,3872
2554,6.0342e+07,2,-5.7722e-05,-2.7555e-05,0.00051984,-0.22655,-0.10942,-9.8219,0,0,36.751,1,1,7746,3872
2557,6.0345e+07,2,1.6384e-05,-0.00063344,0.00092863,-0.22893,-0.10899,-9.8214,0,0,36.751,1,1,7746,3872
2560,6.0347e+07,2,-8.563e-05,-0.0015775,0.0019277,-0.23273,-0.10876,-9.8208,0,0,36.751,1,1,7746,3872
2563,6.0349e+07,2,-0.00029015,-0.0024027,0.0021473,-0.23554,-0.10858,-9.8201,0,0,36.75,1,1,7746,3872
2594,6.0353e+07,2,-0.00079173,-0.003335,0.0028146,-0.23947,-0.10691,-9.8194,0,0,36.75,1,1,7746,3872
2597,6.0356e+07,2,-0.00076484,-0.0031081,0.0030516,-0.24162,-0.10501,-9.8223,0,0,36.75,1,1,7746,3872
2600,6.0357e+07,2,-0.00081944,-0.0024393,0.0026605,-0.24225,-0.10419,-9.8238,0,0,36.75,1,1,7746,3872
2603,6.036e+07,2,-0.00072416,-0.0010819,0.0023587,-0.24144,-0.10328,-9.8266,0,0,36.75,1,1,7746,3872
2634,6.0362e+07,2,-0.00095996,-0.00062431,0.00172,-0.24008,-0.10335,-9.8282,0,0,36.75,1,1,7746,3872
2637,6.0365e+07,2,-0.001343,-0.00023223,0.0014229,-0.23786,-0.10384,-9.8287,0,0,36.75,1,1,7746,3872
2640,6.0368e+07,2,-0.0016849,0.00018744,0.0017473,-0.23735,-0.10433,-9.8287,0,0,36.75,1,1,7746,3872
2644,6.037e+07,2,-0.0014984,0.00078453,0.0016062,-0.23595,-0.1057,-9.8276,0,0,36.751,1,1,7746,3872
2675,6.0372e+07,2,-0.0011534,0.00085849,0.0012298,-0.23462,-0.10628,-9.826,0,0,36.751,1,1,7746,3872
2678,6.0374e+07,2,-0.00044363,0.00091079,0.00043385,-0.23179,-0.10701,-9.8244,0,0,36.751,1,1,7746,3872
2681,6.0377e+07,2,-0.000129,0.0009617,1.4782e-05,-0.23006,-0.10647,-9.8226,0,0,36.751,1,1,7746,3872
2685,6.038e+07,2,0.00056321,0.00073193,-0.00038162,-0.22762,-0.10399,-9.8206,0,0,36.751,1,1,7746,3872
2716,6.0383e+07,2,0.00067581,0.00053594,-0.00026914,-0.2267,-0.10462,-9.8213,0,0,36.751,1,1,7746,3872
2719,6.0385e+07,2,-8.7342e-05,0.00036421,0.00031479,-0.22778,-0.10486,-9.8209,0,0,36.751,1,1,7746,3872
2722,6.0388e+07,2,-0.0010799,0.00023036,0.00061395,-0.2292,-0.10328,-9.8161,0,0,36.751,1,1,7746,3872
2726,6.039e+07,2,-0.0011323,0.00020606,0.00078595,-0.23071,-0.1018,-9.8108,0,0,36.751,1,1,7746,3872
2757,6.0393e+07,2,-0.0012529,0.00064162,0.00010813,-0.2347,-0.10178,-9.8046,0,0,36.751,1,1,7746,3872
2760,6.0396e+07,2,-0.00064124,-6.7414e-05,-0.00021081,-0.23802,-0.10271,-9.803,0,0,36.751,1,1,7746,3872
2763,6.0398e+07,2,7.0581e-05,-0.00027539,-0.00076584,-0.23925,-0.10393,-9.8015,0,0,36.751,1,1,7746,3872
2767,6.0401e+07,2,0.0010474,0.00043469,-0.0016783,-0.2398,-0.10493,-9.7998,0,0,36.751,1,1,7746,3872
2798,6.0403e+07,2,0.0012695,0.00058133,-0.0017522,-0.23995,-0.10581,-9.7992,0,0,36.751,1,1,7746,3872
2801,6.0406e+07,2,0.001049,0.0002037,-0.0017648,-0.23961,-0.10555,-9.8016,0,0,36.751,1,1,7746,3872
2804,6.0408e+07,2,0.00037488,0.00064653,-0.00087864,-0.23972,-0.10505,-9.8027,0,0,36.751,1,1,7746,3872
2811,6.0411e+07,2,-0.00023795,0.0011977,0.00027402,-0.24005,-0.10472,-9.8071,0,0,36.751,1,1,7746,3872
2842,6.0413e+07,2,0.0014012,0.0022556,-0.00041259,-0.23971,-0.10519,-9.8147,0,0,36.751,1,1,7746,3872
2845,6.0416e+07,2,0.0015562,0.0023754,-0.00064483,-0.23936,-0.10632,-9.8194,0,0,36.751,1,1,7746,3872
2848,6.0418e+07,2,0.00034212,0.0023,-0.00038173,-0.23864,-0.10777,-9.8241,0,0,36.751,1,1,7746,3872
2853,6.0421e+07,2,-3.4957e-05,0.0017768,0.00051019,-0.2381,-0.10872,-9.8265,0,0,36.751,1,1,7746,3872
2884,6.0424e+07,2,-0.0009596,0.00088527,0.0010338,-0.23794,-0.11044,-9.8274,0,0,36.751,1,1,7746,3872
2888,6.0426e+07,2,-0.0012943,0.0010204,0.001464,-0.23944,-0.11156,-9.8259,0,0,36.751,1,1,7746,3872
2891,6.0429e+07,2,-0.00032803,0.0015213,0.0016869,-0.24014,-0.11225,-9.8255,0,0,36.751,1,1,7746,3872
2894,6.0431e+07,2,2.1892e-05,0.0013742,0.001118,-0.24022,-0.11204,-9.8252,0,0,36.751,1,1,7746,3872
2925,6.0434e+07,2,7.7877e-05,0.0010611,0.00013349,-0.24074,-0.11072,-9.8256,0,0,36.751,1,1,7746,3872
2928,6.0436e+07,2,0.00037571,0.0010279,-0.0006716,-0.24112,-0.10996,-9.8252,0,0,36.751,1,1,7746,3872
2931,6.0439e+07,2,0.00033595,0.0005823,-0.00025989,-0.23906,-0.10931,-9.8208,0,0,36.751,1,1,7746,3872
2935,6.0442e+07,2,0.00045194,0.00028865,0.00087447,-0.23793,-0.10911,-9.8151,0,0,36.751,1,1,7746,3872
2968,6.0445e+07,2,0.00129,-0.00015361,0.0019613,-0.23523,-0.11045,-9.8062,0,0,36.751,1,1,7746,3872
2971,6.0447e+07,2,0.0011914,-0.00014621,0.0026067,-0.2347,-0.11219,-9.8035,0,0,36.751,1,1,7746,3872
2974,6.045e+07,2,0.0010488,0.00021151,0.0025335,-0.23501,-0.11406,-9.8026,0,0,36.751,1,1,7746,3872
2977,6.0455e+07,2,0.0012109,0.0004687,0.0004109,-0.23527,-0.11518,-9.806,0,0,36.751,1,1,7746,3872
3008,6.0458e+07,2,0.0006453,0.0011642,-0.00031797,-0.23377,-0.11616,-9.8082,0,0,36.751,1,1,7746,3872
3011,6.046e+07,2,0.00024222,0.0016029,-0.00044901,-0.23382,-0.11625,-9.8085,0,0,36.751,1,1,7746,3872
3015,6.0462e+07,2,0.00023204,0.0018225,-0.00013823,-0.23451,-0.11553,-9.8068,0,0,36.751,1,1,7746,3872
3018,6.0465e+07,2,0.00050304,0.0022428,0.00079108,-0.23469,-0.11536,-9.8045,0,0,36.751,1,1,7746,3872
3049,6.0469e+07,2,0.00027732,0.0028756,0.0017382,-0.23305,-0.11716,-9.8034,0,0,36.751,1,1,7746,3872
3052,6.0471e+07,2,-0.00031216,0.0023027,0.002323,-0.23077,-0.11923,-9.8037,0,0,36.751,1,1,7746,3872
3056,6.0473e+07,2,-2.2297e-05,0.0017155,0.0019299,-0.22765,-0.12268,-9.8056,0,0,36.751,1,1,7746,3872
3059,6.0475e+07,2,0.00050665,0.0015881,0.00078626,-0.22639,-0.12496,-9.8065,0,0,36.751,1,1,7746,3872
3090,6.0478e+07,2,0.0016043,0.0015475,-0.00070326,-0.22712,-0.12666,-9.807,0,0,36.751,1,1,7746,3872
3093,6.0481e+07,2,0.0029114,0.0011234,-0.00053111,-0.22998,-0.12738,-9.806,0,0,36.751,1,1,7746,3872
3096,6.0483e+07,2,0.0029383,0.00062866,0.00023066,-0.23257,-0.12748,-9.8058,0,0,36.751,1,1,7746,3872
3100,6.0486e+07,2,0.0019996,0.00026698,0.0014881,-0.23502,-0.12698,-9.808,0,0,36.751,1,1,7746,3872
3131,6.0488e+07,2,0.00027028,0.00056819,0.0017128,-0.23777,-0.12584,-9.8143,0,0,36.75,1,1,7746,3872
3134,6.049e+07,2,-0.001307,0.0017205,0.0017798,-0.23751,-0.12512,-9.8159,0,0,36.75,1,1,7746,3872
3138,6.0493e+07,2,-0.001496,0.0022442,0.0017311,-0.23622,-0.12547,-9.8162,0,0,36.75,1,1,7746,3872
3141,6.0495e+07,2,-0.0012788,0.0022784,0.0016627,-0.23351,-0.12726,-9.8197,0,0,36.75,1,1,7746,3872
3172,6.0498e+07,2,-0.0011592,0.0018472,0.0015538,-0.23143,-0.12916,-9.8232,0,0,36.75,1,1,7746,3872
3175,6.0501e+07,2,-0.0014138,0.0011419,0.00095919,-0.22864,-0.13152,-9.8283,0,0,36.75,1,1,7746,3872
3178,6.0503e+07,2,-0.0015846,0.00093055,0.00094413,-0.2269,-0.13287,-9.8297,0,0,36.75,1,1,7746,3872
3181,6.0505e+07,2,-0.0012745,0.0014832,0.00097237,-0.22383,-0.13345,-9.8285,0,0,36.75,1,1,7746,3872
3212,6.0508e+07,2,-0.0001004,0.0015356,0.00034078,-0.22153,-0.13173,-9.827,0,0,36.75,1,1,7746,3872
3215,6.051e+07,2,0.00024569,0.0012251,8.3315e-05,-0.21836,-0.1271,-9.8217,0,0,36.75,1,1,7746,3872
3223,6.0514e+07,2,-0.00046035,0.00057794,-0.00013418,-0.2171,-0.12441,-9.8186,0,0,36.75,1,1,7746,3872
3226,6.0516e+07,2,-0.00082899,1.1591e-05,-8.3038e-05,-0.21567,-0.12089,-9.8139,0,0,36.75,1,1,7746,3872
3257,6.0518e+07,2,-0.00051627,8.3025e-05,0.00036515,-0.21387,-0.11775,-9.809,0,0,36.75,1,1,7746,3872
3261,6.0521e+07,2,-0.0011597,9.5392e-05,0.0015692,-0.21417,-0.11536,-9.8064,0,0,36.75,1,1,7746,3872
3264,6.0523e+07,2,-0.0017586,0.00054024,0.0020535,-0.21495,-0.11321,-9.8054,0,0,36.75,1,1,7746,3872
3267,6.0526e+07,2,-0.0018177,0.0013271,0.0013335,-0.21631,-0.11155,-9.8045,0,0,36.75,1,1,7746,3872
3298,6.0529e+07,2,-0.001718,0.00085408,0.00063389,-0.21905,-0.10934,-9.8027,0,0,36.75,1,1,7746,3872
3301,6.0531e+07,2,-0.00098403,-0.00030278,0.00082185,-0.22,-0.10727,-9.8026,0,0,36.75,1,1,7746,3872
3305,6.0534e+07,2,0.00066079,-0.0015239,0.0014446,-0.22026,-0.10441,-9.8047,0,0,36.75,1,1,7746,3872
3308,6.0536e+07,2,0.00023416,-0.0017544,0.0013122,-0.22053,-0.10337,-9.8067,0,0,36.75,1,1,7746,3872
3339,6.0539e+07,2,-0.0013503,-0.0009007,0.00083582,-0.22273,-0.10331,-9.812,0,0,36.75,1,1,7746,3872
3342,6.0542e+07,2,-0.0017479,-5.3088e-05,0.00062126,-0.22472,-0.10352,-9.8149,0,0,36.75,1,1,7746,3872
3346,6.0544e+07,2,-0.0019367,0.00059927,0.00044861,-0.22683,-0.10586,-9.8162,0,0,36.75,1,1,7746,3872
3349,6.0546e+07,2,-0.0014347,-0.00030117,0.00084554,-0.22755,-0.10809,-9.8161,0,0,36.75,1,1,7746,3872
3382,6.055e+07,2,-0.001168,-0.00076579,0.00085177,-0.22725,-0.11034,-9.8172,0,0,36.75,1,1,7746,3872
3385,6.0551e+07,2,-0.001918,-0.00089151,0.0013547,-0.22732,-0.11171,-9.8161,0,0,36.75,1,1,7746,3872
3389,6.0554e+07,2,-0.0023249,-0.0015575,0.0020677,-0.22758,-0.1119,-9.8133,0,0,36.75,1,1,7746,3872
3392,6.0556e+07,2,-0.0021611,-0.0022846,0.001917,-0.22772,-0.11134,-9.8112,0,0,36.75,1,1,7746,3872
3423,6.0558e+07,2,-0.0011911,-0.002614,0.0016373,-0.22838,-0.10664,-9.8056,0,0,36.75,1,1,7746,3872
3426,6.0562e+07,2,0.00012148,-0.0023192,0.0017594,-0.22865,-0.10268,-9.8048,0,0,36.75,1,1,7746,3872
3430,6.0566e+07,2,0.0017749,-0.0019826,0.00028842,-0.23026,-0.096595,-9.8131,0,0,36.75,1,1,7746,3872
3461,6.0569e+07,2,0.0010574,-0.0015071,-2.4716e-05,-0.2307,-0.097465,-9.8192,0,0,36.75,1,1,7746,3872
3465,6.0572e+07,2,-0.00052462,-0.0011826,-0.00025149,-0.23042,-0.098774,-9.8261,0,0,36.751,1,1,7746,3872
3468,6.0575e+07,2,-0.0014296,-0.0013104,3.9358e-05,-0.23039,-0.099305,-9.8277,0,0,36.751,1,1,7746,3872
3471,6.0577e+07,2,-0.0021032,-0.0024796,0.0013539,-0.23087,-0.098719,-9.8275,0,0,36.751,1,1,7746,3872
3502,6.0579e+07,2,-0.0013065,-0.0021344,0.0019334,-0.23053,-0.097407,-9.8228,0,0,36.751,1,1,7746,3872
3505,6.0581e+07,2,-0.0007891,-0.0016239,0.001656,-0.22972,-0.097582,-9.8196,0,0,36.751,1,1,7746,3872
3509,6.0584e+07,2,-0.00065348,-0.00092376,0.00088774,-0.2301,-0.097338,-9.8172,0,0,36.751,1,1,7746,3872
3512,6.0587e+07,2,-0.0001985,0.00012584,7.4775e-05,-0.23165,-0.095779,-9.815,0,0,36.751,1,1,7746,3872
3543,6.059e+07,2,8.1378e-05,0.00046373,-0.0016274,-0.23415,-0.093171,-9.8133,0,0,36.751,1,1,7746,3872
3546,6.0593e+07,2,-9.4147e-05,0.00069248,-0.0024663,-0.23725,-0.092718,-9.8145,0,0,36.751,1,1,7746,3872
3549,6.0594e+07,2,-0.00074787,0.00089107,-0.0036263,-0.24307,-0.094622,-9.8177,0,0,36.751,1,1,7746,3872
3552,6.0598e+07,2,-0.00058033,0.00077589,-0.0030872,-0.24576,-0.096379,-9.8184,0,0,36.751,1,1,7746,3872
3583,6.06e+07,2,0.00023606,0.00060985,-0.0010294,-0.24892,-0.098298,-9.8194,0,0,36.751,1,1,7746,3872
3586,6.0602e+07,2,0.0015766,0.00088441,0.00038736,-0.24908,-0.099335,-9.8233,0,0,36.751,1,1,7746,3872
3590,6.0605e+07,2,0.0024077,0.0014297,0.00021773,-0.24742,-0.10042,-9.8241,0,0,36.751,1,1,7746,3872
3593,6.0608e+07,2,0.003023,0.002412,-0.0010073,-0.24553,-0.10154,-9.8248,0,0,36.751,1,1,7746,3872
3624,6.0611e+07,2,0.0013548,0.002584,-0.0016249,-0.24654,-0.10106,-9.8287,0,0,36.751,1,1,7746,3872
3627,6.0613e+07,2,0.00027683,0.0023411,-0.0010419,-0.24772,-0.1005,-9.832,0,0,36.751,1,1,7746,3872
3634,6.0616e+07,2,-5.2963e-05,0.0023877,0.00010379,-0.24912,-0.10127,-9.8369,0,0,36.752,1,1,7746,3872
3637,6.0618e+07,2,0.00041197,0.0024549,0.00087513,-0.24929,-0.10218,-9.8378,0,0,36.752,1,1,7746,3872
3668,6.0621e+07,2,0.00067527,0.0018502,0.00084662,-0.24966,-0.1034,-9.8389,0,0,36.752,1,1,7746,3872
3672,6.0623e+07,2,0.00065041,0.0017204,-0.00076546,-0.24933,-0.10638,-9.8378,0,0,36.752,1,1,7746,3872
3676,6.0626e+07,2,0.00063446,0.0014023,-0.0017539,-0.24885,-0.10812,-9.8336,0,0,36.752,1,1,7746,3872
3679,6.0629e+07,2,-0.00018986,0.00072708,-0.0015282,-0.2477,-0.10916,-9.8283,0,0,36.752,1,1,7746,3872
3710,6.0632e+07,2,-0.0010688,0.00030253,-0.00048272,-0.24662,-0.10876,-9.8246,0,0,36.752,1,1,7746,3872
3713,6.0634e+07,2,-0.00019071,0.000952,0.00018846,-0.24533,-0.10904,-9.8236,0,0,36.752,1,1,7746,3872
3717,6.0636e+07,2,0.00052053,0.0011673,-0.00026919,-0.2442,-0.1101,-9.824,0,0,36.752,1,1,7746,3872
3720,6.0639e+07,2,0.00067184,0.00056129,-0.0012519,-0.2419,-0.11207,-9.8263,0,0,36.752,1,1,7746,3872
3751,6.0641e+07,2,0.00037748,-0.00023271,0.00037025,-0.2387,-0.11497,-9.8279,0,0,36.752,1,1,7746,3872
3754,6.0644e+07,2,0.00012998,-0.0018016,0.0012594,-0.23643,-0.11817,-9.8287,0,0,36.752,1,1,7746,3872
3757,6.0646e+07,2,-0.00023655,-0.0029979,0.0018428,-0.23507,-0.12098,-9.8297,0,0,36.753,1,1,7746,3872
3762,6.0649e+07,2,-0.00064397,-0.0037241,0.00036992,-0.23582,-0.12202,-9.8286,0,0,36.753,1,1,7746,3872
3793,6.0652e+07,2,-0.0007551,-0.003585,-0.00064129,-0.2361,-0.12181,-9.8246,0,0,36.753,1,1,7746,3872
3796,6.0656e+07,2,-0.00074281,-0.0034435,-0.00090563,-0.2352,-0.12062,-9.8214,0,0,36.753,1,1,7746,3872
3799,6.066e+07,2,-0.00020115,-0.0015381,0.00053395,-0.23323,-0.11567,-9.8182,0,0,36.754,1,1,7746,3872
3830,6.0663e+07,2,-0.001937,-0.0011824,0.0010373,-0.23311,-0.11326,-9.8141,0,0,36.754,1,1,7746,3872
3833,6.0665e+07,2,-0.0025356,-0.0009855,0.00094897,-0.23402,-0.11157,-9.8106,0,0,36.754,1,1,7746,3872
3837,6.0668e+07,2,-0.0020583,-0.00073055,-0.00022021,-0.2359,-0.10802,-9.8062,0,0,36.755,1,1,7746,3872
3840,6.0671e+07,2,-0.0020699,-8.7586e-05,-0.0009127,-0.23773,-0.10629,-9.8053,0,0,36.755,1,1,7746,3872
3871,6.0673e+07,2,-0.0019282,-0.00032258,-0.00046845,-0.2392,-0.10504,-9.8068,0,0,36.755,1,1,7746,3872
3874,6.0676e+07,2,-0.0009894,-0.0010131,-0.00012412,-0.23791,-0.10451,-9.8101,0,0,36.755,1,1,7746,3872
3877,6.0679e+07,2,-0.00079327,-0.0010482,0.00025062,-0.23507,-0.10452,-9.8114,0,0,36.755,1,1,7746,3872
3880,6.0681e+07,2,5.4146e-05,-0.0011665,0.0011238,-0.2318,-0.10603,-9.8124,0,0,36.755,1,1,7746,3872
3911,6.0684e+07,2,-4.0909e-05,-0.0010316,0.0014155,-0.23053,-0.10818,-9.8141,0,0,36.756,1,1,7746,3872
3914,6.0686e+07,2,-0.00027598,-0.0012441,0.0015546,-0.23059,-0.10925,-9.816,0,0,36.756,1,1,7746,3872
3917,6.0688e+07,2,0.00012799,-0.0015152,0.0017632,-0.22946,-0.10989,-9.8193,0,0,36.756,1,1,7746,3872
3920,6.0691e+07,2,-0.00012503,-0.0012204,0.0011205,-0.22742,-0.10966,-9.827,0,0,36.756,1,1,7746,3872
3951,6.0693e+07,2,-0.0021659,0.00028986,0.00010009,-0.22618,-0.11026,-9.8344,0,0,36.756,1,1,7746,3872
3955,6.0697e+07,2,-0.0032461,0.0010991,-0.00022838,-0.22554,-0.11193,-9.8389,0,0,36.756,1,1,7746,3872
3959,6.0699e+07,2,-0.0027993,0.0013535,-0.00013493,-0.22684,-0.11407,-9.8423,0,0,36.757,1,1,7746,3872
3962,6.0701e+07,2,-0.0027074,0.0014622,0.00016679,-0.22805,-0.11492,-9.842,0,0,36.757,1,1,7746,3872
3993,6.0704e+07,2,-0.002964,0.0019396,-0.000144,-0.23022,-0.11492,-9.837,0,0,36.757,1,1,7746,3872
3997,6.0706e+07,2,-0.0030743,0.0024953,-0.00035257,-0.23181,-0.11314,-9.8324,0,0,36.757,1,1,7746,3872
4000,6.0709e+07,2,-0.0029874,0.0022079,-0.00081175,-0.23197,-0.1109,-9.8219,0,0,36.757,1,1,7746,3872
4003,6.0711e+07,2,-0.002641,0.0016483,-0.00071196,-0.23138,-0.11002,-9.8183,0,0,36.758,1,1,7746,3872
4034,6.0713e+07,2,-0.0020423,0.00088853,-0.00046227,-0.23051,-0.10682,-9.8117,0,0,36.758,1,1,7746,3872
4037,6.0716e+07,2,-0.0020546,0.0008369,-0.00015995,-0.23046,-0.10588,-9.8099,0,0,36.758,1,1,7746,3872
4044,6.0719e+07,2,-0.0012977,0.001011,0.00032011,-0.22913,-0.10686,-9.8086,0,0,36.758,1,1,7746,3872
4049,6.0721e+07,2,-0.00091948,0.0013417,0.00066892,-0.22757,-0.10785,-9.8082,0,0,36.758,1,1,7746,3872
4080,6.0724e+07,2,-0.0011884,0.0016456,-0.0014728,-0.22598,-0.11005,-9.8069,0,0,36.758,1,1,7746,3872
4084,6.0727e+07,2,-0.00063309,0.0012141,-0.0026106,-0.22544,-0.11038,-9.8074,0,0,36.758,1,1,7746,3872
4088,6.0729e+07,2,-0.00042288,0.0014786,-0.0016822,-0.22667,-0.10978,-9.8093,0,0,36.758,1,1,7746,3872
4091,6.0732e+07,2,-0.00012683,0.0027072,0.00041795,-0.23196,-0.10853,-9.8115,0,0,36.759,1,1,7746,3872
4122,6.0735e+07,2,0.00020019,0.0026061,0.00059672,-0.23781,-0.1048,-9.8158,0,0,36.759,1,1,7746,3872
4125,6.0737e+07,2,0.00082012,0.0021747,0.00070752,-0.24013,-0.10272,-9.8194,0,0,36.759,1,1,7746,3872
4129,6.074e+07,2,0.0013363,0.0017682,7.0776e-05,-0.24321,-0.10087,-9.8231,0,0,36.759,1,1,7746,3872
4133,6.0742e+07,2,0.0013277,0.0022366,-0.00022909,-0.24561,-0.10144,-9.8256,0,0,36.759,1,1,7746,3872
4164,6.0745e+07,2,0.0011799,0.002163,-0.00040395,-0.24633,-0.10328,-9.8266,0,0,36.759,1,1,7746,3872
4168,6.0748e+07,2,0.0010443,0.002027,-0.00046023,-0.24402,-0.10366,-9.8261,0,0,36.759,1,1,7746,3872
4171,6.075e+07,2,0.001341,0.0016597,0.00018813,-0.23561,-0.10215,-9.8243,0,0,36.76,1,1,7746,3872
4174,6.0752e+07,2,0.0014126,0.0017776,0.0012096,-0.22938,-0.10142,-9.8238,0,0,36.76,1,1,7746,3872
4205,6.0754e+07,2,0.00071884,0.0019535,0.0011076,-0.22147,-0.10014,-9.8254,0,0,36.76,1,1,7746,3872
4208,6.0757e+07,2,0.0011307,0.0019515,0.00085241,-0.21801,-0.099173,-9.8265,0,0,36.76,1,1,7746,3872
4211,6.0764e+07,2,0.0015521,0.00015153,0.0012398,-0.21396,-0.097993,-9.8209,0,0,36.76,1,1,7746,3872
4214,6.0765e+07,2,0.0012693,-0.00088733,0.0013841,-0.215,-0.099698,-9.8173,0,0,36.76,1,1,7746,3872
4246,6.0767e+07,2,0.0011644,-0.0018282,0.00047541,-0.21694,-0.10278,-9.8139,0,0,36.76,1,1,7746,3872
4249,6.077e+07,2,0.0012341,-0.0013296,0.00020863,-0.2187,-0.10507,-9.8102,0,0,36.76,1,1,7746,3872
4252,6.0773e+07,2,0.0020971,0.00046282,-4.7717e-05,-0.22048,-0.1073,-9.8028,0,0,36.761,1,1,7746,3872
4255,6.0776e+07,2,0.001862,0.0011763,-0.00024628,-0.22067,-0.10781,-9.8011,0,0,36.761,1,1,7746,3872
4286,6.0778e+07,2,0.0015061,0.0011868,-0.00014772,-0.22084,-0.11037,-9.7963,0,0,36.761,1,1,7746,3872
4290,6.0781e+07,2,0.0018426,0.00087958,0.00014759,-0.22176,-0.11176,-9.7921,0,0,36.761,1,1,7746,3872
4293,6.0784e+07,2,0.0015524,0.00042355,0.00043176,-0.22361,-0.11249,-9.7891,0,0,36.761,1,1,7746,3872
4296,6.0786e+07,2,0.0014367,-0.00039468,-0.00018687,-0.22752,-0.11304,-9.7891,0,0,36.761,1,1,7746,3872
4329,6.0789e+07,2,0.0023622,-0.0013112,-0.0011154,-0.22964,-0.11458,-9.793,0,0,36.761,1,1,7746,3872
4333,6.0791e+07,2,0.0017746,-0.0015212,-0.00075519,-0.22896,-0.11446,-9.797,0,0,36.761,1,1,7746,3872
4336,6.0793e+07,2,0.0011112,-0.0017679,-0.0010959,-0.22762,-0.11271,-9.8016,0,0,36.761,1,1,7746,3872
4339,6.0796e+07,2,0.0010753,-0.0017421,-0.0015133,-0.2277,-0.10887,-9.8089,0,0,36.761,1,1,7746,3872
4370,6.0799e+07,2,0.00077906,-0.0007277,-0.00053072,-0.22972,-0.10372,-9.8161,0,0,36.761,1,1,7746,3872
4374,6.0801e+07,2,0.00043758,-0.00025858,0.00023135,-0.23161,-0.10085,-9.8203,0,0,36.761,1,1,7746,3872
4377,6.0804e+07,2,0.00079889,6.4105e-05,0.00035979,-0.23406,-0.098567,-9.8243,0,0,36.761,1,1,7746,3872
4380,6.0807e+07,2,0.0010976,-0.00067075,0.00030635,-0.23568,-0.09896,-9.8257,0,0,36.761,1,1,7746,3872
4411,6.0809e+07,2,0.00088563,-0.0014504,8.0277e-05,-0.23608,-0.10035,-9.8267,0,0,36.761,1,1,7746,3872
4414,6.0812e+07,2,0.00045241,-0.0019501,0.00017472,-0.23553,-0.10568,-9.8283,0,0,36.761,1,1,7746,3872
4417,6.0815e+07,2,5.5992e-05,-0.0021745,0.00030708,-0.23513,-0.10886,-9.8279,0,0,36.761,1,1,7746,3872
4420,6.0817e+07,2,-0.00074175,-0.0019774,0.00055194,-0.23462,-0.11259,-9.8279,0,0,36.761,1,1,7746,3872
4451,6.082e+07,2,-0.0011689,-0.0013169,-0.00046529,-0.23554,-0.11727,-9.8282,0,0,36.762,1,1,7746,3872
4459,6.0822e+07,2,-0.0012235,-0.0013159,-0.00079549,-0.2353,-0.1196,-9.8281,0,0,36.762,1,1,7746,3872
4462,6.0824e+07,2,-0.0010557,-0.00097606,-0.0017665,-0.23506,-0.11981,-9.8265,0,0,36.762,1,1,7746,3872
4465,6.0828e+07,2,-0.00097256,-0.00041673,-0.0017261,-0.23448,-0.11836,-9.8253,0,0,36.762,1,1,7746,3872
4496,6.0831e+07,2,-0.0010102,0.00076135,-0.0018799,-0.23583,-0.11469,-9.8247,0,0,36.762,1,1,7746,3872
4500,6.0833e+07,2,-0.0015129,0.0023069,-0.0017325,-0.23862,-0.11292,-9.8287,0,0,36.762,1,1,7746,3872
4505,6.0836e+07,2,-0.0018025,0.0028171,-0.001766,-0.23901,-0.11141,-9.8307,0,0,36.762,1,1,7746,3872
4509,6.0838e+07,2,-0.0011774,0.0030562,-0.00040669,-0.2387,-0.10936,-9.833,0,0,36.762,1,1,7746,3872
4540,6.0841e+07,2,-0.0012908,0.0026538,0.00048325,-0.23799,-0.10693,-9.8355,0,0,36.762,1,1,7746,3872
4543,6.0844e+07,2,-0.0013463,0.0030157,0.0012578,-0.23754,-0.10616,-9.8356,0,0,36.762,1,1,7746,3872
4547,6.0846e+07,2,-0.0018264,0.0031727,0.00081025,-0.23727,-0.10532,-9.8335,0,0,36.762,1,1,7746,3872
4550,6.0848e+07,2,-0.001835,0.0020854,-0.0002475,-0.23879,-0.1037,-9.8288,0,0,36.762,1,1,7746,3872
4581,6.0851e+07,2,-0.0010792,0.0022401,-0.00051169,-0.23947,-0.10246,-9.8262,0,0,36.762,1,1,7746,3872
4585,6.0855e+07,2,-0.00082031,0.0022884,-0.00018034,-0.23936,-0.10359,-9.8215,0,0,36.762,1,1,7746,3872
4588,6.0857e+07,2,-0.0015624,0.0025296,-0.00070614,-0.23822,-0.10823,-9.8194,0,0,36.762,1,1,7746,3872
4591,6.0859e+07,2,-0.0026716,0.0020604,-0.00043089,-0.23809,-0.11152,-9.8214,0,0,36.762,1,1,7746,3872
4622,6.0862e+07,2,-0.0035287,0.00198,-0.00095019,-0.23818,-0.11329,-9.8245,0,0,36.762,1,1,7746,3872
4625,6.0864e+07,2,-0.0027311,0.0020053,-0.00099162,-0.23861,-0.11291,-9.8248,0,0,36.762,1,1,7746,3872
4628,6.0867e+07,2,-0.0018416,0.0011296,-0.00053457,-0.23895,-0.11252,-9.8243,0,0,36.762,1,1,7746,3872
4631,6.0872e+07,2,-0.00084589,-0.00038576,-2.4236e-05,-0.23798,-0.10933,-9.8248,0,0,36.762,1,1,7746,3872
4663,6.0874e+07,2,-0.00036701,-0.00057174,0.00013338,-0.23674,-0.10708,-9.8265,0,0,36.762,1,1,7746,3872
4666,6.0877e+07,2,-0.00027637,0.00048526,0.00086466,-0.23532,-0.1046,-9.8259,0,0,36.762,1,1,7746,3872
4669,6.088e+07,2,-0.00065425,0.0013656,0.00091142,-0.23388,-0.10231,-9.8237,0,0,36.763,1,1,7746,3872
4672,6.0882e+07,2,-0.0020161,0.0018318,-0.00041212,-0.23194,-0.098077,-9.8214,0,0,36.763,1,1,7746,3872
4703,6.0884e+07,2,-0.0024619,0.0012985,-9.4791e-05,-0.23102,-0.092777,-9.8229,0,0,36.763,1,1,7746,3872
4707,6.0887e+07,2,-0.0019518,0.00057596,0.00080862,-0.23036,-0.089811,-9.8255,0,0,36.763,1,1,7746,3872
4710,6.089e+07,2,-0.0012885,4.583e-05,0.001024,-0.22835,-0.086514,-9.8286,0,0,36.763,1,1,7746,3872
4713,6.0892e+07,2,-0.00080842,-0.00040542,0.00057916,-0.22808,-0.085507,-9.8305,0,0,36.763,1,1,7746,3872
4744,6.0895e+07,2,0.00021038,-0.0019681,0.00073132,-0.22961,-0.086439,-9.8342,0,0,36.763,1,1,7746,3872
4748,6.0897e+07,2,0.00076095,-0.0022479,0.0016958,-0.23071,-0.087791,-9.8351,0,0,36.763,1,1,7746,3872
4751,6.09e+07,2,0.0012408,-0.0016674,0.0021437,-0.2316,-0.088805,-9.834,0,0,36.763,1,1,7746,3872
4754,6.0902e+07,2,0.00089217,-0.00096206,0.0023303,-0.23275,-0.08996,-9.8308,0,0,36.763,1,1,7746,3872
4785,6.0905e+07,2,0.00020663,-0.00071125,0.0023348,-0.23366,-0.089136,-9.8234,0,0,36.763,1,1,7746,3872
4789,6.0908e+07,2,-6.7026e-05,-0.00091085,0.0019084,-0.23281,-0.088343,-9.818,0,0,36.763,1,1,7746,3872
4792,6.091e+07,2,0.0010431,-0.0017741,-0.00073944,-0.23155,-0.088594,-9.8123,0,0,36.763,1,1,7746,3872
4795,6.0912e+07,2,0.0013202,-0.0019813,-0.00087385,-0.23116,-0.088349,-9.8117,0,0,36.763,1,1,7746,3872
4826,6.0915e+07,2,0.00051707,-0.00069697,0.0005962,-0.22825,-0.090063,-9.8148,0,0,36.763,1,1,7746,3872
4829,6.0918e+07,2,3.7868e-05,5.9264e-05,0.0020205,-0.22639,-0.092983,-9.8144,0,0,36.763,1,1,7746,3872
4832,6.092e+07,2,0.00067123,0.0011437,0.0029384,-0.22362,-0.098063,-9.8146,0,0,36.763,1,1,7746,3872
4835,6.0922e+07,2,0.0010686,0.0012049,0.0029453,-0.22287,-0.10111,-9.8152,0,0,36.763,1,1,7746,3872
4870,6.0925e+07,2,0.001282,0.0012691,0.002049,-0.22408,-0.10356,-9.8132,0,0,36.763,1,1,7746,3872
4874,6.0927e+07,2,0.00099248,0.0019351,0.0014209,-0.2257,-0.10488,-9.8107,0,0,36.763,1,1,7746,3872
4877,6.093e+07,2,0.0015038,0.0023991,0.0015112,-0.22821,-0.10728,-9.8105,0,0,36.764,1,1,7746,3872
4880,6.0933e+07,2,0.0017998,0.0021472,0.0014358,-0.22897,-0.1083,-9.8116,0,0,36.764,1,1,7746,3872
4911,6.0935e+07,2,0.0014317,0.0016243,0.00078624,-0.23152,-0.11228,-9.8188,0,0,36.764,1,1,7746,3872
4914,6.0938e+07,2,0.0015426,0.0013029,0.00048751,-0.23433,-0.11712,-9.8284,0,0,36.764,1,1,7746,3872
4917,6.0941e+07,2,0.0023009,0.0013546,0.00027697,-0.23581,-0.11913,-9.8332,0,0,36.764,1,1,7746,3872
4920,6.0942e+07,2,0.0022563,0.0014013,-0.0010085,-0.23746,-0.12088,-9.839,0,0,36.764,1,1,7746,3872
4951,6.0945e+07,2,0.0019226,0.0011581,-0.0012045,-0.23787,-0.12127,-9.8431,0,0,36.764,1,1,7746,3872
4955,6.0947e+07,2,0.0014151,0.0012382,0.00080485,-0.23732,-0.12229,-9.8457,0,0,36.764,1,1,7746,3872
4958,6.095e+07,2,0.00078838,0.0016913,0.0015183,-0.23661,-0.12277,-9.8435,0,0,36.764,1,1,7746,3872
4961,6.0953e+07,2,0.0010225,0.0025868,0.00040654,-0.23627,-0.12212,-9.84,0,0,36.764,1,1,7746,3872
4992,6.0955e+07,2,0.0011358,0.0030031,-0.0016163,-0.2385,-0.12131,-9.8358,0,0,36.764,1,1,7746,3872
4996,6.0958e+07,2,0.00029064,0.0028197,-0.0028458,-0.23951,-0.12149,-9.8318,0,0,36.764,1,1,7746,3872
4999,6.096e+07,2,-0.00090394,0.0025983,-0.0031575,-0.2391,-0.12089,-9.8273,0,0,36.765,1,1,7746,3872
5003,6.0962e+07,2,-0.00066542,0.0018528,-0.0022275,-0.2373,-0.11959,-9.8234,0,0,36.765,1,1,7746,3872
5034,6.0968e+07,2,0.00234,-0.00030346,-0.000899,-0.23336,-0.11803,-9.8221,0,0,36.765,1,1,7746,3872
5037,6.0973e+07,2,0.0016575,-0.00063427,-0.0010914,-0.2305,-0.11746,-9.8217,0,0,36.765,1,1,7746,3872
5068,6.0976e+07,2,0.0018244,-0.00045051,-0.0010907,-0.2307,-0.11785,-9.8186,0,0,36.765,1,1,7746,3872
5071,6.0979e+07,2,0.0018434,-0.00020161,-0.0010616,-0.23201,-0.11779,-9.8152,0,0,36.765,1,1,7746,3872
5074,6.0981e+07,2,0.001184,0.00012246,-0.0015504,-0.2312,-0.11571,-9.808,0,0,36.765,1,1,7746,3872
5077,6.0983e+07,2,0.00012427,0.00049117,-0.0016082,-0.22828,-0.11373,-9.8048,0,0,36.765,1,1,7746,3872
5108,6.0986e+07,2,-0.0002001,0.00071601,-0.00036695,-0.22414,-0.11156,-9.8029,0,0,36.765,1,1,7746,3872
5112,6.0988e+07,2,-0.00030146,0.00019631,0.00058042,-0.22352,-0.10974,-9.8053,0,0,36.766,1,1,7746,3872
5115,6.0991e+07,2,-0.00049065,-4.5544e-05,0.00098942,-0.22308,-0.10905,-9.8076,0,0,36.766,1,1,7746,3872
5118,6.0994e+07,2,-0.00043497,7.8023e-05,0.0020049,-0.22202,-0.10823,-9.8084,0,0,36.766,1,1,7746,3872
5149,6.0996e+07,2,-0.0011274,0.00054136,0.0018048,-0.22254,-0.1087,-9.8091,0,0,36.766,1,1,7746,3872
5152,6.0999e+07,2,-0.0014208,0.00046326,0.0016094,-0.22376,-0.10937,-9.8107,0,0,36.766,1,1,7746,3872
5156,6.1002e+07,2,-0.0024344,-0.00019044,0.0012267,-0.22696,-0.10874,-9.8142,0,0,36.766,1,1,7746,3872
5159,6.1005e+07,2,-0.0026733,-0.00074676,0.00032932,-0.22859,-0.1078,-9.8189,0,0,36.766,1,1,7746,3872
5190,6.1007e+07,2,-0.0025611,-0.00048281,0.00053166,-0.22965,-0.10724,-9.8285,0,0,36.766,1,1,7746,3872
5193,6.101e+07,2,-0.0025671,-0.00088385,0.0012784,-0.23078,-0.10867,-9.8346,0,0,36.767,1,1,7746,3872
5197,6.1012e+07,2,-0.0025192,-0.00098449,0.0019252,-0.2318,-0.10907,-9.836,0,0,36.767,1,1,7746,3872
5200,6.1015e+07,2,-0.0015768,-0.00044674,0.0026586,-0.23181,-0.10974,-9.8331,0,0,36.767,1,1,7746,3872
5231,6.1018e+07,2,-0.0014186,-0.00088318,0.0019311,-0.22782,-0.10947,-9.8271,0,0,36.767,1,1,7746,3872
5234,6.102e+07,2,-0.0014817,-0.0017465,0.0022489,-0.22476,-0.11083,-9.8246,0,0,36.767,1,1,7746,3872
5237,6.1023e+07,2,-0.0015535,-0.0023921,0.002732,-0.22304,-0.11324,-9.8215,0,0,36.767,1,1,7746,3872
5240,6.1025e+07,2,-0.001403,-0.0028444,0.0034898,-0.22315,-0.11646,-9.8185,0,0,36.767,1,1,7746,3872
5275,6.1028e+07,2,-0.0018773,-0.0016832,0.0023542,-0.22515,-0.11711,-9.8184,0,0,36.767,1,1,7746,3872
5278,6.103e+07,2,-0.00227,-0.00064207,0.0014162,-0.22814,-0.11699,-9.8175,0,0,36.767,1,1,7746,3872
5282,6.1032e+07,2,-0.0023817,-0.00048094,0.0012171,-0.23068,-0.11604,-9.8169,0,0,36.767,1,1,7746,3872
5286,6.1035e+07,2,-0.0018314,-0.00055999,0.0010365,-0.23332,-0.11285,-9.8152,0,0,36.767,1,1,7746,3872
5317,6.1037e+07,2,-0.0015812,-0.00033711,0.0014119,-0.23284,-0.10924,-9.8143,0,0,36.767,1,1,7746,3872
5322,6.1041e+07,2,-0.00046421,-7.9024e-05,0.0013029,-0.23289,-0.10621,-9.8155,0,0,36.768,1,1,7746,3872
5325,6.1042e+07,2,0.0012943,0.00058256,0.0012384,-0.23362,-0.10136,-9.8178,0,0,36.768,1,1,7746,3872
5328,6.1045e+07,2,0.0014744,0.00028416,0.0020011,-0.23235,-0.099113,-9.8181,0,0,36.768,1,1,7746,3872
5359,6.1048e+07,2,0.0017397,0.00013824,0.0029266,-0.22895,-0.097587,-9.8174,0,0,36.768,1,1,7746,3872
5362,6.105e+07,2,0.0019036,2.4138e-05,0.0028466,-0.22803,-0.098632,-9.8176,0,0,36.768,1,1,7746,3872
5366,6.1053e+07,2,0.0019068,6.1656e-05,0.0013509,-0.22934,-0.10042,-9.8194,0,0,36.768,1,1,7746,3872
5369,6.1055e+07,2,0.00062251,0.00053117,0.00086806,-0.23077,-0.1011,-9.8198,0,0,36.768,1,1,7746,3872
5400,6.1057e+07,2,-0.00036819,0.00049553,0.00074664,-0.23234,-0.1017,-9.8193,0,0,36.768,1,1,7746,3872
5403,6.1061e+07,2,-0.0001902,0.00037231,0.00094994,-0.23314,-0.10227,-9.8192,0,0,36.768,1,1,7746,3872
5407,6.1062e+07,2,0.00036227,0.00048509,0.002083,-0.23276,-0.10481,-9.8188,0,0,36.768,1,1,7746,3872
5410,6.1068e+07,2,0.0014348,0.0019012,0.0005158,-0.23651,-0.1071,-9.8218,0,0,36.769,1,1,7746,3872
5441,6.1071e+07,2,0.0011169,0.0023523,-0.00044023,-0.2392,-0.10538,-9.8271,0,0,36.769,1,1,7746,3872
5445,6.1074e+07,2,0.00068716,0.0018444,0.00013821,-0.24039,-0.10373,-9.8285,0,0,36.769,1,1,7746,3872
5448,6.1076e+07,2,0.00097581,0.001208,0.0015146,-0.24257,-0.10026,-9.8272,0,0,36.769,1,1,7746,3872
5451,6.1078e+07,2,0.0011326,0.00049979,0.0015225,-0.24353,-0.098279,-9.8268,0,0,36.769,1,1,7746,3872
5482,6.1081e+07,2,0.0018602,0.00021772,0.0011177,-0.2434,-0.096763,-9.8263,0,0,36.769,1,1,7746,3872
5486,6.1083e+07,2,0.002786,-0.00017789,-3.2596e-05,-0.24323,-0.096762,-9.8262,0,0,36.769,1,1,7746,3872
5489,6.1086e+07,2,0.002542,-8.2199e-05,-0.0015863,-0.24162,-0.097888,-9.8273,0,0,36.769,1,1,7746,3872
5492,6.1089e+07,2,0.0025361,0.00034142,-0.0013468,-0.24072,-0.098411,-9.8269,0,0,36.769,1,1,7746,3872
5523,6.1091e+07,2,0.0028884,0.0016136,-0.00016742,-0.23711,-0.10066,-9.8253,0,0,36.769,1,1,7746,3872
5526,6.1094e+07,2,0.003479,0.0022417,-0.00028493,-0.23421,-0.1034,-9.8271,0,0,36.769,1,1,7746,3872
5529,6.1097e+07,2,0.0033772,0.0025405,-0.00064219,-0.23281,-0.10612,-9.8276,0,0,36.769,1,1,7746,3872
5532,6.1099e+07,2,0.002495,0.0021649,-0.00055208,-0.23164,-0.11277,-9.8279,0,0,36.769,1,1,7746,3872
5563,6.1102e+07,2,0.0020206,0.0016129,0.00024938,-0.23146,-0.11841,-9.8263,0,0,36.77,1,1,7746,3872
5567,6.1104e+07,2,0.0019007,0.00099585,0.00037855,-0.23287,-0.12049,-9.8241,0,0,36.77,1,1,7746,3872
5570,6.1106e+07,2,0.0013437,-7.7014e-05,0.00068853,-0.23553,-0.12233,-9.8222,0,0,36.77,1,1,7746,3872
5574,6.1109e+07,2,0.00080264,-0.0011937,0.00096103,-0.23931,-0.12424,-9.8227,0,0,36.77,1,1,7746,3872
5605,6.1112e+07,2,0.00046375,-0.0012077,-0.00043995,-0.23986,-0.12467,-9.8241,0,0,36.77,1,1,7746,3872
5608,6.1115e+07,2,-0.0002289,-0.0016274,-0.000429,-0.23945,-0.12459,-9.8244,0,0,36.77,1,1,7746,3872
5611,6.1117e+07,2,-0.0015912,-0.0015429,-0.00067281,-0.24002,-0.12402,-9.8227,0,0,36.77,1,1,7746,3872
5614,6.1119e+07,2,-0.0015121,-0.0012879,-0.0011436,-0.24028,-0.12345,-9.8227,0,0,36.77,1,1,7746,3872
5648,6.1122e+07,2,-0.00067607,-0.00091472,-0.001641,-0.24172,-0.12169,-9.8243,0,0,36.77,1,1,7746,3872
5652,6.1124e+07,2,-0.00052431,-0.00074273,-0.0013686,-0.24132,-0.12099,-9.8264,0,0,36.77,1,1,7746,3872
5655,6.1127e+07,2,0.00013593,-0.00095949,-0.00091381,-0.23911,-0.12179,-9.8302,0,0,36.77,1,1,7746,3872
5662,6.113e+07,2,2.2722e-05,-0.0014204,-0.00050898,-0.23821,-0.12108,-9.8319,0,0,36.77,1,1,7746,3872
5693,6.1132e+07,2,-0.00082002,-0.0012687,0.00039876,-0.23796,-0.11802,-9.8309,0,0,36.77,1,1,7746,3872
5696,6.1135e+07,2,-0.00096709,-0.00083639,0.0010227,-0.23846,-0.11424,-9.8247,0,0,36.77,1,1,7746,3872
5699,6.1138e+07,2,-0.00039477,-0.0013923,0.0010009,-0.23816,-0.11206,-9.8211,0,0,36.77,1,1,7746,3872
5702,6.114e+07,2,-0.00040318,-0.0017166,0.001255,-0.23763,-0.1112,-9.8169,0,0,36.77,1,1,7746,3872
5733,6.1142e+07,2,-0.0010332,-0.0011394,0.00015181,-0.23834,-0.11262,-9.8134,0,0,36.77,1,1,7746,3872
5737,6.1145e+07,2,-0.0012559,-0.0012518,-0.0012541,-0.23828,-0.114,-9.8128,0,0,36.77,1,1,7746,3872
5740,6.1147e+07,2,-0.00081589,-0.00095771,-0.001985,-0.23626,-0.11591,-9.8129,0,0,36.77,1,1,7746,3872
5743,6.115e+07,2,-0.0012094,-0.00057417,-0.0021632,-0.23356,-0.11616,-9.8128,0,0,36.77,1,1,7746,3872
5774,6.1153e+07,2,-0.0017208,-0.00070866,-0.0022902,-0.23094,-0.11493,-9.8112,0,0,36.77,1,1,7746,3872
5777,6.1155e+07,2,-0.0017328,-0.0011008,-0.0021714,-0.22835,-0.11396,-9.8104,0,0,36.77,1,1,7746,3872
5781,6.1157e+07,2,-0.0018105,-0.001786,-0.0019317,-0.22681,-0.11263,-9.8107,0,0,36.77,1,1,7746,3872
5784,6.116e+07,2,-0.0019841,-0.0007511,-0.00099918,-0.22642,-0.10948,-9.8089,0,0,36.77,1,1,7746,3872
5815,6.1164e+07,2,-0.00057315,0.00045685,-0.00098781,-0.22659,-0.10808,-9.8077,0,0,36.77,1,1,7746,3872
5818,6.1166e+07,2,-0.00018904,0.0017315,-0.0016865,-0.22862,-0.10826,-9.8084,0,0,36.77,1,1,7746,3872
5821,6.1168e+07,2,-0.00024962,0.0016018,-0.0021825,-0.22978,-0.10905,-9.811,0,0,36.77,1,1,7746,3872
5824,6.117e+07,2,0.00056718,0.00076997,-0.0020032,-0.22961,-0.10986,-9.8135,0,0,36.77,1,1,7746,3872
5855,6.1177e+07,2,-0.00015358,3.6993e-05,-0.00097536,-0.22975,-0.1067,-9.8158,0,0,36.77,1,1,7746,3872
5858,6.1179e+07,2,-0.00056647,0.00074522,-0.0010366,-0.23066,-0.10584,-9.8175,0,0,36.77,1,1,7746,3872
5862,6.1181e+07,2,-0.00088121,0.00055584,-0.00087505,-0.2318,-0.10648,-9.8197,0,0,36.77,1,1,7746,3872
5893,6.1183e+07,2,-0.0021843,0.00040631,-0.00011613,-0.23374,-0.10685,-9.8208,0,0,36.77,1,1,7746,3872
5896,6.1186e+07,2,-0.0024242,0.00028296,4.5546e-05,-0.23547,-0.10714,-9.8212,0,0,36.77,1,1,7746,3872
5899,6.1189e+07,2,-0.0020217,0.00045314,3.417e-05,-0.23657,-0.106,-9.8254,0,0,36.77,1,1,7746,3872
5902,6.1191e+07,2,-0.0017583,0.00094807,0.00066344,-0.23794,-0.10502,-9.8283,0,0,36.77,1,1,7746,3872
5933,6.1193e+07,2,-0.0014578,0.00089956,0.0019951,-0.23753,-0.10468,-9.83,0,0,36.77,1,1,7746,3872
5936,6.1196e+07,2,-0.00091619,0.00045059,0.0029609,-0.23568,-0.1056,-9.8305,0,0,36.77,1,1,7746,3872
5939,6.1199e+07,2,1.4071e-05,0.00085261,0.0021895,-0.23185,-0.10736,-9.8306,0,0,36.77,1,1,7746,3872
5942,6.1202e+07,2,0.00017335,0.0011126,0.0012287,-0.22984,-0.10871,-9.8286,0,0,36.77,1,1,7746,3872
5973,6.1204e+07,2,-0.00016951,0.0015489,-0.0012641,-0.22884,-0.10772,-9.8258,0,0,36.77,1,1,7746,3872
5977,6.1207e+07,2,-0.0017279,0.0026347,-0.0019212,-0.22995,-0.10388,-9.8244,0,0,36.77,1,1,7746,3872
5981,6.1209e+07,2,-0.0017814,0.0029329,-0.0018851,-0.22982,-0.10102,-9.8257,0,0,36.77,1,1,7746,3872
5984,6.1212e+07,2,-0.00086765,0.002337,-0.00080047,-0.22857,-0.098057,-9.8306,0,0,36.77,1,1,7746,3872
6015,6.1215e+07,2,0.00029894,0.0018531,-0.00014817,-0.22647,-0.096414,-9.8341,0,0,36.77,1,1,7746,3872
6018,6.1217e+07,2,0.00073491,0.0013393,0.00030197,-0.2244,-0.093968,-9.8367,0,0,36.77,1,1,7746,3872
6021,6.122e+07,2,0.00056822,0.00070603,4.8311e-05,-0.22345,-0.090196,-9.8389,0,0,36.77,1,1,7746,3872
6024,6.1222e+07,2,0.00068085,-0.00034408,-0.00012826,-0.22336,-0.088961,-9.8387,0,0,36.77,1,1,7746,3872
6055,6.1225e+07,2,0.00077938,-0.0015361,0.0004703,-0.22359,-0.090423,-9.8384,0,0,36.77,1,1,7746,3872
6060,6.1228e+07,2,0.00071348,-0.0013766,0.00020017,-0.22329,-0.092585,-9.8378,0,0,36.77,1,1,7746,3872
6064,6.123e+07,2,0.0012949,-7.1699e-05,-0.0005156,-0.22174,-0.09714,-9.8377,0,0,36.77,1,1,7746,3872
6071,6.1232e+07,2,0.0022664,0.00052522,-0.0011603,-0.22008,-0.10041,-9.8399,0,0,36.77,1,1,7746,3872
6102,6.1235e+07,2,0.002923,0.00088592,-0.0011769,-0.21703,-0.10509,-9.8417,0,0,36.77,1,1,7746,3872
6105,6.1237e+07,2,0.0026465,0.0013196,-5.1354e-05,-0.21499,-0.10752,-9.8414,0,0,36.77,1,1,7746,3872
6108,6.124e+07,2,0.0032559,0.0015857,0.0016927,-0.21254,-0.11024,-9.8368,0,0,36.77,1,1,7746,3872
6111,6.1242e+07,2,0.0030011,0.0010164,0.0011195,-0.21181,-0.11179,-9.8307,0,0,36.769,1,1,7746,3872
6142,6.1245e+07,2,0.0019017,-0.00052189,-0.00093188,-0.21241,-0.11342,-9.8241,0,0,36.769,1,1,7746,3872
6145,6.1248e+07,2,0.0018,-0.0007481,-0.0012188,-0.21427,-0.11524,-9.8195,0,0,36.769,1,1,7746,3872
6149,6.125e+07,2,0.002054,-0.00049664,-0.0011478,-0.21875,-0.11732,-9.8141,0,0,36.769,1,1,7746,3872
6152,6.1252e+07,2,0.0020382,-0.00019964,-0.00087664,-0.22231,-0.11831,-9.8132,0,0,36.769,1,1,7746,3872
6183,6.1255e+07,2,0.0016668,-0.00075354,-0.00076748,-0.22594,-0.11938,-9.8136,0,0,36.769,1,1,7746,3872
6186,6.1257e+07,2,0.0015134,-0.0010341,-0.00013738,-0.22788,-0.11931,-9.8147,0,0,36.769,1,1,7746,3872
6189,6.126e+07,2,0.0016929,-0.00071879,0.00036374,-0.22981,-0.11713,-9.8186,0,0,36.769,1,1,7746,3872
6192,6.1262e+07,2,0.0013729,-0.00078719,0.00062858,-0.22867,-0.11558,-9.8206,0,0,36.769,1,1,7746,3872
6223,6.1265e+07,2,0.00057211,-0.0011817,0.00027301,-0.22578,-0.11404,-9.8232,0,0,36.769,1,1,7746,3872
6226,6.1267e+07,2,-0.00053478,-0.0010639,0.00032907,-0.22603,-0.11388,-9.8242,0,0,36.769,1,1,7746,3872
6230,6.127e+07,2,-0.0012946,-0.00046676,-0.00022778,-0.22593,-0.11418,-9.8213,0,0,36.769,1,1,7746,3872
6233,6.1274e+07,2,0.00058813,-0.00048157,-0.0012025,-0.22573,-0.11597,-9.8129,0,0,36.77,1,1,7746,3872
6264,6.128e+07,2,0.00052578,0.00034544,-0.00031268,-0.22505,-0.11723,-9.8033,0,0,36.77,1,1,7746,3872
6268,6.1282e+07,2,0.00019912,0.0015449,0.00043193,-0.22608,-0.1176,-9.8017,0,0,36.77,1,1,7746,3872
6271,6.1285e+07,2,8.0723e-05,0.0021686,0.00064829,-0.22534,-0.11745,-9.8023,0,0,36.77,1,1,7746,3872
6304,6.1288e+07,2,-0.00059575,0.0019502,-0.00018586,-0.22338,-0.1161,-9.8038,0,0,36.77,1,1,7746,3872
6307,6.1291e+07,2,-0.00052087,0.0029149,-0.00069735,-0.22274,-0.11435,-9.8068,0,0,36.77,1,1,7746,3872
6310,6.1293e+07,2,-0.00020687,0.0028305,-0.0009364,-0.22371,-0.11376,-9.8076,0,0,36.77,1,1,7746,3872
6313,6.1295e+07,2,0.00022956,0.0021761,-0.0019108,-0.22452,-0.11237,-9.8077,0,0,36.77,1,1,7746,3872
6344,6.1298e+07,2,0.00048306,0.0020708,-0.0015112,-0.22449,-0.11133,-9.8114,0,0,36.77,1,1,7746,3872
6347,6.1301e+07,2,0.00049671,0.0019498,-0.0020447,-0.22491,-0.11038,-9.8167,0,0,36.77,1,1,7746,3872
6351,6.1303e+07,2,-0.0004323,0.001588,-0.0027359,-0.22674,-0.1106,-9.8187,0,0,36.77,1,1,7746,3872
6356,6.1306e+07,2,-0.0013942,0.00024067,-0.0042365,-0.23078,-0.11362,-9.8189,0,0,36.77,1,1,7746,3872
6387,6.1308e+07,2,-0.0017242,-0.00061458,-0.004089,-0.23172,-0.11455,-9.8187,0,0,36.77,1,1,7746,3872
6390,6.1311e+07,2,-0.0017259,-0.00068596,-0.0028341,-0.23356,-0.11646,-9.8191,0,0,36.77,1,1,7746,3872
6393,6.1313e+07,2,-0.0013071,-0.00017661,-0.0016704,-0.23363,-0.1173,-9.8189,0,0,36.77,1,1,7746,3872
6396,6.1316e+07,2,-0.00061894,0.0015491,-0.0010063,-0.23351,-0.11772,-9.8171,0,0,36.77,1,1,7746,3872
6427,6.1318e+07,2,-0.00094321,0.0018115,0.00038429,-0.23548,-0.1182,-9.8153,0,0,36.77,1,1,7746,3872
6430,6.1321e+07,2,-0.0014632,0.0015005,0.00044928,-0.23574,-0.1185,-9.8151,0,0,36.77,1,1,7746,3872
6434,6.1323e+07,2,-0.0010498,0.0015905,4.3379e-05,-0.23581,-0.11774,-9.8174,0,0,36.77,1,1,7746,3872
6437,6.1326e+07,2,-0.0010102,0.0016687,0.00040508,-0.23697,-0.11752,-9.8201,0,0,36.77,1,1,7746,3872
6468,6.133e+07,2,-0.0015222,0.0011868,0.00041122,-0.23862,-0.11934,-9.8239,0,0,36.77,1,1,7746,3872
6471,6.1331e+07,2,-0.0013969,0.0005247,0.00013256,-0.23946,-0.11951,-9.8251,0,0,36.769,1,1,7746,3872
6479,6.1334e+07,2,-0.0012453,0.00084054,-3.2376e-05,-0.2413,-0.11891,-9.8264,0,0,36.769,1,1,7746,3872
6482,6.1337e+07,2,-0.0018828,0.00067979,-0.00074228,-0.24204,-0.11897,-9.8289,0,0,36.769,1,1,7746,3872
6513,6.1339e+07,2,-0.002012,0.00084958,-0.00062638,-0.24229,-0.11877,-9.8324,0,0,36.769,1,1,7746,3872
6516,6.1342e+07,2,-0.0015624,0.0011009,0.00034626,-0.24148,-0.11815,-9.8333,0,0,36.769,1,1,7746,3872
6519,6.1344e+07,2,-0.0012378,0.00095752,0.00077924,-0.24108,-0.1187,-9.8319,0,0,36.769,1,1,7746,3872
6522,6.1347e+07,2,-0.00080787,0.0010773,0.00064262,-0.2407,-0.11933,-9.8302,0,0,36.769,1,1,7746,3872
6553,6.1349e+07,2,-0.0014258,0.0017135,0.00018914,-0.23916,-0.11876,-9.8284,0,0,36.769,1,1,7746,3872
6556,6.1352e+07,2,-0.00080462,0.0016864,0.00025301,-0.23347,-0.11808,-9.8228,0,0,36.769,1,1,7746,3872
6561,6.1354e+07,2,-0.00027242,0.0010865,0.00023715,-0.22984,-0.11706,-9.8171,0,0,36.769,1,1,7746,3872
6564,6.1357e+07,2,-0.00060192,5.1699e-05,-0.00087744,-0.22862,-0.1141,-9.8119,0,0,36.769,1,1,7746,3872
6595,6.1359e+07,2,-0.00096912,0.00020564,-0.0007744,-0.22764,-0.10971,-9.8051,0,0,36.769,1,1,7746,3872
6598,6.1362e+07,2,-0.000799,0.00053488,0.00055858,-0.22711,-0.10655,-9.8007,0,0,36.769,1,1,7746,3872
6601,6.1364e+07,2,-0.00065738,0.00083534,0.0016631,-0.2277,-0.10411,-9.7971,0,0,36.769,1,1,7746,3872
6604,6.1367e+07,2,-0.0023217,0.00069616,0.0018033,-0.22824,-0.10297,-9.7932,0,0,36.769,1,1,7746,3872
6635,6.137e+07,2,-0.0028161,-0.00033185,0.0015178,-0.22731,-0.10348,-9.7927,0,0,36.769,1,1,7746,3872
6638,6.1372e+07,2,-0.0024187,-0.00014261,0.00036986,-0.22725,-0.1037,-9.7929,0,0,36.769,1,1,7746,3872
6642,6.1374e+07,2,-0.0015563,0.00043021,-0.00037843,-0.22729,-0.1038,-9.7956,0,0,36.769,1,1,7746,3872
6645,6.1383e+07,2,0.00032648,0.00070227,0.00031795,-0.23097,-0.10095,-9.801,0,0,36.769,1,1,7746,3872
6677,6.1385e+07,2,0.0011027,0.0013073,3.4768e-05,-0.23197,-0.10266,-9.803,0,0,36.769,1,1,7746,3872
6680,6.1388e+07,2,0.0013606,0.0017176,-0.00060304,-0.23085,-0.10529,-9.8079,0,0,36.769,1,1,7746,3872
6683,6.1391e+07,2,0.00098895,0.0014104,-0.00085299,-0.22997,-0.10588,-9.8119,0,0,36.769,1,1,7746,3872
6686,6.1393e+07,2,0.001912,0.00094775,-0.00090632,-0.22979,-0.10625,-9.8157,0,0,36.769,1,1,7746,3872
6717,6.1396e+07,2,0.0031642,0.0010539,-0.00099374,-0.23061,-0.10786,-9.8188,0,0,36.769,1,1,7746,3872
6721,6.1398e+07,2,0.003072,0.0018326,-0.00017124,-0.23098,-0.10834,-9.8204,0,0,36.769,1,1,7746,3872
6724,6.1401e+07,2,0.0017307,0.0017296,6.3304e-05,-0.23175,-0.10937,-9.8238,0,0,36.769,1,1,7746,3872
6728,6.1404e+07,2,0.0011437,0.00119,-0.0001655,-0.23165,-0.10973,-9.8251,0,0,36.769,1,1,7746,3872
6759,6.1407e+07,2,0.0012651,0.00091464,-0.0011274,-0.22995,-0.10978,-9.8271,0,0,36.769,1,1,7746,3872
6763,6.1409e+07,2,0.0013365,0.0013382,-0.0014108,-0.22753,-0.11073,-9.8305,0,0,36.769,1,1,7746,3872
6766,6.1411e+07,2,0.001215,0.0014523,-0.00073603,-0.2266,-0.11203,-9.8345,0,0,36.769,1,1,7746,3872
6769,6.1413e+07,2,0.001387,0.0019343,8.0672e-06,-0.22616,-0.11298,-9.8381,0,0,36.769,1,1,7746,3872
6800,6.1416e+07,2,0.0010494,0.001679,-0.00047555,-0.22577,-0.11213,-9.8381,0,0,36.769,1,1,7746,3872
6803,6.1419e+07,2,0.00074088,0.00084453,-0.00069643,-0.22489,-0.11079,-9.8357,0,0,36.769,1,1,7746,3872
6806,6.1421e+07,2,0.00092214,0.00040885,0.00015903,-0.22566,-0.11008,-9.8346,0,0,36.769,1,1,7746,3872
6809,6.1423e+07,2,0.0017836,-0.00038189,0.00037192,-0.2284,-0.10926,-9.8321,0,0,36.769,1,1,7746,3872
6840,6.1426e+07,2,0.0022315,-0.00057729,0.00043122,-0.2321,-0.10875,-9.8305,0,0,36.769,1,1,7746,3872
6844,6.1429e+07,2,0.0022514,-0.00061632,-0.00032202,-0.2368,-0.10564,-9.8297,0,0,36.769,1,1,7746,3872
6849,6.1432e+07,2,0.0025177,-0.00038625,-0.00089764,-0.23711,-0.10382,-9.8278,0,0,36.769,1,1,7746,3872
6852,6.1434e+07,2,0.0022987,-0.00069693,-0.00074272,-0.23699,-0.10373,-9.8241,0,0,36.769,1,1,7746,3872
6887,6.1436e+07,2,0.0018837,-0.00072181,0.00020326,-0.23667,-0.10534,-9.8175,0,0,36.769,1,1,7746,3872
6890,6.1439e+07,2,0.0020064,0.00052281,0.00058539,-0.23189,-0.1088,-9.8064,0,0,36.769,1,1,7746,3872
6893,6.1441e+07,2,0.0020448,0.0017044,0.0012164,-0.22865,-0.11243,-9.8007,0,0,36.769,1,1,7746,3872
6896,6.1444e+07,2,0.0012727,0.0012482,0.00084397,-0.22664,-0.11801,-9.7981,0,0,36.769,1,1,7746,3872
6927,6.1447e+07,2,-0.00068252,0.00059568,0.00022487,-0.22677,-0.12008,-9.7998,0,0,36.769,1,1,7746,3872
6931,6.1449e+07,2,-0.0028586,-0.00041719,0.0002069,-0.22707,-0.11955,-9.801,0,0,36.769,1,1,7746,3872
6934,6.1451e+07,2,-0.0025855,-0.00072065,0.0003541,-0.22656,-0.11845,-9.7992,0,0,36.769,1,1,7746,3872
6937,6.1454e+07,2,-0.0011503,-0.00040109,0.00069202,-0.22577,-0.11845,-9.7966,0,0,36.769,1,1,7746,3872
6968,6.1457e+07,2,-0.00050399,-0.00012582,0.0012206,-0.22454,-0.11947,-9.7936,0,0,36.769,1,1,7746,3872
6972,6.1459e+07,2,-0.001053,-0.00020142,0.00086214,-0.22332,-0.12001,-9.7922,0,0,36.769,1,1,7746,3872
6975,6.1461e+07,2,-0.0020645,1.6881e-05,7.0873e-05,-0.22104,-0.1199,-9.7922,0,0,36.769,1,1,7746,3872
6978,6.1464e+07,2,-0.0017938,2.8973e-05,-0.00031233,-0.22034,-0.1193,-9.7933,0,0,36.769,1,1,7746,3872
7009,6.1467e+07,2,-0.0017273,0.00061057,-0.00099712,-0.21682,-0.11564,-9.7965,0,0,36.769,1,1,7746,3872
7012,6.147e+07,2,-0.0016753,0.00073436,-0.00098809,-0.2141,-0.11206,-9.8001,0,0,36.769,1,1,7746,3872
7015,6.1473e+07,2,-0.0013354,0.00041801,-0.0015446,-0.21386,-0.11054,-9.8016,0,0,36.769,1,1,7746,3872
7018,6.1475e+07,2,-0.0007376,-0.0010908,-0.0024617,-0.21313,-0.10933,-9.8012,0,0,36.769,1,1,7746,3872
7049,6.1478e+07,2,-0.00028856,-0.0018972,-0.0020474,-0.21289,-0.10868,-9.8008,0,0,36.769,1,1,7746,3872
7053,6.148e+07,2,-0.0011839,-0.0015306,-0.00043272,-0.21502,-0.108,-9.8006,0,0,36.769,1,1,7746,3872
7056,6.1483e+07,2,-0.002739,-0.00075785,0.0017854,-0.21826,-0.10833,-9.8029,0,0,36.769,1,1,7746,3872
7059,6.1486e+07,2,-0.0029232,0.00012941,0.0024909,-0.21979,-0.10869,-9.8041,0,0,36.769,1,1,7746,3872
7062,6.1488e+07,2,-0.0033721,2.7514e-05,0.0011084,-0.22274,-0.11119,-9.8054,0,0,36.769,1,1,7746,3872
7093,6.1491e+07,2,-0.0029223,-0.0013974,-0.00024575,-0.22646,-0.11408,-9.8081,0,0,36.769,1,1,7746,3872
7096,6.1494e+07,2,-0.0022782,-0.0011122,-0.00024015,-0.23105,-0.1164,-9.8135,0,0,36.769,1,1,7746,3872
7100,6.1497e+07,2,-0.0019377,-0.0001952,7.2614e-05,-0.23219,-0.11659,-9.8155,0,0,36.769,1,1,7746,3872
7103,6.1498e+07,2,-0.0022362,0.00036092,-0.00011906,-0.23276,-0.11494,-9.8188,0,0,36.769,1,1,7746,3872
7134,6.1501e+07,2,-0.0019764,0.00029003,-0.00029113,-0.23216,-0.11353,-9.82,0,0,36.769,1,1,7746,3872
7138,6.1503e+07,2,-0.00036304,-7.3434e-06,7.8039e-05,-0.2323,-0.11271,-9.8216,0,0,36.769,1,1,7746,3872
7141,6.1506e+07,2,-8.3517e-05,-0.00021074,0.00040511,-0.23226,-0.11232,-9.822,0,0,36.769,1,1,7746,3872
7145,6.1509e+07,2,0.00011905,-0.00023284,-0.00024864,-0.23318,-0.11028,-9.8226,0,0,36.769,1,1,7746,3872
7176,6.1512e+07,2,0.00052545,-0.00010115,-0.00018223,-0.23321,-0.10501,-9.8218,0,0,36.769,1,1,7746,3872
7179,6.1515e+07,2,0.00022037,-0.00053712,-0.00074088,-0.23324,-0.10136,-9.8208,0,0,36.769,1,1,7746,3872
7182,6.1517e+07,2,0.00044847,0.00068872,-0.00076892,-0.23155,-0.098573,-9.8188,0,0,36.769,1,1,7746,3872
7186,6.152e+07,2,0.0010596,0.0016632,-0.00073406,-0.2294,-0.098118,-9.8173,0,0,36.769,1,1,7746,3872
7217,6.1522e+07,2,0.0010759,0.001449,-0.0011414,-0.22784,-0.099973,-9.8172,0,0,36.769,1,1,7746,3872
7220,6.1525e+07,2,0.00074242,0.00036289,-0.0005981,-0.22788,-0.10498,-9.8155,0,0,36.769,1,1,7746,3872
7223,6.1528e+07,2,0.0012592,0.00020603,-0.0011026,-0.2284,-0.10843,-9.813,0,0,36.769,1,1,7746,3872
7226,6.153e+07,2,0.0023414,0.00080624,-0.0017929,-0.22962,-0.11082,-9.8092,0,0,36.769,1,1,7746,3872
7257,6.1533e+07,2,0.0029719,0.00063621,-0.0017865,-0.23038,-0.11232,-9.804,0,0,36.769,1,1,7746,3872
7261,6.1535e+07,2,0.0028491,0.00094924,-0.0010716,-0.23347,-0.11157,-9.8034,0,0,36.769,1,1,7746,3872
7264,6.1538e+07,2,0.0023839,0.0014986,-0.00016011,-0.23937,-0.10968,-9.8053,0,0,36.768,1,1,7746,3872
7271,6.1541e+07,2,0.0026361,0.00079314,0.00051161,-0.24306,-0.10855,-9.8075,0,0,36.768,1,1,7746,3872
7302,6.1544e+07,2,0.0011891,0.00052317,0.0015035,-0.24582,-0.10388,-9.816,0,0,36.768,1,1,7746,3872
7305,6.1546e+07,2,0.00072355,0.00011194,0.0014042,-0.24596,-0.10206,-9.8201,0,0,36.768,1,1,7746,3872
7308,6.1548e+07,2,0.0014013,0.00028142,0.001868,-0.24783,-0.10138,-9.8225,0,0,36.768,1,1,7746,3872
7311,6.1551e+07,2,0.0012916,0.00054958,0.0022384,-0.24886,-0.10087,-9.8231,0,0,36.768,1,1,7746,3872
7342,6.1554e+07,2,0.00085984,0.00042082,0.00062162,-0.24963,-0.10121,-9.8233,0,0,36.768,1,1,7746,3872
7346,6.1556e+07,2,0.0017137,0.00012715,-0.00051026,-0.24926,-0.10338,-9.8205,0,0,36.768,1,1,7746,3872
7349,6.1558e+07,2,0.0023775,0.00054387,-0.0022227,-0.24718,-0.10808,-9.8133,0,0,36.768,1,1,7746,3872
7352,6.1561e+07,2,0.0022355,0.00020129,-0.0024897,-0.24642,-0.10921,-9.8113,0,0,36.768,1,1,7746,3872
7383,6.1564e+07,2,0.0022373,-0.00051861,-0.0023445,-0.24503,-0.11186,-9.8072,0,0,36.768,1,1,7746,3872
7386,6.1566e+07,2,0.0023316,-0.00078387,-0.00068616,-0.24501,-0.11353,-9.8065,0,0,36.768,1,1,7746,3872
7390,6.1569e+07,2,0.0014901,0.0005811,0.0013252,-0.24676,-0.11689,-9.8058,0,0,36.768,1,1,7746,3872
7393,6.1571e+07,2,0.00089295,0.0013177,0.0015231,-0.24705,-0.11821,-9.8063,0,0,36.768,1,1,7746,3872
7425,6.1573e+07,2,0.0012059,0.0017918,0.001999,-0.24486,-0.12052,-9.8073,0,0,36.768,1,1,7746,3872
7429,6.1577e+07,2,0.0011828,0.0019104,0.0018437,-0.24363,-0.1214,-9.8084,0,0,36.768,1,1,7746,3872
7432,6.1579e+07,2,0.00054757,0.00048517,0.0009642,-0.24244,-0.12098,-9.8131,0,0,36.768,1,1,7746,3872
7435,6.1584e+07,2,0.0003613,0.00063647,1.4034e-05,-0.23982,-0.11781,-9.8211,0,0,36.768,1,1,7746,3872
7466,6.1587e+07,2,0.00050599,0.00075178,0.00014942,-0.23826,-0.11657,-9.8235,0,0,36.768,1,1,7746,3872
7469,6.159e+07,2,0.00042603,0.00043211,-0.00056131,-0.23694,-0.11619,-9.8271,0,0,36.768,1,1,7746,3872
7472,6.1592e+07,2,0.00082648,0.00027689,-0.0010525,-0.23572,-0.11613,-9.8313,0,0,36.768,1,1,7746,3872
7475,6.1594e+07,2,0.0013455,0.00033032,-0.001565,-0.2343,-0.11575,-9.8358,0,0,36.768,1,1,7746,3872
7507,6.1596e+07,2,0.0014393,0.00038599,-0.0013055,-0.2327,-0.11536,-9.8402,0,0,36.768,1,1,7746,3872
7510,6.1599e+07,2,0.00071015,0.0013906,-0.00081186,-0.23086,-0.11532,-9.8422,0,0,36.768,1,1,7746,3872
7513,6.1602e+07,2,-7.6996e-05,0.0022275,-0.0012777,-0.2317,-0.11514,-9.8424,0,0,36.768,1,1,7746,3872
7516,6.1604e+07,2,-0.00080992,0.0019085,-0.0012024,-0.23435,-0.11727,-9.8426,0,0,36.767,1,1,7746,3872
7547,6.1607e+07,2,-0.00099565,0.00067475,-0.00062698,-0.23609,-0.11966,-9.8424,0,0,36.767,1,1,7746,3872
7551,6.1609e+07,2,-0.00063404,0.00022254,-0.00036647,-0.23693,-0.12071,-9.8427,0,0,36.767,1,1,7746,3872
7554,6.1612e+07,2,-0.00054018,-0.00090035,-0.00047951,-0.23732,-0.12062,-9.8422,0,0,36.767,1,1,7746,3872
7557,6.1614e+07,2,-0.00023334,-0.0014127,-0.0012681,-0.23772,-0.11965,-9.8413,0,0,36.767,1,1,7746,3872
7588,6.1617e+07,2,8.1522e-05,-0.0015904,-0.0013031,-0.2374,-0.11683,-9.8381,0,0,36.767,1,1,7746,3872
7592,6.162e+07,2,-0.00033112,-0.00089222,-0.001326,-0.23722,-0.1158,-9.8338,0,0,36.767,1,1,7746,3872
7595,6.1622e+07,2,-0.00010471,-0.00056561,-0.001403,-0.23715,-0.1167,-9.8304,0,0,36.767,1,1,7746,3872
7599,6.1624e+07,2,0.00032262,-2.8553e-05,-0.0012483,-0.2373,-0.11818,-9.8253,0,0,36.767,1,1,7746,3872
7630,6.1627e+07,2,0.00038433,0.00022666,-0.0013646,-0.23641,-0.11943,-9.8191,0,0,36.767,1,1,7746,3872
7634,6.163e+07,2,-0.00073988,0.00094848,-0.0017414,-0.23362,-0.11971,-9.8145,0,0,36.767,1,1,7746,3872
7637,6.1632e+07,2,-0.0022001,0.0006248,-0.0021886,-0.23222,-0.11879,-9.8117,0,0,36.766,1,1,7746,3872
7640,6.1634e+07,2,-0.0031123,0.00026099,-0.002604,-0.23124,-0.1154,-9.805,0,0,36.766,1,1,7746,3872
7673,6.1637e+07,2,-0.0027521,-0.00021486,-0.0021443,-0.23067,-0.11342,-9.801,0,0,36.766,1,1,7746,3872
7677,6.164e+07,2,-0.00194,-0.00095726,-0.00011194,-0.23104,-0.11035,-9.7982,0,0,36.766,1,1,7746,3872
7684,6.1643e+07,2,-0.0015759,-0.0015794,0.0011473,-0.23207,-0.10806,-9.798,0,0,36.766,1,1,7746,3872
7687,6.1645e+07,2,-0.0016845,-0.0015404,0.0023587,-0.23545,-0.10507,-9.799,0,0,36.766,1,1,7746,3872
7718,6.1648e+07,2,-0.0014413,-7.1032e-05,0.0021975,-0.23606,-0.10199,-9.8011,0,0,36.766,1,1,7746,3872
7721,6.165e+07,2,-0.0012986,0.00010615,0.0017025,-0.2354,-0.10106,-9.8015,0,0,36.766,1,1,7746,3872
7724,6.1653e+07,2,-0.002222,-0.00062552,0.00064134,-0.23539,-0.09925,-9.8031,0,0,36.766,1,1,7746,3872
7727,6.1656e+07,2,-0.0027038,0.00010484,-0.00057355,-0.2363,-0.095086,-9.8047,0,0,36.766,1,1,7746,3872
7758,6.1658e+07,2,-0.0026761,0.0013097,-0.00091136,-0.23643,-0.094355,-9.8031,0,0,36.766,1,1,7746,3872
7762,6.1661e+07,2,-0.0014903,0.0023826,0.00010454,-0.23468,-0.094269,-9.8047,0,0,36.766,1,1,7746,3872
7765,6.1663e+07,2,-0.00098356,0.0025114,0.00069672,-0.23307,-0.094193,-9.8083,0,0,36.765,1,1,7746,3872
7768,6.1666e+07,2,-0.00067631,0.0010218,-0.00012746,-0.23128,-0.094075,-9.8121,0,0,36.765,1,1,7746,3872
7799,6.1669e+07,2,-0.00068514,0.00034038,-0.00085889,-0.23037,-0.095186,-9.8127,0,0,36.765,1,1,7746,3872
7802,6.1671e+07,2,-0.00118,-0.00020403,-0.0016366,-0.22784,-0.097928,-9.8139,0,0,36.765,1,1,7746,3872
7805,6.1674e+07,2,-0.0012698,6.0295e-05,-0.0011841,-0.22744,-0.099604,-9.8152,0,0,36.765,1,1,7746,3872
7808,6.1676e+07,2,-0.00062387,0.00032871,0.00013068,-0.22694,-0.10247,-9.8159,0,0,36.765,1,1,7746,3872
7839,6.1678e+07,2,3.1403e-05,0.0007339,0.00077972,-0.22673,-0.10433,-9.8149,0,0,36.765,1,1,7746,3872
7843,6.1681e+07,2,0.00015936,0.00090027,0.00076499,-0.22675,-0.10492,-9.8149,0,0,36.765,1,1,7746,3872
7846,6.1683e+07,2,0.00049623,0.00073861,0.00071023,-0.227,-0.1068,-9.8166,0,0,36.765,1,1,7746,3872
7849,6.1686e+07,2,0.00058964,0.0011027,0.00075869,-0.22767,-0.10917,-9.8184,0,0,36.765,1,1,7746,3872
7880,6.1694e+07,2,0.001306,-0.00020326,0.00069884,-0.2246,-0.11221,-9.825,0,0,36.765,1,1,7746,3872
7884,6.1697e+07,2,0.0012916,-0.00021137,0.00087728,-0.2244,-0.10953,-9.8219,0,0,36.765,1,1,7746,3872
7915,6.17e+07,2,0.001485,0.00015847,0.001045,-0.22488,-0.10801,-9.8183,0,0,36.765,1,1,7746,3872
7918,6.1702e+07,2,0.0017662,0.00037213,0.0010416,-0.22506,-0.10675,-9.8158,0,0,36.765,1,1,7746,3872
7921,6.1704e+07,2,0.0023056,0.00010076,0.00052978,-0.2263,-0.10373,-9.8135,0,0,36.765,1,1,7746,3872
7925,6.1707e+07,2,0.0021456,-0.00072286,0.00063642,-0.22789,-0.10194,-9.8122,0,0,36.765,1,1,7746,3872
7956,6.171e+07,2,0.0019188,-0.0020241,0.00065897,-0.23108,-0.0999,-9.8103,0,0,36.765,1,1,7746,3872
7959,6.1712e+07,2,0.0024619,-0.0022333,0.0010393,-0.23179,-0.099443,-9.8097,0,0,36.765,1,1,7746,3872
7963,6.1715e+07,2,0.0028124,-0.0019155,0.0017633,-0.233,-0.10067,-9.807,0,0,36.765,1,1,7746,3872
7967,6.1717e+07,2,0.0029815,-0.0014363,0.0016947,-0.2335,-0.10143,-9.8057,0,0,36.765,1,1,7746,3872
7998,6.172e+07,2,0.0028903,-0.00033687,0.00084465,-0.23463,-0.10535,-9.8033,0,0,36.765,1,1,7746,3872
8001,6.1723e+07,2,0.0030167,5.1077e-05,0.00045472,-0.23577,-0.10943,-9.8036,0,0,36.765,1,1,7746,3872
8004,6.1724e+07,2,0.0030733,-0.0012427,-0.00037499,-0.23435,-0.11348,-9.8065,0,0,36.765,1,1,7746,3872
8009,6.1727e+07,2,0.0027469,-0.001211,-0.00070268,-0.23492,-0.11623,-9.8093,0,0,36.765,1,1,7746,3872
8040,6.173e+07,2,0.0011903,-0.0010869,-0.00099531,-0.2369,-0.1179,-9.8109,0,0,36.765,1,1,7746,3872
8043,6.1732e+07,2,0.0006255,-0.0003486,0.0002316,-0.23886,-0.11871,-9.8113,0,0,36.765,1,1,7746,3872
8046,6.1735e+07,2,0.0008117,-0.00084313,0.0010834,-0.23922,-0.11844,-9.8112,0,0,36.765,1,1,7746,3872
8049,6.1737e+07,2,0.0011658,-0.0018003,0.0011228,-0.23937,-0.11634,-9.8099,0,0,36.765,1,1,7746,3872
8080,6.1741e+07,2,0.0011829,-0.0019698,0.00068814,-0.23912,-0.11501,-9.8108,0,0,36.765,1,1,7746,3872
8083,6.1742e+07,2,0.0010496,-0.0011791,-6.7906e-05,-0.23819,-0.11249,-9.8149,0,0,36.765,1,1,7746,3872
8090,6.1746e+07,2,0.0013129,-0.00058473,-0.00050659,-0.23744,-0.11067,-9.8163,0,0,36.765,1,1,7746,3872
8096,6.1747e+07,2,0.0022224,7.7153e-05,-0.0016482,-0.23712,-0.10921,-9.8185,0,0,36.765,1,1,7746,3872
8127,6.175e+07,2,0.0024979,0.00015744,-0.0021881,-0.23814,-0.10925,-9.8211,0,0,36.765,1,1,7746,3872
8130,6.1753e+07,2,0.0024216,1.3813e-06,-0.0013627,-0.24117,-0.10986,-9.827,0,0,36.765,1,1,7746,3872
8133,6.1755e+07,2,0.0018487,0.00047252,-0.00056881,-0.24275,-0.10934,-9.8299,0,0,36.765,1,1,7746,3872
8136,6.1757e+07,2,0.00025517,0.0011839,-0.00097941,-0.24442,-0.10789,-9.833,0,0,36.765,1,1,7746,3872
8167,6.1761e+07,2,-0.00016838,0.001809,-0.0014657,-0.24515,-0.10799,-9.832,0,0,36.765,1,1,7746,3872
8170,6.1763e+07,2,-0.00071033,0.0023676,-0.00078692,-0.24558,-0.1096,-9.8283,0,0,36.765,1,1,7746,3872
8173,6.1765e+07,2,-0.00076811,0.0021818,-0.00043073,-0.24454,-0.10938,-9.8273,0,0,36.765,1,1,7746,3872
8178,6.1767e+07,2,-0.00075006,0.0020381,-0.0005274,-0.24083,-0.10783,-9.8286,0,0,36.765,1,1,7746,3872
8209,6.177e+07,2,-0.00086853,0.0016035,-0.0017694,-0.23771,-0.1079,-9.8292,0,0,36.765,1,1,7746,3872
8212,6.1773e+07,2,-0.00062166,0.0017012,-0.0017638,-0.23467,-0.10694,-9.8301,0,0,36.765,1,1,7746,3872
8215,6.1775e+07,2,-0.00090584,0.0016432,-0.0011809,-0.23357,-0.10575,-9.8306,0,0,36.765,1,1,7746,3872
8218,6.1778e+07,2,-0.0010428,0.00077021,0.00028491,-0.23177,-0.10448,-9.8283,0,0,36.765,1,1,7746,3872
8251,6.1781e+07,2,-0.00078477,0.00056486,0.00089237,-0.2319,-0.1041,-9.8254,0,0,36.765,1,1,7746,3872
8254,6.1785e+07,2,-0.0004432,0.00096602,0.00037016,-0.23213,-0.10599,-9.819,0,0,36.765,1,1,7746,3872
8257,6.1786e+07,2,-0.00055827,0.00095117,-0.00099709,-0.23131,-0.10872,-9.8125,0,0,36.765,1,1,7746,3872
8261,6.1789e+07,2,-0.00088726,0.00073526,-0.0012062,-0.2311,-0.11095,-9.8055,0,0,36.765,1,1,7746,3872
8292,6.1792e+07,2,-0.00038747,0.00036815,-0.0014128,-0.23067,-0.11182,-9.8039,0,0,36.765,1,1,7746,3872
8295,6.1795e+07,2,-0.0011762,0.00031014,-0.002151,-0.23059,-0.11132,-9.8022,0,0,36.765,1,1,7746,3872
8298,6.1798e+07,2,-0.0020794,0.00055974,-0.0021131,-0.23003,-0.10951,-9.8023,0,0,36.765,1,1,7746,3872
8302,6.18e+07,2,-0.0031682,0.001589,-0.00080325,-0.22918,-0.10662,-9.8032,0,0,36.765,1,1,7746,3872
8333,6.1802e+07,2,-0.0032282,0.0023927,-0.00089882,-0.23017,-0.10428,-9.805,0,0,36.765,1,1,7746,3872
8336,6.1805e+07,2,-0.0034901,0.0022215,0.00042501,-0.23063,-0.10359,-9.8076,0,0,36.765,1,1,7746,3872
8339,6.1807e+07,2,-0.0034722,0.0012116,0.0016968,-0.23168,-0.10185,-9.8115,0,0,36.765,1,1,7746,3872
8342,6.181e+07,2,-0.0032045,0.00041516,0.0015596,-0.23277,-0.099446,-9.8142,0,0,36.765,1,1,7746,3872
8373,6.1813e+07,2,-0.0036189,-0.0014355,0.00063593,-0.23434,-0.097258,-9.8164,0,0,36.765,1,1,7746,3872
8376,6.1816e+07,2,-0.0032995,-0.0019429,0.00025789,-0.23588,-0.096294,-9.8173,0,0,36.765,1,1,7746,3872
8379,6.1818e+07,2,-0.0028779,-0.0017871,0.00017797,-0.23603,-0.096258,-9.8173,0,0,36.765,1,1,7746,3872
8383,6.182e+07,2,-0.0030426,-0.00097296,0.0001476,-0.23471,-0.096794,-9.8167,0,0,36.765,1,1,7746,3872
8415,6.1823e+07,2,-0.0030628,-0.00047463,0.0012799,-0.23058,-0.097574,-9.817,0,0,36.765,1,1,7746,3872
8418,6.1826e+07,2,-0.0023469,-0.0005374,0.001377,-0.22771,-0.098259,-9.8182,0,0,36.765,1,1,7746,3872
8422,6.1828e+07,2,-0.00087689,-0.00018894,0.00074498,-0.22538,-0.1001,-9.8222,0,0,36.765,1,1,7746,3872
8426,6.183e+07,2,-4.8226e-05,0.00034873,0.00052959,-0.22582,-0.10076,-9.8255,0,0,36.765,1,1,7746,3872
8457,6.1833e+07,2,0.00047923,0.00016894,0.00056327,-0.22726,-0.10044,-9.8311,0,0,36.765,1,1,7746,3872
8460,6.1836e+07,2,0.0006754,-0.00019616,0.0005037,-0.22745,-0.098833,-9.8357,0,0,36.765,1,1,7746,3872
8463,6.1838e+07,2,0.0010664,-0.00021534,0.00052391,-0.22647,-0.09627,-9.8385,0,0,36.765,1,1,7746,3872
8467,6.184e+07,2,0.00012368,-0.00021994,0.00031612,-0.22551,-0.094814,-9.8384,0,0,36.765,1,1,7746,3872
8500,6.1843e+07,2,-0.0010365,-0.0002029,0.00012601,-0.22404,-0.093766,-9.8373,0,0,36.765,1,1,7746,3872
8503,6.1845e+07,2,-0.0021468,-0.00043237,0.0003978,-0.22276,-0.09379,-9.8367,0,0,36.765,1,1,7746,3872
8510,6.1849e+07,2,-0.0032522,-0.00012287,0.00014511,-0.22134,-0.095107,-9.8348,0,0,36.765,1,1,7746,3872
8514,6.1851e+07,2,-0.0027904,0.0001373,0.00042301,-0.22069,-0.098367,-9.8347,0,0,36.765,1,1,7746,3872
8545,6.1854e+07,2,-0.0020006,-8.938e-06,0.00067609,-0.2201,-0.098087,-9.8353,0,0,36.765,1,1,7746,3872
8548,6.1856e+07,2,0.00042062,6.2067e-05,0.0010264,-0.21929,-0.095831,-9.8319,0,0,36.765,1,1,7746,3872
8551,6.1858e+07,2,0.0018214,2.7605e-05,0.00078618,-0.21907,-0.09434,-9.8307,0,0,36.765,1,1,7746,3872
8554,6.1861e+07,2,0.0024433,-0.0011427,0.00099367,-0.21788,-0.092131,-9.8276,0,0,36.765,1,1,7746,3872
8585,6.1863e+07,2,0.0025587,-0.00045029,0.0014679,-0.21701,-0.092601,-9.8261,0,0,36.765,1,1,7746,3872
8588,6.1866e+07,2,0.0022757,0.0012209,0.0021361,-0.21694,-0.093452,-9.8241,0,0,36.765,1,1,7746,3872
8591,6.1868e+07,2,0.0014086,0.0017875,0.0021776,-0.21661,-0.094623,-9.8233,0,0,36.765,1,1,7746,3872
8595,6.1871e+07,2,-0.00044997,0.0019004,-9.8513e-05,-0.216,-0.096313,-9.8252,0,0,36.765,1,1,7746,3872
8626,6.1873e+07,2,-0.00019101,0.0020744,-0.00044918,-0.21372,-0.097333,-9.8256,0,0,36.765,1,1,7746,3872
8629,6.1876e+07,2,0.00020204,0.0021517,-0.00030946,-0.21326,-0.098377,-9.8258,0,0,36.765,1,1,7746,3872
8632,6.1879e+07,2,0.0015228,0.0025188,-0.0002876,-0.21515,-0.10091,-9.8245,0,0,36.765,1,1,7746,3872
8635,6.1882e+07,2,0.0018525,0.0025511,-0.0010896,-0.21694,-0.10137,-9.8213,0,0,36.765,1,1,7746,3872
8638,6.1884e+07,2,0.0019729,0.0014119,-0.0015806,-0.21928,-0.10324,-9.82,0,0,36.765,1,1,7746,3872
8669,6.1886e+07,2,0.0017083,0.00099904,-0.00081558,-0.22153,-0.10496,-9.8201,0,0,36.765,1,1,7746,3872
8672,6.1889e+07,2,0.0010756,0.0010964,-0.00016979,-0.2229,-0.10647,-9.8199,0,0,36.765,1,1,7746,3872
8676,6.1892e+07,2,0.0013193,0.0013797,0.00082518,-0.2248,-0.10837,-9.8189,0,0,36.765,1,1,7746,3872
8679,6.1894e+07,2,0.0019865,0.0018514,0.0017527,-0.22692,-0.10985,-9.8218,0,0,36.765,1,1,7746,3872
8710,6.1897e+07,2,0.0014047,0.002391,0.0019751,-0.22838,-0.10928,-9.8257,0,0,36.765,1,1,7746,3872
8713,6.19e+07,2,0.0010094,0.0023157,0.0015931,-0.22855,-0.10822,-9.8238,0,0,36.765,1,1,7746,3872
8717,6.1902e+07,2,0.0011096,0.0018721,0.0013884,-0.22853,-0.10791,-9.8202,0,0,36.765,1,1,7746,3872
8720,6.1905e+07,2,0.0011604,0.0012127,0.0010327,-0.22862,-0.1071,-9.8155,0,0,36.765,1,1,7746,3872
8751,6.1907e+07,2,0.0012185,0.0014561,0.00099042,-0.22849,-0.10609,-9.8102,0,0,36.765,1,1,7746,3872
8754,6.191e+07,2,0.0011739,0.0019948,0.00057978,-0.22852,-0.10642,-9.8097,0,0,36.765,1,1,7746,3872
8758,6.1913e+07,2,0.00053292,0.0010778,0.00062339,-0.22926,-0.1072,-9.812,0,0,36.765,1,1,7746,3872
8761,6.1916e+07,2,-0.00011927,-0.00042889,0.00060827,-0.22965,-0.1074,-9.8143,0,0,36.765,1,1,7746,3872
8764,6.1917e+07,2,-0.00036124,-0.00093318,-0.00015183,-0.23145,-0.11063,-9.8159,0,0,36.765,1,1,7746,3872
8795,6.192e+07,2,0.00029089,-0.00058303,-0.00065453,-0.23263,-0.11292,-9.8162,0,0,36.765,1,1,7746,3872
8799,6.1923e+07,2,0.0017332,0.00011836,-0.0002962,-0.23322,-0.11496,-9.8165,0,0,36.765,1,1,7746,3872
8802,6.1925e+07,2,0.0016975,0.00036709,-0.00054284,-0.2337,-0.11623,-9.8168,0,0,36.765,1,1,7746,3872
8805,6.1928e+07,2,0.00097259,0.00050277,-0.00051618,-0.23227,-0.11899,-9.8205,0,0,36.765,1,1,7746,3872
8836,6.1931e+07,2,-7.1573e-05,0.00020853,0.00074131,-0.22985,-0.12127,-9.8249,0,0,36.765,1,1,7746,3872
8839,6.1933e+07,2,-0.00095246,-0.00078651,0.0014173,-0.22699,-0.12385,-9.8266,0,0,36.765,1,1,7746,3872
8843,6.1935e+07,2,-0.0026286,-0.001575,0.0013242,-0.2249,-0.12623,-9.8266,0,0,36.765,1,1,7746,3872
8847,6.1939e+07,2,-0.0034203,-0.0013524,0.00034337,-0.22446,-0.12811,-9.8241,0,0,36.765,1,1,7746,3872
8878,6.1942e+07,2,-0.0036521,-0.00054023,0.00010224,-0.22586,-0.13053,-9.8225,0,0,36.765,1,1,7746,3872
8882,6.1944e+07,2,-0.0027897,-0.00033615,-0.00016975,-0.22906,-0.12956,-9.8213,0,0,36.766,1,1,7746,3872
8885,6.1946e+07,2,-0.0014259,-0.00091236,0.00013877,-0.2309,-0.12762,-9.8197,0,0,36.766,1,1,7746,3872
8888,6.1949e+07,2,-0.00050669,-0.0012712,0.00096912,-0.23182,-0.12489,-9.8209,0,0,36.766,1,1,7746,3872
8923,6.1952e+07,2,-0.00032114,-0.0010587,0.00087596,-0.23134,-0.12451,-9.8259,0,0,36.766,1,1,7746,3872
8926,6.1954e+07,2,-0.0009936,-0.0015796,0.00034559,-0.23117,-0.12306,-9.8281,0,0,36.766,1,1,7746,3872
8929,6.1956e+07,2,-0.0013029,-0.0016417,6.3267e-05,-0.23214,-0.12032,-9.8301,0,0,36.766,1,1,7746,3872
8932,6.1959e+07,2,-0.0015398,-0.0015266,-1.2828e-05,-0.23352,-0.11678,-9.8289,0,0,36.766,1,1,7746,3872
8963,6.1961e+07,2,-0.0015335,-0.0015535,0.00049173,-0.23324,-0.11569,-9.8258,0,0,36.766,1,1,7746,3872
8967,6.1964e+07,2,-0.0013143,-0.0017415,0.00081603,-0.23087,-0.11491,-9.8224,0,0,36.766,1,1,7746,3872
8970,6.1966e+07,2,-0.0019107,-0.0019701,0.0014526,-0.22764,-0.11371,-9.8198,0,0,36.766,1,1,7746,3872
8973,6.1969e+07,2,-0.0026766,-0.0011562,0.0008915,-0.22509,-0.11251,-9.8186,0,0,36.766,1,1,7746,3872
9004,6.1971e+07,2,-0.0030626,-0.00029299,4.7726e-05,-0.22339,-0.11077,-9.8181,0,0,36.766,1,1,7746,3872
9007,6.1973e+07,2,-0.0033674,2.235e-05,-0.00049598,-0.22184,-0.11035,-9.8179,0,0,36.766,1,1,7746,3872
9010,6.1977e+07,2,-0.0034115,-0.00018523,-0.00060568,-0.21984,-0.11049,-9.8165,0,0,36.766,1,1,7746,3872
9013,6.1979e+07,2,-0.0025508,-0.00065195,0.00035023,-0.21674,-0.10981,-9.8128,0,0,36.766,1,1,7746,3872
9044,6.1981e+07,2,-0.002219,-0.001521,0.0011262,-0.21488,-0.10827,-9.8117,0,0,36.767,1,1,7746,3872
9048,6.1984e+07,2,-0.0018286,-0.00085609,0.00084589,-0.21538,-0.107,-9.8131,0,0,36.767,1,1,7746,3872
9051,6.1986e+07,2,-0.0016487,-0.00035774,0.00091671,-0.21768,-0.10602,-9.8164,0,0,36.767,1,1,7746,3872
9054,6.1992e+07,2,-0.0013173,0.0010752,0.000461,-0.22881,-0.099979,-9.8221,0,0,36.767,1,1,7746,3872
9085,6.1994e+07,2,-0.00067585,0.00021373,-0.00042307,-0.23381,-0.096938,-9.8199,0,0,36.767,1,1,7746,3872
9089,6.1997e+07,2,-0.00050997,0.00010514,-0.00058173,-0.23741,-0.094994,-9.8196,0,0,36.767,1,1,7746,3872
9093,6.2e+07,2,-0.001216,0.00071671,-0.00084765,-0.23993,-0.093506,-9.8216,0,0,36.767,1,1,7746,3872
9096,6.2003e+07,2,-0.0013431,0.0005905,-0.00069683,-0.24158,-0.091985,-9.825,0,0,36.767,1,1,7746,3872
9099,6.2005e+07,2,-0.0013359,-3.4276e-05,-0.0010293,-0.2455,-0.091834,-9.8287,0,0,36.767,1,1,7746,3872
9130,6.2008e+07,2,-0.00064308,-0.00047732,-0.001258,-0.24831,-0.094034,-9.8292,0,0,36.767,1,1,7746,3872
9133,6.2011e+07,2,-0.00061615,-0.0008573,-0.001716,-0.24848,-0.095959,-9.8302,0,0,36.767,1,1,7746,3872
9136,6.2013e+07,2,-0.00087873,-0.00014427,-0.00024204,-0.24787,-0.09804,-9.8309,0,0,36.767,1,1,7746,3872
9139,6.2015e+07,2,-0.00059353,0.0008098,0.0012297,-0.24728,-0.098709,-9.8298,0,0,36.767,1,1,7746,3872
9170,6.2018e+07,2,-0.00020045,0.0010228,0.0030796,-0.24673,-0.10046,-9.8284,0,0,36.767,1,1,7746,3872
9174,6.202e+07,2,0.0005997,0.0012568,0.0033284,-0.24586,-0.10202,-9.8281,0,0,36.767,1,1,7746,3872
9177,6.2023e+07,2,0.0012531,0.0017589,0.0021436,-0.24354,-0.10277,-9.8257,0,0,36.768,1,1,7746,3872
9180,6.2026e+07,2,0.001079,0.0016582,0.0014825,-0.24184,-0.10218,-9.8215,0,0,36.768,1,1,7746,3872
9213,6.2029e+07,2,0.0013136,0.00086962,0.00062922,-0.23924,-0.10106,-9.8186,0,0,36.768,1,1,7746,3872
9216,6.2031e+07,2,0.0014032,0.00045755,0.0011984,-0.23788,-0.10008,-9.8144,0,0,36.768,1,1,7746,3872
9219,6.2033e+07,2,0.00134,3.0896e-05,0.0020195,-0.23776,-0.098657,-9.8134,0,0,36.768,1,1,7746,3872
9223,6.2036e+07,2,0.0013845,0.00025777,0.0022886,-0.23775,-0.097554,-9.8131,0,0,36.768,1,1,7746,3872
9254,6.2039e+07,2,0.0019152,1.4505e-05,0.001412,-0.23766,-0.097908,-9.8116,0,0,36.768,1,1,7746,3872
9258,6.2041e+07,2,0.0014828,-0.00023871,0.00047195,-0.23653,-0.099083,-9.8097,0,0,36.768,1,1,7746,3872
9261,6.2044e+07,2,0.0015156,0.0008684,0.00089676,-0.23437,-0.10339,-9.8077,0,0,36.768,1,1,7746,3872
9264,6.2046e+07,2,0.0017595,0.0016075,0.0011077,-0.23198,-0.11015,-9.808,0,0,36.768,1,1,7746,3872
9295,6.205e+07,2,0.0020826,0.0017347,0.00033977,-0.23039,-0.11573,-9.8067,0,0,36.768,1,1,7746,3872
9299,6.2052e+07,2,0.0025501,0.0010572,-0.00089981,-0.23009,-0.12213,-9.8075,0,0,36.768,1,1,7746,3872
9306,6.2054e+07,2,0.0020407,0.00042807,-0.00084177,-0.23094,-0.12473,-9.8103,0,0,36.768,1,1,7746,3872
9309,6.2056e+07,2,0.00076698,0.00018147,-0.00031427,-0.23309,-0.12643,-9.8133,0,0,36.769,1,1,7746,3872
9340,6.2059e+07,2,-0.00046625,-0.00041336,0.00099155,-0.23698,-0.12645,-9.8181,0,0,36.769,1,1,7746,3872
9343,6.2061e+07,2,-6.9028e-05,-0.0005041,0.0012583,-0.23954,-0.1233,-9.8202,0,0,36.769,1,1,7746,3872
9346,6.2064e+07,2,0.0006961,-6.564e-05,0.00090676,-0.24193,-0.11984,-9.8207,0,0,36.769,1,1,7746,3872
9349,6.2067e+07,2,0.0015071,-1.5102e-07,0.00056556,-0.24454,-0.11631,-9.8207,0,0,36.769,1,1,7746,3872
9380,6.2069e+07,2,0.001097,-3.7218e-06,0.0003142,-0.24554,-0.11424,-9.8221,0,0,36.769,1,1,7746,3872
9384,6.2072e+07,2,0.0010841,-3.476e-05,-0.00014544,-0.24705,-0.1117,-9.8236,0,0,36.769,1,1,7746,3872
9387,6.2074e+07,2,0.0011656,0.00033398,0.00034039,-0.24709,-0.10993,-9.8244,0,0,36.769,1,1,7746,3872
9390,6.2077e+07,2,0.0010971,0.00078249,0.0012936,-0.24455,-0.10818,-9.8264,0,0,36.769,1,1,7746,3872
9421,6.208e+07,2,0.0009542,-0.00014205,0.0018035,-0.24175,-0.10646,-9.8284,0,0,36.77,1,1,7746,3872
9424,6.2082e+07,2,0.00096921,-0.0005023,0.0017432,-0.23986,-0.10625,-9.8275,0,0,36.77,1,1,7746,3872
9427,6.2084e+07,2,0.001348,-2.3697e-05,0.00074399,-0.23566,-0.10654,-9.8252,0,0,36.77,1,1,7746,3872
9430,6.2087e+07,2,0.0016165,-0.00019542,-0.00026383,-0.23341,-0.10662,-9.8244,0,0,36.77,1,1,7746,3872
9461,6.209e+07,2,0.0012276,-0.00021659,-0.00082253,-0.23421,-0.10732,-9.825,0,0,36.77,1,1,7746,3872
9465,6.2094e+07,2,-0.00015898,-0.00089691,-8.6391e-05,-0.23584,-0.10735,-9.8236,0,0,36.77,1,1,7746,3872
9468,6.2095e+07,2,0.00016021,-0.00072463,0.00044381,-0.23685,-0.10716,-9.8218,0,0,36.77,1,1,7746,3872
9471,6.2098e+07,2,0.00024448,-9.5901e-05,0.00082378,-0.23855,-0.10763,-9.8198,0,0,36.77,1,1,7746,3872
9502,6.2104e+07,2,-0.00049467,0.0010418,-0.0013008,-0.23581,-0.10949,-9.8185,0,0,36.77,1,1,7746,3872
9505,6.2106e+07,2,-0.0011871,-0.00025043,0.00016993,-0.23047,-0.11012,-9.8151,0,0,36.77,1,1,7746,3872
9508,6.2108e+07,2,-0.0010125,-0.0010985,0.0012848,-0.22698,-0.11096,-9.8113,0,0,36.77,1,1,7746,3872
9539,6.2111e+07,2,-0.00040335,-0.0020268,0.00011022,-0.22407,-0.11144,-9.8055,0,0,36.771,1,1,7746,3872
9542,6.2113e+07,2,0.00010043,-0.0017561,-0.00071659,-0.2222,-0.11141,-9.8029,0,0,36.771,1,1,7746,3872
9546,6.2116e+07,2,9.4376e-06,-0.00040889,-0.0012219,-0.2208,-0.11147,-9.8037,0,0,36.771,1,1,7746,3872
9549,6.2119e+07,2,0.00035948,0.0002056,-0.0018028,-0.22036,-0.11179,-9.8067,0,0,36.771,1,1,7746,3872
9580,6.2121e+07,2,0.0011973,0.00085824,-0.001417,-0.22054,-0.11105,-9.8154,0,0,36.771,1,1,7746,3872
9583,6.2124e+07,2,0.00035923,0.0012917,0.0011508,-0.22194,-0.10874,-9.818,0,0,36.771,1,1,7746,3872
9587,6.2126e+07,2,-0.0010707,0.0016084,0.0011203,-0.22331,-0.10738,-9.8195,0,0,36.771,1,1,7746,3872
9591,6.2129e+07,2,-0.0022798,0.0021088,0.0003902,-0.22418,-0.10807,-9.8214,0,0,36.771,1,1,7746,3872
9622,6.2132e+07,2,-0.0029688,0.0021328,0.00052911,-0.22233,-0.10872,-9.8192,0,0,36.771,1,1,7746,3872
9625,6.2135e+07,2,-0.0027392,0.0019111,0.0011591,-0.22107,-0.1088,-9.8158,0,0,36.771,1,1,7746,3872
9628,6.2137e+07,2,-0.0021008,0.0021872,0.001728,-0.22076,-0.10909,-9.8141,0,0,36.771,1,1,7746,3872
9631,6.2139e+07,2,-0.0013316,0.0019226,0.0018301,-0.22118,-0.10981,-9.8141,0,0,36.771,1,1,7746,3872
9662,6.2142e+07,2,-0.0015206,0.0013287,0.0012973,-0.22236,-0.11192,-9.8151,0,0,36.771,1,1,7746,3872
9666,6.2144e+07,2,-0.0028808,0.00088709,0.00043236,-0.22282,-0.11281,-9.8189,0,0,36.771,1,1,7746,3872
9670,6.2147e+07,2,-0.0032785,0.00025682,-0.00081094,-0.2227,-0.11228,-9.8216,0,0,36.771,1,1,7746,3872
9673,6.2149e+07,2,-0.0036724,4.7212e-05,-0.0010401,-0.22274,-0.11137,-9.8214,0,0,36.771,1,1,7746,3872
9704,6.2152e+07,2,-0.0040996,-0.00036653,-0.0016726,-0.22277,-0.10883,-9.8217,0,0,36.771,1,1,7746,3872
9707,6.2154e+07,2,-0.0035566,0.00053668,-0.00039512,-0.22149,-0.1047,-9.82,0,0,36.771,1,1,7746,3872
9715,6.2158e+07,2,-0.0030022,0.00080227,0.0010409,-0.22096,-0.10334,-9.8185,0,0,36.771,1,1,7746,3872
9718,6.216e+07,2,-0.0022753,0.0003945,0.0010246,-0.22119,-0.10072,-9.8157,0,0,36.771,1,1,7746,3872
9749,6.2162e+07,2,-0.0015324,0.00015242,-0.00026208,-0.22197,-0.10067,-9.8148,0,0,36.772,1,1,7746,3872
9752,6.2165e+07,2,-0.00034935,0.0010645,-0.00034913,-0.22124,-0.10225,-9.8137,0,0,36.772,1,1,7746,3872
9756,6.2167e+07,2,0.00071934,0.00032625,-0.00021271,-0.21984,-0.104,-9.8132,0,0,36.772,1,1,7746,3872
9759,6.217e+07,2,0.0010055,-0.0016722,0.00030866,-0.21972,-0.10741,-9.8146,0,0,36.772,1,1,7746,3872
9790,6.2173e+07,2,-9.159e-05,-0.0020628,0.00014294,-0.2208,-0.11284,-9.8148,0,0,36.772,1,1,7746,3872
9794,6.2175e+07,2,-0.0013028,-0.0016782,-0.00039174,-0.22159,-0.11573,-9.8152,0,0,36.772,1,1,7746,3872
9798,6.2178e+07,2,-0.002135,-0.00094219,-0.0011969,-0.22206,-0.11869,-9.8169,0,0,36.772,1,1,7746,3872
9801,6.2181e+07,2,-0.0022312,-0.0011408,-0.001015,-0.22204,-0.119,-9.818,0,0,36.772,1,1,7746,3872
9832,6.2183e+07,2,-0.0013357,-0.0017569,-0.00026975,-0.22259,-0.11729,-9.8152,0,0,36.772,1,1,7746,3872
9835,6.2186e+07,2,0.00021596,-0.0012617,0.00073859,-0.22357,-0.11451,-9.8094,0,0,36.772,1,1,7746,3872
9838,6.2188e+07,2,0.00059517,-0.0009303,0.0014112,-0.22385,-0.11366,-9.8081,0,0,36.772,1,1,7746,3872
9841,6.2191e+07,2,-0.00021912,-0.00097724,0.00070025,-0.22382,-0.11177,-9.8033,0,0,36.772,1,1,7746,3872
9872,6.2194e+07,2,-0.00068212,-0.0010795,0.00027838,-0.225,-0.10941,-9.7999,0,0,36.772,1,1,7746,3872
9875,6.2197e+07,2,-0.00030504,-0.0010434,0.00092819,-0.22654,-0.10855,-9.8003,0,0,36.772,1,1,7746,3872
9879,6.2199e+07,2,0.00030786,6.8265e-06,0.0026035,-0.22803,-0.10969,-9.8026,0,0,36.773,1,1,7746,3872
9882,6.2201e+07,2,0.00052879,-8.3224e-05,0.002677,-0.22884,-0.11141,-9.8062,0,0,36.773,1,1,7746,3872
9913,6.2204e+07,2,0.00017046,-0.0012714,0.0016336,-0.23058,-0.11315,-9.8114,0,0,36.773,1,1,7746,3872
9916,6.2207e+07,2,-0.00015873,-0.0015771,0.00081516,-0.23106,-0.11298,-9.8133,0,0,36.773,1,1,7746,3872
9919,6.2209e+07,2,0.00063613,-0.0018049,0.0015613,-0.23279,-0.1108,-9.8167,0,0,36.773,1,1,7746,3872
9922,6.2211e+07,2,0.00087343,-0.0015124,0.0016188,-0.23493,-0.10871,-9.8224,0,0,36.773,1,1,7746,3872
9953,6.2214e+07,2,0.0018383,-9.1475e-05,0.0019292,-0.23892,-0.107,-9.8297,0,0,36.773,1,1,7746,3872
9956,6.2217e+07,2,0.002467,0.00017312,0.0021812,-0.24118,-0.10673,-9.8323,0,0,36.773,1,1,7746,3872
9960,6.2219e+07,2,0.0024236,0.00089269,0.0017236,-0.24462,-0.10662,-9.8334,0,0,36.773,1,1,7746,3872
9963,6.2221e+07,2,0.0023271,0.00057673,0.0016175,-0.24586,-0.10654,-9.8329,0,0,36.773,1,1,7746,3872
9994,6.2224e+07,2,0.0019654,9.1003e-05,0.0012723,-0.24867,-0.10543,-9.8345,0,0,36.773,1,1,7746,3872
9997,6.2226e+07,2,0.0011211,9.3505e-05,0.0010939,-0.24868,-0.10406,-9.8365,0,0,36.773,1,1,7746,3872
10001,6.2229e+07,2,0.00071084,-0.001242,0.001164,-0.24669,-0.10269,-9.8383,0,0,36.773,1,1,7746,3872
10004,6.2231e+07,2,0.0010054,-0.0020148,0.0013111,-0.24471,-0.10239,-9.8396,0,0,36.773,1,1,7746,3872
10037,6.2234e+07,2,0.0010035,-0.0020077,0.0022212,-0.2407,-0.10382,-9.8401,0,0,36.774,1,1,7746,3872
10040,6.2236e+07,2,0.00078402,-0.0014267,0.0029896,-0.23892,-0.10473,-9.8408,0,0,36.774,1,1,7746,3872
10043,6.2239e+07,2,0.0010368,-0.00027743,0.0029848,-0.23771,-0.10496,-9.8399,0,0,36.774,1,1,7746,3872
10046,6.2242e+07,2,0.0014885,0.00042879,0.0017472,-0.23691,-0.10633,-9.836,0,0,36.774,1,1,7746,3872
10077,6.2244e+07,2,0.0010005,0.00071959,0.00032226,-0.23501,-0.10731,-9.8272,0,0,36.774,1,1,7746,3872
10080,6.2247e+07,2,0.00084186,0.0011437,0.00021702,-0.23486,-0.10477,-9.82,0,0,36.774,1,1,7746,3872
10084,6.2249e+07,2,0.00096482,0.0016339,0.0010633,-0.2349,-0.10347,-9.8184,0,0,36.774,1,1,7746,3872
10088,6.2252e+07,2,0.0013385,0.0016565,0.0017974,-0.23499,-0.099829,-9.8166,0,0,36.774,1,1,7746,3872
10119,6.2255e+07,2,0.0013999,0.0015664,0.001899,-0.23495,-0.098685,-9.8181,0,0,36.774,1,1,7746,3872
10122,6.2257e+07,2,0.00034998,0.00060985,0.00062184,-0.23454,-0.098757,-9.8207,0,0,36.774,1,1,7746,3872
10129,6.2259e+07,2,0.00020671,0.00020075,-0.00016594,-0.23518,-0.099098,-9.8223,0,0,36.774,1,1,7746,3872
10132,6.2262e+07,2,0.00036396,0.00056278,-0.0018007,-0.2346,-0.10253,-9.8268,0,0,36.774,1,1,7746,3872
10163,6.2264e+07,2,-0.00026895,0.00071326,-0.0024779,-0.2324,-0.10571,-9.8318,0,0,36.774,1,1,7746,3872
10166,6.2267e+07,2,-0.00083284,-5.5308e-05,-0.0023763,-0.23214,-0.10696,-9.8346,0,0,36.775,1,1,7746,3872
10170,6.227e+07,2,-0.001364,-0.00015668,-0.0010577,-0.233,-0.10838,-9.8365,0,0,36.775,1,1,7746,3872
10173,6.2272e+07,2,-0.0013182,-0.00016929,0.0009876,-0.23401,-0.10994,-9.8349,0,0,36.775,1,1,7746,3872
10206,6.2274e+07,2,-0.00060473,-4.898e-05,0.0013285,-0.23279,-0.10831,-9.8333,0,0,36.775,1,1,7746,3872
10209,6.2277e+07,2,-0.00026194,8.3685e-05,0.0016612,-0.2317,-0.10709,-9.8334,0,0,36.775,1,1,7746,3872
10212,6.228e+07,2,-0.00033911,-0.0001382,0.0018347,-0.23121,-0.10754,-9.8357,0,0,36.775,1,1,7746,3872
10215,6.2282e+07,2,-0.00051424,0.00030829,0.00020718,-0.23057,-0.10896,-9.8358,0,0,36.775,1,1,7746,3872
10246,6.2284e+07,2,-0.001174,0.00067441,-0.00059548,-0.22919,-0.11176,-9.835,0,0,36.775,1,1,7746,3872
10249,6.2287e+07,2,-0.0018322,0.00089676,-0.00030331,-0.22839,-0.11356,-9.8347,0,0,36.775,1,1,7746,3872
10253,6.2289e+07,2,-0.0020189,0.00061449,0.00025602,-0.22803,-0.11452,-9.8332,0,0,36.775,1,1,7746,3872
10256,6.2292e+07,2,-0.0013619,0.00039692,4.2675e-05,-0.22732,-0.11487,-9.8314,0,0,36.775,1,1,7746,3872
10287,6.2296e+07,2,-0.00017675,0.0013172,0.00037774,-0.22744,-0.11506,-9.8302,0,0,36.775,1,1,7746,3872
10290,6.2297e+07,2,-0.00040706,0.0010768,-0.0002803,-0.22796,-0.11452,-9.8274,0,0,36.775,1,1,7746,3872
10294,6.23e+07,2,-0.001399,-0.00027076,-0.00081277,-0.22873,-0.11294,-9.824,0,0,36.776,1,1,7746,3872
10297,6.2306e+07,2,-0.001899,-0.0017176,0.00040599,-0.22657,-0.11057,-9.8248,0,0,36.776,1,1,7746,3872
10328,6.2308e+07,2,-0.0018928,-0.001459,0.001061,-0.22498,-0.11109,-9.8269,0,0,36.776,1,1,7746,3872
10331,6.2311e+07,2,-0.0015959,-0.0010901,0.0016067,-0.22377,-0.11187,-9.8217,0,0,36.776,1,1,7746,3872
10334,6.2314e+07,2,-0.0016618,-0.0011649,0.0019812,-0.2247,-0.11234,-9.8167,0,0,36.776,1,1,7746,3872
10337,6.2316e+07,2,-0.0017801,-0.0014872,0.0020592,-0.22544,-0.11225,-9.8137,0,0,36.776,1,1,7746,3872
10368,6.2319e+07,2,-0.0015653,-0.00097766,0.0011368,-0.22628,-0.1103,-9.8128,0,0,36.776,1,1,7746,3872
10372,6.2321e+07,2,-0.00095234,-0.00094709,0.00086006,-0.22693,-0.10923,-9.8128,0,0,36.776,1,1,7746,3872
10375,6.2324e+07,2,-0.00028115,-0.00057015,0.00093427,-0.22727,-0.1092,-9.8136,0,0,36.776,1,1,7746,3872
10378,6.2326e+07,2,-0.00010966,0.00063007,0.00094207,-0.22769,-0.10895,-9.8132,0,0,36.776,1,1,7746,3872
10409,6.2329e+07,2,-0.00068148,0.001095,0.00091505,-0.22758,-0.10793,-9.8129,0,0,36.777,1,1,7746,3872
10412,6.2332e+07,2,-0.0010118,0.00088535,0.00087598,-0.22789,-0.10694,-9.8129,0,0,36.777,1,1,7746,3872
10415,6.2334e+07,2,-0.0014869,-0.00019405,0.00053139,-0.22953,-0.10661,-9.8123,0,0,36.777,1,1,7746,3872
10418,6.2337e+07,2,-0.0013065,2.4374e-05,0.00068433,-0.23142,-0.10719,-9.8118,0,0,36.777,1,1,7746,3872
10449,6.2339e+07,2,-0.0012781,0.00030726,0.001212,-0.23543,-0.1072,-9.8112,0,0,36.777,1,1,7746,3872
10453,6.2342e+07,2,-0.0010318,0.00073174,0.0013928,-0.23956,-0.10643,-9.8094,0,0,36.777,1,1,7746,3872
10456,6.2344e+07,2,-0.00056037,0.0015062,0.00085932,-0.24077,-0.10619,-9.8096,0,0,36.777,1,1,7746,3872
10459,6.2347e+07,2,-0.0013559,0.0013795,0.0010316,-0.2449,-0.10403,-9.8134,0,0,36.777,1,1,7746,3872
10490,6.235e+07,2,-0.0017339,0.0015515,0.00098434,-0.24674,-0.10195,-9.8176,0,0,36.777,1,1,7746,3872
10493,6.2351e+07,2,-0.0024432,0.0012341,-0.00021151,-0.24598,-0.098018,-9.8246,0,0,36.777,1,1,7746,3872
10496,6.2354e+07,2,-0.0023151,0.00062978,-0.00094182,-0.24456,-0.096181,-9.827,0,0,36.777,1,1,7746,3872
10499,6.2357e+07,2,-0.0014763,0.00034223,-0.0010529,-0.2422,-0.094706,-9.8287,0,0,36.777,1,1,7746,3872
10530,6.2359e+07,2,-7.4032e-05,-0.00024404,-0.00050523,-0.23722,-0.095497,-9.8312,0,0,36.777,1,1,7746,3872
10538,6.2362e+07,2,0.00036408,-0.00052347,-0.00090836,-0.23502,-0.097102,-9.8314,0,0,36.777,1,1,7746,3872
10541,6.2364e+07,2,0.00019821,-0.00019237,-0.00057493,-0.23288,-0.098721,-9.8296,0,0,36.777,1,1,7746,3872
10544,6.2367e+07,2,9.7052e-05,0.0013216,-0.0010329,-0.22866,-0.10171,-9.8259,0,0,36.777,1,1,7746,3872
10553,6.2388e+07,2,-9.3348e-05,-0.00087581,-0.00010191,-0.21596,-0.10359,-9.8093,0,0,36.778,1,1,7746,3872
10584,6.239e+07,2,-0.00010869,-0.0011337,0.00063284,-0.21802,-0.1029,-9.8103,0,0,36.778,1,1,7746,3872
10589,6.2393e+07,2,0.00043007,-0.00072325,0.00067961,-0.2214,-0.10176,-9.8128,0,0,36.778,1,1,7746,3872
10592,6.2395e+07,2,0.00044615,-0.00081804,0.00028545,-0.22277,-0.10184,-9.8128,0,0,36.778,1,1,7746,3872
10595,6.2399e+07,2,0.0019162,-0.00076013,-0.00047831,-0.22395,-0.10213,-9.8123,0,0,36.778,1,1,7746,3872
10598,6.24e+07,2,0.0032159,-0.00049671,-0.00036691,-0.22508,-0.102,-9.8125,0,0,36.778,1,1,7746,3872
10629,6.2403e+07,2,0.0036023,-0.0001844,-0.0001444,-0.22637,-0.10306,-9.8119,0,0,36.778,1,1,7746,3872
10632,6.2405e+07,2,0.0031499,-1.1395e-05,0.00090728,-0.22642,-0.10418,-9.8095,0,0,36.778,1,1,7746,3872
10635,6.2409e+07,2,0.0022837,0.00033299,0.0014024,-0.22697,-0.10616,-9.8087,0,0,36.778,1,1,7746,3872
10638,6.241e+07,2,0.001539,3.6468e-05,0.00043111,-0.22818,-0.1082,-9.8095,0,0,36.778,1,1,7746,3872
10669,6.2416e+07,2,0.0018987,-0.00087283,0.00061681,-0.231,-0.11135,-9.8121,0,0,36.778,1,1,7746,3872
10673,6.2418e+07,2,0.0022771,-0.0011664,0.0012136,-0.2316,-0.10897,-9.8163,0,0,36.778,1,1,7746,3872
10676,6.2421e+07,2,0.0027671,-0.0014532,0.0017107,-0.23302,-0.10736,-9.8183,0,0,36.778,1,1,7746,3872
10707,6.2424e+07,2,0.0031347,-0.00094043,0.0025066,-0.23392,-0.10604,-9.8174,0,0,36.778,1,1,7746,3872
10710,6.2426e+07,2,0.0029265,-0.0011889,0.0020366,-0.23392,-0.10597,-9.8167,0,0,36.778,1,1,7746,3872
10714,6.2429e+07,2,0.0020656,-0.002246,0.0018534,-0.23278,-0.10705,-9.8174,0,0,36.778,1,1,7746,3872
10717,6.2431e+07,2,0.00054759,-0.0031313,0.0021007,-0.22894,-0.10853,-9.8166,0,0,36.778,1,1,7746,3872
10748,6.2435e+07,2,-0.00045221,-0.0023811,0.001924,-0.2269,-0.10846,-9.8171,0,0,36.778,1,1,7746,3872
10751,6.2437e+07,2,-0.0013724,-0.0018991,0.0014268,-0.22715,-0.10897,-9.817,0,0,36.778,1,1,7746,3872
10756,6.2439e+07,2,-0.0012847,-0.0019232,0.0015226,-0.22872,-0.11044,-9.8169,0,0,36.778,1,1,7746,3872
10759,6.2441e+07,2,-0.00094693,-0.001103,0.0010334,-0.23068,-0.11236,-9.8174,0,0,36.778,1,1,7746,3872
10790,6.2444e+07,2,-0.00034242,-0.00039326,-0.00032588,-0.23122,-0.11111,-9.8176,0,0,36.778,1,1,7746,3872
10793,6.2447e+07,2,0.0006653,-0.00031243,-0.0007855,-0.232,-0.1081,-9.8221,0,0,36.778,1,1,7746,3872
10797,6.2449e+07,2,0.00054516,-0.00026642,-0.00078005,-0.2338,-0.1077,-9.8267,0,0,36.778,1,1,7746,3872
10800,6.2451e+07,2,-9.2401e-06,-0.00027426,-0.00082438,-0.23589,-0.10836,-9.8298,0,0,36.778,1,1,7746,3872
10831,6.2454e+07,2,-0.00017319,-0.00040269,-0.00032346,-0.23968,-0.1109,-9.8325,0,0,36.778,1,1,7746,3872
10834,6.2457e+07,2,-0.00033248,5.7618e-06,5.6889e-05,-0.24122,-0.11324,-9.8349,0,0,36.778,1,1,7746,3872
10837,6.2459e+07,2,-0.00011432,0.0012489,0.00058073,-0.24067,-0.11589,-9.8377,0,0,36.778,1,1,7746,3872
10840,6.2462e+07,2,0.00034558,0.0025598,0.0014602,-0.23913,-0.11651,-9.8377,0,0,36.778,1,1,7746,3872
10875,6.2464e+07,2,0.00010889,0.0030975,0.00132,-0.23886,-0.11678,-9.8359,0,0,36.778,1,1,7746,3872
10878,6.2467e+07,2,-0.00052265,0.0034136,0.0018541,-0.23987,-0.11736,-9.8349,0,0,36.778,1,1,7746,3872
10882,6.2469e+07,2,-0.0009791,0.0032136,0.0015853,-0.24068,-0.11734,-9.8347,0,0,36.777,1,1,7746,3872
10885,6.2472e+07,2,-0.0014393,0.0031145,0.00085981,-0.24348,-0.1171,-9.8341,0,0,36.777,1,1,7746,3872
10916,6.2475e+07,2,-0.0016157,0.0016087,-0.00046439,-0.24496,-0.11544,-9.8366,0,0,36.777,1,1,7746,3872
10919,6.2477e+07,2,-0.0015671,0.0010027,-0.00032416,-0.24422,-0.11456,-9.8382,0,0,36.777,1,1,7746,3872
10923,6.248e+07,2,-0.0022763,0.00037016,-0.00015494,-0.24281,-0.11322,-9.8358,0,0,36.777,1,1,7746,3872
10926,6.2482e+07,2,-0.0032294,0.00060837,0.0002265,-0.24142,-0.11229,-9.8346,0,0,36.777,1,1,7746,3872
10957,6.2485e+07,2,-0.003921,0.00059484,7.2072e-05,-0.23881,-0.11189,-9.8364,0,0,36.777,1,1,7746,3872
10960,6.2487e+07,2,-0.0037498,-0.00037639,0.0001777,-0.23721,-0.11209,-9.8393,0,0,36.777,1,1,7746,3872
10964,6.249e+07,2,-0.0028644,-0.00054589,-3.4811e-05,-0.23652,-0.11164,-9.8387,0,0,36.777,1,1,7746,3872
10967,6.2492e+07,2,-0.0018763,0.00040788,-0.00012442,-0.23682,-0.10868,-9.8358,0,0,36.776,1,1,7746,3872
10998,6.2495e+07,2,-0.0012642,0.0014379,0.0001974,-0.23728,-0.10609,-9.8363,0,0,36.776,1,1,7746,3872
11001,6.2498e+07,2,-0.00083051,0.0020817,0.00047651,-0.23761,-0.10401,-9.8398,0,0,36.776,1,1,7746,3872
11006,6.25e+07,2,-0.00088408,0.0022234,0.0010465,-0.2377,-0.10396,-9.8414,0,0,36.776,1,1,7746,3872
11009,6.2503e+07,2,-0.00087856,0.0017236,0.00128,-0.23777,-0.10537,-9.8468,0,0,36.776,1,1,7746,3872
11040,6.2505e+07,2,-0.00072336,0.0012506,0.0010327,-0.23798,-0.10591,-9.85,0,0,36.776,1,1,7746,3872
11043,6.2513e+07,2,-0.0012415,0.00041743,-0.0037676,-0.23628,-0.10568,-9.8516,0,0,36.776,1,1,7746,3872
11075,6.2516e+07,2,-0.00024548,-0.00022127,-0.0033328,-0.23463,-0.10319,-9.8429,0,0,36.776,1,1,7746,3872
11078,6.2518e+07,2,0.00037062,-0.00040836,-0.0020984,-0.23421,-0.10123,-9.8334,0,0,36.776,1,1,7746,3872
11081,6.2521e+07,2,0.00093787,-6.6335e-05,-0.00056615,-0.23145,-0.099181,-9.8193,0,0,36.775,1,1,7746,3872
11084,6.2524e+07,2,0.00095758,-2.6908e-05,0.00020125,-0.23072,-0.098806,-9.8103,0,0,36.775,1,1,7746,3872
11115,6.2526e+07,2,0.0006038,4.6649e-06,-0.00012235,-0.23218,-0.10066,-9.7938,0,0,36.775,1,1,7746,3872
11118,6.253e+07,2,0.0013168,2.4086e-05,-0.00046367,-0.23303,-0.10156,-9.7864,0,0,36.775,1,1,7746,3872
11121,6.2531e+07,2,0.0019377,-0.0002593,-7.578e-05,-0.23402,-0.10291,-9.7832,0,0,36.775,1,1,7746,3872
11124,6.2534e+07,2,0.0020539,-0.00041626,0.00023269,-0.23423,-0.1047,-9.7831,0,0,36.775,1,1,7746,3872
11155,6.2537e+07,2,0.0019272,-0.00071175,8.9612e-05,-0.23379,-0.10552,-9.7869,0,0,36.775,1,1,7746,3872
11159,6.2539e+07,2,0.00082701,-0.00060331,0.00070353,-0.23192,-0.10374,-9.7929,0,0,36.775,1,1,7746,3872
11162,6.2542e+07,2,3.4957e-05,-0.00051211,0.00091287,-0.23189,-0.10354,-9.7959,0,0,36.775,1,1,7746,3872
11165,6.2545e+07,2,0.00029503,-0.0013875,0.00036533,-0.23408,-0.10491,-9.8029,0,0,36.774,1,1,7746,3872
11196,6.2547e+07,2,0.0011415,-0.0023189,-0.00066189,-0.23545,-0.10632,-9.8073,0,0,36.774,1,1,7746,3872
11199,6.255e+07,2,0.0010966,-0.0029114,-0.0018807,-0.23633,-0.10908,-9.8114,0,0,36.774,1,1,7746,3872
11203,6.2552e+07,2,0.0013738,-0.0017501,-0.0023031,-0.23613,-0.11097,-9.815,0,0,36.774,1,1,7746,3872
11206,6.2555e+07,2,0.0022818,-0.0010077,-0.00219,-0.23518,-0.11294,-9.8224,0,0,36.774,1,1,7746,3872
11237,6.2557e+07,2,0.0018867,-0.00012171,-0.00086076,-0.23405,-0.11519,-9.8268,0,0,36.774,1,1,7746,3872
11241,6.256e+07,2,0.0020534,0.00071028,-0.00047726,-0.23292,-0.11581,-9.8266,0,0,36.774,1,1,7746,3872
11244,6.2562e+07,2,0.0024483,0.001603,-7.7121e-05,-0.23258,-0.11602,-9.8262,0,0,36.773,1,1,7746,3872
11247,6.2565e+07,2,0.002478,0.0019728,0.00026272,-0.23269,-0.11533,-9.8262,0,0,36.773,1,1,7746,3872
11282,6.2568e+07,2,0.0017852,0.001566,-0.00015337,-0.23407,-0.1119,-9.8267,0,0,36.773,1,1,7746,3872
11285,6.2571e+07,2,0.0014872,0.00083731,7.8038e-05,-0.23548,-0.10847,-9.8267,0,0,36.773,1,1,7746,3872
11288,6.2573e+07,2,0.0015504,0.00021399,-7.3811e-05,-0.23724,-0.1072,-9.8272,0,0,36.773,1,1,7746,3872
11292,6.2576e+07,2,0.00067516,0.00017126,-6.3995e-05,-0.23733,-0.10608,-9.8271,0,0,36.773,1,1,7746,3872
11323,6.2578e+07,2,0.0002484,0.00082109,-0.0001462,-0.23623,-0.10563,-9.8272,0,0,36.773,1,1,7746,3872
11327,6.2581e+07,2,0.000238,0.0010667,-0.0002001,-0.23228,-0.10362,-9.8272,0,0,36.773,1,1,7746,3872
11330,6.2583e+07,2,0.00048652,0.00095608,-0.00023013,-0.22895,-0.10108,-9.8269,0,0,36.772,1,1,7746,3872
11333,6.2586e+07,2,0.0011323,0.00090087,0.00048759,-0.22731,-0.09938,-9.8254,0,0,36.772,1,1,7746,3872
11364,6.2588e+07,2,0.0010111,0.00056253,0.0016272,-0.22746,-0.10048,-9.825,0,0,36.772,1,1,7746,3872
11368,6.2591e+07,2,0.00090391,0.00047921,0.0017731,-0.2274,-0.10198,-9.8261,0,0,36.772,1,1,7746,3872
11371,6.2594e+07,2,0.00066174,0.0011284,0.0022808,-0.22693,-0.10503,-9.8273,0,0,36.772,1,1,7746,3872
11376,6.2596e+07,2,0.00015554,0.001375,0.0031375,-0.22613,-0.1086,-9.8265,0,0,36.772,1,1,7746,3872
11407,6.2598e+07,2,-0.00052959,0.00063187,0.0016913,-0.22626,-0.11407,-9.8221,0,0,36.772,1,1,7746,3872
11410,6.2601e+07,2,-0.00068304,0.00030164,0.00098407,-0.22578,-0.11752,-9.8191,0,0,36.772,1,1,7746,3872
11413,6.2604e+07,2,-0.00067619,0.00045373,4.762e-05,-0.22468,-0.11986,-9.8168,0,0,36.772,1,1,7746,3872
11416,6.2607e+07,2,-0.0003692,0.0010227,-0.00060432,-0.22434,-0.11894,-9.8188,0,0,36.771,1,1,7746,3872
11419,6.2611e+07,2,-0.00086507,0.00095745,0.00040083,-0.22649,-0.11868,-9.8285,0,0,36.771,1,1,7746,3872
11451,6.2614e+07,2,-0.0022418,0.00082111,0.0013495,-0.2269,-0.121,-9.8282,0,0,36.771,1,1,7746,3872
11454,6.2617e+07,2,-0.0028271,0.00061718,0.0011944,-0.2301,-0.1224,-9.8274,0,0,36.771,1,1,7746,3872
11457,6.262e+07,2,-0.0022671,0.00033436,0.00037622,-0.23176,-0.12346,-9.8266,0,0,36.771,1,1,7746,3872
11460,6.2622e+07,2,-0.00054284,0.00014329,-0.0019184,-0.2332,-0.12359,-9.8244,0,0,36.771,1,1,7746,3872
11493,6.2625e+07,2,7.5838e-05,0.00059667,-0.0015243,-0.23369,-0.11983,-9.8237,0,0,36.771,1,1,7746,3872
11497,6.2627e+07,2,-0.00076198,0.00060759,-0.00018716,-0.23365,-0.11865,-9.8241,0,0,36.771,1,1,7746,3872
11500,6.263e+07,2,-0.0018275,0.0010982,0.00030468,-0.23243,-0.1189,-9.8271,0,0,36.77,1,1,7746,3872
11503,6.2632e+07,2,-0.0020646,0.001283,8.6328e-05,-0.23119,-0.12054,-9.8289,0,0,36.77,1,1,7746,3872
11534,6.2635e+07,2,-0.0020439,0.00091828,0.00069937,-0.22944,-0.12018,-9.8314,0,0,36.77,1,1,7746,3872
11537,6.2637e+07,2,-0.0017478,0.00044263,0.0009342,-0.22841,-0.1191,-9.8349,0,0,36.77,1,1,7746,3872
11540,6.264e+07,2,-0.001508,-0.00032257,0.001329,-0.22703,-0.11673,-9.8401,0,0,36.77,1,1,7746,3872
11543,6.2642e+07,2,-0.001789,-0.00083703,0.0015316,-0.22642,-0.11476,-9.8406,0,0,36.77,1,1,7746,3872
11574,6.2645e+07,2,-0.00096171,-0.00099151,0.0011453,-0.22501,-0.11062,-9.8367,0,0,36.77,1,1,7746,3872
11578,6.2648e+07,2,-0.00019564,-0.0012122,0.00084223,-0.22384,-0.10621,-9.8326,0,0,36.77,1,1,7746,3872
11581,6.265e+07,2,-0.0012182,-0.0016614,0.00047424,-0.22312,-0.099405,-9.8285,0,0,36.77,1,1,7746,3872
11584,6.2652e+07,2,-0.0019665,-0.0020432,0.0001076,-0.22169,-0.096701,-9.827,0,0,36.77,1,1,7746,3872
11615,6.2654e+07,2,-0.0028505,-0.0025851,-0.00029539,-0.21913,-0.095058,-9.8232,0,0,36.77,1,1,7746,3872
11618,6.2658e+07,2,-0.0027868,-0.0020488,-0.00025942,-0.21867,-0.094714,-9.822,0,0,36.77,1,1,7746,3872
11621,6.266e+07,2,-0.0022246,-0.00022816,-0.0010011,-0.22012,-0.094009,-9.8203,0,0,36.77,1,1,7746,3872
11624,6.2662e+07,2,-0.0022311,0.00062273,-0.0014073,-0.22299,-0.093645,-9.8213,0,0,36.77,1,1,7746,3872
11655,6.2665e+07,2,-0.0017139,0.00058577,-0.00074071,-0.22842,-0.094121,-9.8222,0,0,36.77,1,1,7746,3872
11659,6.2667e+07,2,-0.00161,0.00033928,0.00045889,-0.23047,-0.095759,-9.821,0,0,36.77,1,1,7746,3872
11666,6.267e+07,2,-0.0019783,-0.00074034,0.0019298,-0.23287,-0.097225,-9.8163,0,0,36.77,1,1,7746,3872
11669,6.2672e+07,2,-0.0013978,-0.00070064,0.0022364,-0.23362,-0.098092,-9.8123,0,0,36.77,1,1,7746,3872
11700,6.2675e+07,2,-0.00050252,-0.00073933,0.0011065,-0.23402,-0.098091,-9.8102,0,0,36.77,1,1,7746,3872
11703,6.2677e+07,2,0.00012929,-0.0011879,-0.00038592,-0.23304,-0.097984,-9.8119,0,0,36.77,1,1,7746,3872
11706,6.268e+07,2,0.00041382,-0.0013907,-0.0014415,-0.23168,-0.0978,-9.8184,0,0,36.77,1,1,7746,3872
11710,6.2683e+07,2,0.00023369,-0.0010967,-0.0012306,-0.23015,-0.098421,-9.8239,0,0,36.77,1,1,7746,3872
11741,6.2686e+07,2,0.00077285,-0.0005381,-0.0016688,-0.23028,-0.097941,-9.8281,0,0,36.77,1,1,7746,3872
11745,6.2688e+07,2,6.8625e-05,-0.00053646,-0.0012353,-0.23224,-0.096982,-9.8315,0,0,36.77,1,1,7746,3872
11748,6.269e+07,2,-0.0003883,-0.00057363,-0.00042598,-0.23419,-0.096719,-9.8364,0,0,36.77,1,1,7746,3872
11751,6.2693e+07,2,-0.00020563,-0.0006093,-0.00024183,-0.23474,-0.097038,-9.8424,0,0,36.77,1,1,7746,3872
11782,6.2696e+07,2,-0.00015569,-0.00028431,-0.00056981,-0.23379,-0.097819,-9.8446,0,0,36.77,1,1,7746,3872
11787,6.2698e+07,2,0.00045505,0.00068178,-0.00085301,-0.23251,-0.10034,-9.8476,0,0,36.77,1,1,7746,3872
11790,6.2701e+07,2,0.00039813,0.0014795,-0.0010738,-0.23267,-0.10306,-9.8488,0,0,36.77,1,1,7746,3872
11793,6.2703e+07,2,-3.3737e-06,0.0015158,-0.0013714,-0.23331,-0.10644,-9.8477,0,0,36.77,1,1,7746,3872
11824,6.2705e+07,2,0.00080866,0.0004022,-0.0020809,-0.23507,-0.10904,-9.8453,0,0,36.77,1,1,7746,3872
11828,6.2713e+07,2,0.0013283,0.00076277,-0.0019766,-0.23868,-0.11279,-9.8273,0,0,36.77,1,1,7746,3872
11859,6.2716e+07,2,0.0013022,0.00062266,-0.0018935,-0.23908,-0.11397,-9.8258,0,0,36.77,1,1,7746,3872
11862,6.2718e+07,2,0.0012038,0.0010148,-0.00077521,-0.24139,-0.11779,-9.8213,0,0,36.77,1,1,7746,3872
11865,6.2722e+07,2,0.0015601,0.0014323,-7.1031e-05,-0.24169,-0.11831,-9.8218,0,0,36.77,1,1,7746,3872
11868,6.2724e+07,2,0.0020439,0.0016431,0.00023348,-0.24253,-0.11863,-9.8272,0,0,36.77,1,1,7746,3872
11899,6.2726e+07,2,0.0029001,0.00098871,0.00070696,-0.24304,-0.11746,-9.834,0,0,36.77,1,1,7746,3872
11903,6.2729e+07,2,0.0031841,0.00070209,0.0011601,-0.24345,-0.11592,-9.8385,0,0,36.77,1,1,7746,3872
11907,6.2732e+07,2,0.003042,0.0016834,0.00081371,-0.24412,-0.11253,-9.8429,0,0,36.77,1,1,7746,3872
11910,6.2734e+07,2,0.0025322,0.0017361,0.00040201,-0.2453,-0.1107,-9.8446,0,0,36.77,1,1,7746,3872
11941,6.2737e+07,2,0.0022191,0.0019498,0.00071786,-0.24629,-0.10961,-9.846,0,0,36.77,1,1,7746,3872
11945,6.274e+07,2,0.0025768,0.0024366,0.00095938,-0.24451,-0.10952,-9.8419,0,0,36.77,1,1,7746,3872
11948,6.2742e+07,2,0.0024938,0.0026265,0.00062102,-0.24267,-0.10953,-9.839,0,0,36.77,1,1,7746,3872
11951,6.2745e+07,2,0.0013227,0.0013467,0.00079783,-0.2392,-0.11024,-9.8342,0,0,36.77,1,1,7746,3872
11982,6.2747e+07,2,0.00078302,3.7632e-05,0.00070645,-0.23662,-0.11101,-9.8318,0,0,36.77,1,1,7746,3872
11985,6.275e+07,2,0.0011181,-0.00065427,0.00047019,-0.23361,-0.11184,-9.83,0,0,36.77,1,1,7746,3872
11988,6.2752e+07,2,0.0013932,-0.00069386,0.00013523,-0.23286,-0.11203,-9.8291,0,0,36.77,1,1,7746,3872
11991,6.2754e+07,2,0.0012236,-0.00030467,-0.00027284,-0.23152,-0.11106,-9.8261,0,0,36.77,1,1,7746,3872
12022,6.2757e+07,2,0.0010398,-0.00035804,-0.00046346,-0.23133,-0.10955,-9.8238,0,0,36.77,1,1,7746,3872
12026,6.276e+07,2,9.6193e-05,0.00025565,-0.0013486,-0.23063,-0.107,-9.8196,0,0,36.77,1,1,7746,3872
12029,6.2762e+07,2,-0.00054009,0.00048702,-0.001436,-0.23038,-0.10517,-9.8178,0,0,36.77,1,1,7746,3872
12032,6.2765e+07,2,-0.0018958,-7.4914e-05,-0.00010443,-0.23171,-0.10457,-9.8177,0,0,36.77,1,1,7746,3872
12065,6.2767e+07,2,-0.0021536,-0.00022628,0.00041926,-0.23308,-0.10444,-9.8197,0,0,36.77,1,1,7746,3872
12069,6.277e+07,2,-0.00082224,-0.00080043,0.0018427,-0.23317,-0.10396,-9.8258,0,0,36.77,1,1,7746,3872
12076,6.2773e+07,2,-5.3009e-05,-0.0013496,0.0025188,-0.23198,-0.10359,-9.8289,0,0,36.77,1,1,7746,3872
12081,6.2775e+07,2,0.00046862,-0.0015659,0.0031978,-0.22798,-0.10214,-9.83,0,0,36.77,1,1,7746,3872
12112,6.2778e+07,2,0.00050893,-0.0021292,0.0037297,-0.2229,-0.10021,-9.8274,0,0,36.77,1,1,7746,3872
12115,6.278e+07,2,-0.00028837,-0.0018626,0.0039665,-0.22034,-0.10082,-9.8226,0,0,36.77,1,1,7746,3872
12118,6.2782e+07,2,-0.0015519,-0.0014263,0.0023139,-0.2174,-0.10313,-9.8173,0,0,36.77,1,1,7746,3872
12121,6.2786e+07,2,-0.001587,-0.00092315,0.00093874,-0.21693,-0.10403,-9.8167,0,0,36.77,1,1,7746,3872
12152,6.2788e+07,2,-0.00098144,-0.0002015,0.0010438,-0.21847,-0.10587,-9.8169,0,0,36.77,1,1,7746,3872
12156,6.2791e+07,2,-0.00097332,0.00031033,0.00085147,-0.22276,-0.10586,-9.8206,0,0,36.77,1,1,7746,3872
12160,6.2793e+07,2,-0.0012672,0.00028643,0.00042071,-0.226,-0.10403,-9.8227,0,0,36.77,1,1,7746,3872
12163,6.2796e+07,2,-0.0024586,-0.00030537,0.00031332,-0.23104,-0.10045,-9.8266,0,0,36.77,1,1,7746,3872
12194,6.2799e+07,2,-0.0022843,-0.00044429,0.0011198,-0.23459,-0.09858,-9.827,0,0,36.77,1,1,7746,3872
12197,6.2801e+07,2,-0.0017366,-0.0008973,0.0018343,-0.23597,-0.098594,-9.8264,0,0,36.77,1,1,7746,3872
12201,6.2803e+07,2,-0.0012231,-0.0012334,0.0022531,-0.2377,-0.098673,-9.8267,0,0,36.77,1,1,7746,3872
12204,6.2805e+07,2,-0.0002249,-0.001032,0.0010705,-0.23916,-0.099851,-9.8264,0,0,36.77,1,1,7746,3872
12235,6.2808e+07,2,0.00017962,-0.00043094,-0.0004944,-0.23989,-0.10239,-9.827,0,0,36.77,1,1,7746,3872
12239,6.2812e+07,2,-0.00048936,-0.00091298,-0.0015559,-0.24028,-0.1065,-9.8271,0,0,36.771,1,1,7746,3872
12242,6.2815e+07,2,-0.00093865,-0.00091534,-0.0011465,-0.24072,-0.11184,-9.824,0,0,36.771,1,1,7746,3872
12245,6.2816e+07,2,-0.0017839,-0.00025197,-0.0014536,-0.24086,-0.11476,-9.8215,0,0,36.771,1,1,7746,3872
12276,6.2819e+07,2,-0.002296,-0.00019913,-0.0017067,-0.24054,-0.11664,-9.819,0,0,36.771,1,1,7746,3872
12279,6.2821e+07,2,-0.0023723,-0.00068465,-0.0017529,-0.23883,-0.11815,-9.8199,0,0,36.771,1,1,7746,3872
12282,6.2825e+07,2,-0.0021154,-0.00050581,-0.0019354,-0.23694,-0.11864,-9.8211,0,0,36.771,1,1,7746,3872
12285,6.2827e+07,2,-0.0018674,0.0010839,-0.0023611,-0.23617,-0.11942,-9.8207,0,0,36.771,1,1,7746,3872
12318,6.283e+07,2,-0.001095,0.0015862,-0.0018965,-0.23672,-0.12009,-9.821,0,0,36.771,1,1,7746,3872
12322,6.2832e+07,2,0.00023216,0.001096,-0.0014023,-0.23857,-0.12009,-9.8203,0,0,36.771,1,1,7746,3872
12325,6.2834e+07,2,0.00087001,0.00085418,-0.00066368,-0.23941,-0.11898,-9.8167,0,0,36.772,1,1,7746,3872
12328,6.2837e+07,2,8.565e-05,0.0009944,-0.00070178,-0.23915,-0.11536,-9.8095,0,0,36.772,1,1,7746,3872
12359,6.284e+07,2,-0.00035035,0.0013812,-0.00095201,-0.23956,-0.11322,-9.8028,0,0,36.772,1,1,7746,3872
12363,6.2842e+07,2,-0.00043459,0.0010779,-0.0012423,-0.23941,-0.11236,-9.7989,0,0,36.772,1,1,7746,3872
12366,6.2845e+07,2,-0.00029061,0.00055528,-0.0015636,-0.23861,-0.11085,-9.7979,0,0,36.772,1,1,7746,3872
12369,6.2847e+07,2,-0.00095875,-1.2183e-05,-0.0015284,-0.23604,-0.10753,-9.7983,0,0,36.772,1,1,7746,3872
12400,6.285e+07,2,-0.00091613,-0.00055899,-0.00073126,-0.2343,-0.10554,-9.7994,0,0,36.772,1,1,7746,3872
12403,6.2853e+07,2,-0.00042755,-0.00073802,-0.00019388,-0.23301,-0.10312,-9.8015,0,0,36.772,1,1,7746,3872
12406,6.2855e+07,2,0.00011598,-0.00011695,0.001121,-0.23226,-0.10019,-9.8054,0,0,36.772,1,1,7746,3872
12409,6.2857e+07,2,-0.00016526,0.00039528,0.0013982,-0.23288,-0.098392,-9.8073,0,0,36.773,1,1,7746,3872
12440,6.286e+07,2,-6.5668e-05,0.0007204,0.001094,-0.23507,-0.095324,-9.8106,0,0,36.773,1,1,7746,3872
12444,6.2863e+07,2,0.0003341,0.00029616,0.00019887,-0.23577,-0.094461,-9.8121,0,0,36.773,1,1,7746,3872
12447,6.2865e+07,2,0.00031726,-0.00021522,-0.0017951,-0.23448,-0.094485,-9.8126,0,0,36.773,1,1,7746,3872
12450,6.2867e+07,2,-0.00032886,0.000562,-0.0022296,-0.23356,-0.095357,-9.8148,0,0,36.773,1,1,7746,3872
12481,6.287e+07,2,-0.00081577,0.00060998,-0.0022148,-0.23239,-0.098026,-9.818,0,0,36.773,1,1,7746,3872
12484,6.2872e+07,2,-0.0009297,0.00021407,-0.0019803,-0.22994,-0.099872,-9.8203,0,0,36.773,1,1,7746,3872
12492,6.2875e+07,2,0.00058297,0.00019764,-0.001466,-0.22614,-0.10275,-9.822,0,0,36.773,1,1,7746,3872
12495,6.2878e+07,2,0.0011975,0.00038179,-0.00044567,-0.22496,-0.1033,-9.8226,0,0,36.773,1,1,7746,3872
12526,6.288e+07,2,0.0010059,0.00083645,0.00059894,-0.2216,-0.10404,-9.8258,0,0,36.773,1,1,7746,3872
12530,6.2883e+07,2,0.0011639,0.00018448,0.00099332,-0.21776,-0.10372,-9.8327,0,0,36.773,1,1,7746,3872
12533,6.2885e+07,2,0.00185,-0.00028069,0.00065332,-0.21532,-0.10499,-9.836,0,0,36.774,1,1,7746,3872
12536,6.2888e+07,2,0.0013602,-0.00015811,0.00097011,-0.21255,-0.10592,-9.8359,0,0,36.774,1,1,7746,3872
12567,6.2891e+07,2,0.00019764,0.0003994,0.0005493,-0.2119,-0.10694,-9.8326,0,0,36.774,1,1,7746,3872
12570,6.2893e+07,2,-0.0004046,0.00043121,0.00022247,-0.21443,-0.10714,-9.8313,0,0,36.774,1,1,7746,3872
12573,6.2896e+07,2,-0.00076046,-0.00018919,0.00052871,-0.21652,-0.10725,-9.8309,0,0,36.774,1,1,7746,3872
12576,6.2899e+07,2,-0.00066007,-0.00028522,0.00042561,-0.22,-0.10921,-9.8308,0,0,36.774,1,1,7746,3872
12607,6.2901e+07,2,7.0859e-06,3.4708e-05,0.00018919,-0.2238,-0.10983,-9.8294,0,0,36.774,1,1,7746,3872
12611,6.2904e+07,2,3.2913e-05,-3.6459e-05,0.00038165,-0.23086,-0.11029,-9.8271,0,0,36.774,1,1,7746,3872
12614,6.2906e+07,2,-0.00044025,0.00012036,0.0016852,-0.23557,-0.11166,-9.826,0,0,36.774,1,1,7746,3872
12617,6.2909e+07,2,-0.00076449,0.00041459,0.0028524,-0.23928,-0.11417,-9.8259,0,0,36.774,1,1,7746,3872
12648,6.2911e+07,2,-0.00052389,-0.00024991,0.0032831,-0.24257,-0.11991,-9.8235,0,0,36.774,1,1,7746,3872
12653,6.2915e+07,2,-0.00043192,-0.00056876,0.003315,-0.24397,-0.12314,-9.8194,0,0,36.775,1,1,7746,3872
12656,6.2919e+07,2,-0.00012248,0.00023055,-0.0013606,-0.24705,-0.12708,-9.8082,0,0,36.775,1,1,7746,3872
12687,6.2922e+07,2,-0.00021042,0.00012355,-0.001163,-0.24604,-0.12801,-9.807,0,0,36.775,1,1,7746,3872
12690,6.2924e+07,2,-0.00052045,-0.0006943,0.00020812,-0.24042,-0.12754,-9.8061,0,0,36.775,1,1,7746,3872
12693,6.2928e+07,2,-0.00070795,-0.0007397,0.001662,-0.23544,-0.12417,-9.8077,0,0,36.775,1,1,7746,3872
12696,6.293e+07,2,-0.0010904,8.4654e-05,0.0020442,-0.23128,-0.117,-9.8111,0,0,36.775,1,1,7746,3872
12727,6.2933e+07,2,-0.0014898,0.00058262,0.00088425,-0.22911,-0.11027,-9.8147,0,0,36.775,1,1,7746,3872
12732,6.2935e+07,2,-0.0011567,0.00081306,0.0010203,-0.22854,-0.10719,-9.8191,0,0,36.775,1,1,7746,3872
12735,6.2938e+07,2,-0.0009143,0.00054174,0.0012957,-0.22861,-0.10447,-9.8249,0,0,36.775,1,1,7746,3872
12738,6.2941e+07,2,-0.0019812,0.00053703,0.0019449,-0.22876,-0.10343,-9.8262,0,0,36.775,1,1,7746,3872
12769,6.2943e+07,2,-0.0025054,0.00052034,0.0024479,-0.22951,-0.10089,-9.8275,0,0,36.775,1,1,7746,3872
12772,6.2946e+07,2,-0.0023492,-0.00062231,0.0027053,-0.2291,-0.10207,-9.8296,0,0,36.776,1,1,7746,3872
12775,6.2948e+07,2,-0.0015772,-0.0011916,0.0030541,-0.22919,-0.1033,-9.8303,0,0,36.776,1,1,7746,3872
12778,6.2951e+07,2,-0.00075753,-0.0013677,0.0029804,-0.23022,-0.10487,-9.8305,0,0,36.776,1,1,7746,3872
12809,6.2954e+07,2,-0.00086409,-0.0012073,0.0010813,-0.23345,-0.10541,-9.8298,0,0,36.776,1,1,7746,3872
12813,6.2956e+07,2,-0.00086169,-0.00084682,0.00023642,-0.23672,-0.10602,-9.8281,0,0,36.776,1,1,7746,3872
12816,6.2958e+07,2,-0.00081807,-0.00058966,0.00025972,-0.24081,-0.10656,-9.8242,0,0,36.776,1,1,7746,3872
12819,6.2961e+07,2,-0.000413,-0.001112,0.00086038,-0.24329,-0.10769,-9.8207,0,0,36.776,1,1,7746,3872
12850,6.2963e+07,2,-7.0899e-05,-0.0016851,0.00062863,-0.24656,-0.10947,-9.8166,0,0,36.776,1,1,7746,3872
12853,6.2966e+07,2,-0.00072332,-0.0015606,0.00039759,-0.24769,-0.10967,-9.8151,0,0,36.776,1,1,7746,3872
12856,6.2969e+07,2,-0.0013474,-0.00043227,-0.00061034,-0.24777,-0.11104,-9.8141,0,0,36.777,1,1,7746,3872
12859,6.2971e+07,2,-0.0013442,-6.2544e-05,-0.0010898,-0.24869,-0.11212,-9.8144,0,0,36.777,1,1,7746,3872
12890,6.2974e+07,2,-0.0015371,-0.00080726,-0.0014891,-0.24935,-0.11167,-9.8162,0,0,36.777,1,1,7746,3872
12894,6.2976e+07,2,-0.0014133,-0.00087176,-0.0011007,-0.24885,-0.11108,-9.8194,0,0,36.777,1,1,7746,3872
12903,6.2979e+07,2,3.3441e-05,-0.00025437,0.00055265,-0.24651,-0.11166,-9.8227,0,0,36.777,1,1,7746,3872
12906,6.2981e+07,2,0.00024418,-0.00050003,0.0015082,-0.24488,-0.11163,-9.8245,0,0,36.777,1,1,7746,3872
12937,6.2984e+07,2,-0.00030945,-0.00084607,-0.00024249,-0.24398,-0.11082,-9.8284,0,0,36.777,1,1,7746,3872
12941,6.2986e+07,2,-0.00054493,-0.00013251,-0.001547,-0.24363,-0.10963,-9.8315,0,0,36.777,1,1,7746,3872
12944,6.2988e+07,2,-0.00017818,0.00066292,-0.0011728,-0.24292,-0.10816,-9.8299,0,0,36.778,1,1,7746,3872
12947,6.2992e+07,2,-0.00021867,0.00086892,-0.00010541,-0.24199,-0.10791,-9.8284,0,0,36.778,1,1,7746,3872
12978,6.2994e+07,2,-0.00045396,0.00092317,0.0010823,-0.24141,-0.10872,-9.8262,0,0,36.778,1,1,7746,3872
12981,6.2997e+07,2,0.00042236,0.0018315,0.001473,-0.24143,-0.10895,-9.8222,0,0,36.778,1,1,7746,3872
12984,6.2999e+07,2,-9.1209e-05,0.002253,-4.1656e-05,-0.24274,-0.11001,-9.8202,0,0,36.778,1,1,7746,3872
12987,6.3001e+07,2,-0.0015773,0.00081426,-0.0017681,-0.24529,-0.10946,-9.8202,0,0,36.778,1,1,7746,3872
13018,6.3004e+07,2,-0.0017103,0.00044996,-0.0019972,-0.24566,-0.10863,-9.8211,0,0,36.778,1,1,7746,3872
13022,6.3007e+07,2,-0.00060693,-8.6933e-05,-0.00048025,-0.24492,-0.10563,-9.8222,0,0,36.778,1,1,7746,3872
13025,6.3009e+07,2,-0.00022606,-0.00035373,0.00020732,-0.24366,-0.1039,-9.8227,0,0,36.778,1,1,7746,3872
13028,6.3011e+07,2,1.024e-05,-0.00041769,0.0009419,-0.23845,-0.10201,-9.8246,0,0,36.778,1,1,7746,3872
13059,6.3014e+07,2,8.2014e-06,-0.0002995,0.00034192,-0.23476,-0.10215,-9.826,0,0,36.778,1,1,7746,3872
13062,6.3022e+07,2,0.000126,0.0014124,-0.002513,-0.23078,-0.10887,-9.8275,0,0,36.779,1,1,7746,3872
13093,6.3025e+07,2,0.00042799,0.0014789,-0.0026224,-0.22985,-0.11289,-9.8288,0,0,36.779,1,1,7746,3872
13096,6.3027e+07,2,0.00081327,0.0014009,-0.0028177,-0.22876,-0.11592,-9.827,0,0,36.779,1,1,7746,3872
13099,6.303e+07,2,0.0013082,0.00036201,-0.00097503,-0.22652,-0.11954,-9.8212,0,0,36.779,1,1,7746,3872
13102,6.3033e+07,2,0.0017087,-0.00013263,0.00041806,-0.22696,-0.12011,-9.8179,0,0,36.779,1,1,7746,3872
13135,6.3036e+07,2,0.0012996,0.00042045,0.0020823,-0.22859,-0.11994,-9.813,0,0,36.779,1,1,7746,3872
13138,6.3038e+07,2,0.001283,0.00062917,0.0020247,-0.22946,-0.11983,-9.8111,0,0,36.779,1,1,7746,3872
13141,6.3041e+07,2,0.0016237,0.00081093,0.0010627,-0.23146,-0.12077,-9.8122,0,0,36.779,1,1,7746,3872
13144,6.3043e+07,2,0.0014988,0.0013156,0.00014326,-0.23393,-0.12022,-9.8151,0,0,36.779,1,1,7746,3872
13175,6.3046e+07,2,0.00073343,0.0010093,6.8699e-05,-0.23642,-0.11964,-9.815,0,0,36.779,1,1,7746,3872
13179,6.3049e+07,2,0.00017714,0.00082092,0.00041707,-0.23736,-0.11866,-9.81,0,0,36.779,1,1,7746,3872
13182,6.3051e+07,2,0.00010303,0.0014045,0.0011526,-0.23932,-0.11756,-9.8071,0,0,36.78,1,1,7746,3872
13186,6.3053e+07,2,-0.00013082,0.00063673,0.0020621,-0.24345,-0.11629,-9.8029,0,0,36.78,1,1,7746,3872
13217,6.3056e+07,2,-0.00017534,0.00031235,0.0019978,-0.24511,-0.11585,-9.8002,0,0,36.78,1,1,7746,3872
13221,6.3059e+07,2,-2.8419e-05,0.0017898,0.0016358,-0.24714,-0.11596,-9.7982,0,0,36.78,1,1,7746,3872
13225,6.3061e+07,2,-0.00030328,0.001843,0.0013569,-0.24857,-0.11585,-9.7975,0,0,36.78,1,1,7746,3872
13228,6.3063e+07,2,-0.00099492,0.0011208,0.00077204,-0.24914,-0.11554,-9.7993,0,0,36.78,1,1,7746,3872
13259,6.3066e+07,2,-0.001844,0.00078819,-0.00010428,-0.24864,-0.11497,-9.8016,0,0,36.78,1,1,7746,3872
13262,6.3069e+07,2,-0.0023391,0.00078392,-0.00025022,-0.24427,-0.1142,-9.8033,0,0,36.78,1,1,7746,3872
13265,6.3071e+07,2,-0.0015203,0.00030324,0.00025618,-0.23985,-0.11401,-9.8055,0,0,36.78,1,1,7746,3872
13268,6.3073e+07,2,0.00022698,-0.001034,0.0013923,-0.23404,-0.11457,-9.8089,0,0,36.78,1,1,7746,3872
13299,6.3076e+07,2,0.00069891,-0.0005259,0.0017238,-0.23083,-0.11469,-9.8127,0,0,36.78,1,1,7746,3872
13303,6.3078e+07,2,0.00072726,0.00075812,0.0023655,-0.22776,-0.11072,-9.8191,0,0,36.78,1,1,7746,3872
13310,6.3082e+07,2,0.00093197,0.0010244,0.0029841,-0.2264,-0.10734,-9.8218,0,0,36.78,1,1,7746,3872
13313,6.3084e+07,2,0.00080758,0.0011943,0.0027021,-0.22531,-0.10508,-9.8246,0,0,36.78,1,1,7746,3872
13344,6.3086e+07,2,0.0010964,0.0010656,0.0010617,-0.22285,-0.10355,-9.8279,0,0,36.78,1,1,7746,3872
13347,6.3089e+07,2,0.0011859,0.0011964,0.0012563,-0.22217,-0.10384,-9.8294,0,0,36.78,1,1,7746,3872
13350,6.3091e+07,2,0.0006641,0.001692,0.0019431,-0.22305,-0.10656,-9.8318,0,0,36.78,1,1,7746,3872
13353,6.3095e+07,2,0.00086974,0.0014962,0.0022886,-0.2251,-0.10892,-9.8325,0,0,36.78,1,1,7746,3872
13384,6.3097e+07,2,0.00079353,0.00093077,0.0022674,-0.22684,-0.11032,-9.8315,0,0,36.781,1,1,7746,3872
13388,6.31e+07,2,-2.6816e-05,0.00032864,0.0027101,-0.22874,-0.1103,-9.8273,0,0,36.781,1,1,7746,3872
13391,6.3102e+07,2,-0.00046534,0.00020478,0.0026919,-0.22918,-0.10966,-9.824,0,0,36.781,1,1,7746,3872
13394,6.3105e+07,2,-0.0011818,0.00031753,0.0020303,-0.22846,-0.10644,-9.8215,0,0,36.781,1,1,7746,3872
13425,6.3108e+07,2,-0.00051972,0.0011535,0.0016218,-0.22647,-0.10145,-9.8204,0,0,36.78,1,1,7746,3872
13428,6.311e+07,2,-0.00016592,0.0015862,0.0010065,-0.22678,-0.099007,-9.8213,0,0,36.78,1,1,7746,3872
13431,6.3112e+07,2,-0.0001603,0.0014497,0.0005844,-0.22806,-0.097325,-9.8229,0,0,36.78,1,1,7746,3872
13435,6.3115e+07,2,4.8701e-05,0.0010876,0.0014492,-0.22951,-0.0961,-9.8234,0,0,36.78,1,1,7746,3872
13466,6.3117e+07,2,0.00022305,0.00077238,0.0023648,-0.22978,-0.095422,-9.8239,0,0,36.78,1,1,7746,3872
13470,6.3125e+07,2,0.00069692,-0.000446,-0.00023245,-0.22661,-0.091172,-9.8242,0,0,36.78,1,1,7746,3872
13501,6.3128e+07,2,-0.00038867,-0.00022293,-0.00088182,-0.22509,-0.089922,-9.8179,0,0,36.78,1,1,7746,3872
13506,6.313e+07,2,-0.0010674,0.0003416,-0.0013917,-0.22475,-0.090029,-9.8153,0,0,36.78,1,1,7746,3872
13509,6.3133e+07,2,-0.0018883,0.00090046,-0.0011228,-0.22353,-0.091185,-9.8087,0,0,36.78,1,1,7746,3872
13512,6.3136e+07,2,-0.0024493,0.0016176,-0.00082673,-0.22242,-0.092667,-9.8065,0,0,36.78,1,1,7746,3872
13543,6.3138e+07,2,-0.0019103,0.0022752,-0.00017794,-0.21966,-0.098685,-9.8054,0,0,36.78,1,1,7746,3872
13546,6.3141e+07,2,-0.0014924,0.0013586,0.0002113,-0.21743,-0.10519,-9.807,0,0,36.78,1,1,7746,3872
13549,6.3144e+07,2,-0.001667,0.0004013,6.1268e-05,-0.2159,-0.10875,-9.8083,0,0,36.78,1,1,7746,3872
13552,6.3146e+07,2,-0.0018404,-0.00045679,-0.00088217,-0.2153,-0.11053,-9.8123,0,0,36.78,1,1,7746,3872
13583,6.3149e+07,2,-0.0017233,0.00030143,-0.00057158,-0.21793,-0.1103,-9.815,0,0,36.779,1,1,7746,3872
13587,6.3151e+07,2,-0.0016837,0.00013795,-0.00078069,-0.22132,-0.11002,-9.8191,0,0,36.779,1,1,7746,3872
13590,6.3153e+07,2,-0.0014458,-0.00095203,-0.00089544,-0.22595,-0.10945,-9.8212,0,0,36.779,1,1,7746,3872
13593,6.3156e+07,2,-0.0011935,-0.0018184,-0.0017211,-0.2322,-0.10789,-9.8197,0,0,36.779,1,1,7746,3872
13624,6.3158e+07,2,-0.00077082,-0.0015033,-0.0014192,-0.2362,-0.10697,-9.8175,0,0,36.779,1,1,7746,3872
13627,6.3162e+07,2,4.574e-05,-0.0010753,-0.0015442,-0.23719,-0.10686,-9.8172,0,0,36.779,1,1,7746,3872
13631,6.3164e+07,2,0.0010911,-0.00046705,-0.00093377,-0.23779,-0.10621,-9.8152,0,0,36.779,1,1,7746,3872
13634,6.3166e+07,2,0.001318,-0.00032963,-0.00066834,-0.23713,-0.1044,-9.813,0,0,36.779,1,1,7746,3872
13665,6.3169e+07,2,0.0015255,-0.00023628,5.2281e-05,-0.23577,-0.1012,-9.8078,0,0,36.779,1,1,7746,3872
13669,6.3171e+07,2,0.00093052,-0.00022519,0.00037011,-0.23517,-0.10061,-9.8038,0,0,36.779,1,1,7746,3872
13672,6.3174e+07,2,0.0004243,0.00055238,0.00035206,-0.23431,-0.10057,-9.7988,0,0,36.779,1,1,7746,3872
13675,6.3176e+07,2,0.00093011,0.00073321,-9.1752e-05,-0.23433,-0.1001,-9.799,0,0,36.779,1,1,7746,3872
13706,6.3179e+07,2,0.0017479,0.00081806,-0.00063352,-0.23548,-0.099511,-9.8006,0,0,36.779,1,1,7746,3872
13709,6.3181e+07,2,0.0022519,0.00090827,-0.0011798,-0.23659,-0.099171,-9.8016,0,0,36.779,1,1,7746,3872
