LineNo,TimeUS,I,GyrX,GyrY,GyrZ,AccX,AccY,AccZ,EG,EA,T,GH,AH,GHz,AHz
184,5.9683e+07,0,0.0016146,0.00030642,-0.0033141,-0.32871,-0.051172,-9.7774,0,0,44.731,1,1,8008,4004
291,5.9712e+07,0,0.00055546,-0.0017583,0.0017399,-0.32328,-0.040284,-9.7949,0,0,44.732,1,1,8008,4004
322,5.9715e+07,0,0.0010473,-0.0013865,0.0014466,-0.32245,-0.039962,-9.7957,0,0,44.732,1,1,8008,4004
403,5.9739e+07,0,9.6656e-05,0.00070239,0.0017372,-0.32248,-0.041435,-9.7827,0,0,44.733,1,1,8008,4004
434,5.9742e+07,0,0.00010121,0.0013661,0.0014384,-0.3207,-0.038815,-9.7745,0,0,44.733,1,1,8008,4004
514,5.9758e+07,0,0.0011873,8.7829e-05,0.0004778,-0.30871,-0.044458,-9.746,0,0,44.734,1,1,8008,4004
630,5.9779e+07,0,-0.00042391,0.0015658,0.00036331,-0.31021,-0.057124,-9.782,0,0,44.734,1,1,8008,4004
745,5.98e+07,0,-7.6054e-05,0.0021296,-0.0014646,-0.29985,-0.048372,-9.7892,0,0,44.735,1,1,8008,4004
860,5.9826e+07,0,-0.00022044,-0.0026537,0.0012759,-0.29852,-0.045976,-9.758,0,0,44.735,1,1,8008,4004
978,5.9853e+07,0,0.00055129,-0.0025287,0.00030498,-0.31993,-0.053125,-9.766,0,0,44.735,1,1,8008,4004
1091,5.9911e+07,0,-0.00089613,0.0014836,0.0010707,-0.32597,-0.044207,-9.8019,0,0,44.735,1,1,8008,4004
1206,6.0015e+07,0,-0.0002614,0.0012009,0.00010122,-0.30818,-0.048158,-9.7804,0,0,44.736,1,1,8008,4004
1237,6.0017e+07,0,2.6117e-06,0.00078018,7.7753e-05,-0.30789,-0.04576,-9.7782,0,0,44.736,1,1,8008,4004
1293,6.0044e+07,0,-0.00081374,-0.00079278,0.0005857,-0.30188,-0.051503,-9.7796,0,0,44.737,1,1,8008,4004
1326,6.0047e+07,0,-0.0010626,-0.00066473,0.00028667,-0.30116,-0.052622,-9.7796,0,0,44.737,1,1,8008,4004
1387,6.0064e+07,0,-0.0014857,-7.0121e-05,0.0017404,-0.28871,-0.052091,-9.7713,0,0,44.737,1,1,8008,4004
1480,6.0085e+07,0,-0.00069401,-0.0003725,0.00014519,-0.30442,-0.04463,-9.7636,0,0,44.737,1,1,8008,4004
1546,6.0089e+07,0,0.00028421,-0.0020606,-0.000926,-0.30996,-0.044095,-9.7611,0,0,44.737,1,1,8008,4004
1549,6.0091e+07,0,0.00037313,-0.0016526,-0.0016895,-0.31132,-0.043533,-9.7648,0,0,44.737,1,1,8008,4004
1563,6.0099e+07,0,9.7616e-05,0.0007943,0.0003444,-0.30958,-0.036898,-9.7779,0,0,44.737,1,1,8008,4004
1571,6.0102e+07,0,-0.00010265,0.00054292,0.00045962,-0.31037,-0.037232,-9.7778,0,0,44.737,1,1,8008,4004
1602,6.0104e+07,0,-0.00022951,-0.00042226,0.00099585,-0.31097,-0.039513,-9.7764,0,0,44.737,1,1,8008,4004
1605,6.0107e+07,0,0.00058063,-0.0011475,0.0018619,-0.31163,-0.041685,-9.7739,0,0,44.737,1,1,8008,4004
1608,6.011e+07,0,0.001338,-0.0011161,0.0018381,-0.31284,-0.043019,-9.7713,0,0,44.737,1,1,8008,4004
1611,6.0112e+07,0,0.0016882,-0.00049306,0.0013957,-0.31308,-0.044389,-9.771,0,0,44.737,1,1,8008,4004
1642,6.0114e+07,0,0.00064544,-0.00030549,0.00025455,-0.31336,-0.045399,-9.7706,0,0,44.737,1,1,8008,4004
1646,6.0117e+07,0,0.001138,-0.00023369,-0.00084716,-0.3134,-0.04488,-9.7663,0,0,44.737,1,1,8008,4004
1650,6.012e+07,0,0.0011682,-0.00038046,-0.0014522,-0.31395,-0.044662,-9.7653,0,0,44.737,1,1,8008,4004
1653,6.0123e+07,0,0.00010949,-0.0003442,-0.0019563,-0.31605,-0.042463,-9.7683,0,0,44.737,1,1,8008,4004
1684,6.0125e+07,0,-0.00060737,-0.0011575,-0.00030559,-0.31655,-0.038056,-9.7697,0,0,44.737,1,1,8008,4004
1687,6.0128e+07,0,-0.00094299,-0.00089186,0.0010566,-0.31711,-0.034849,-9.7713,0,0,44.737,1,1,8008,4004
1690,6.013e+07,0,-0.00070083,-0.0010122,0.0014184,-0.31839,-0.03211,-9.779,0,0,44.737,1,1,8008,4004
1693,6.0132e+07,0,-0.00073893,-0.00055664,0.000348,-0.32095,-0.032092,-9.7831,0,0,44.737,1,1,8008,4004
1724,6.0136e+07,0,-0.00021451,0.00016189,-0.0021847,-0.32511,-0.033484,-9.7857,0,0,44.737,1,1,8008,4004
1728,6.0138e+07,0,0.0003991,0.0010256,-0.0023944,-0.32888,-0.034982,-9.7863,0,0,44.737,1,1,8008,4004
1731,6.0141e+07,0,0.0010683,0.0018687,-0.0018149,-0.33158,-0.034989,-9.7862,0,0,44.737,1,1,8008,4004
1734,6.0143e+07,0,0.0016344,0.0015766,-0.0014813,-0.33473,-0.036085,-9.7859,0,0,44.736,1,1,8008,4004
1765,6.0146e+07,0,0.0013435,0.00087316,-0.0019448,-0.33723,-0.036881,-9.7855,0,0,44.736,1,1,8008,4004
1768,6.0149e+07,0,0.00046795,0.00073417,-0.002082,-0.34169,-0.03852,-9.7844,0,0,44.736,1,1,8008,4004
1771,6.0153e+07,0,-0.00024053,0.0016463,-0.001082,-0.3435,-0.037816,-9.7747,0,0,44.736,1,1,8008,4004
1802,6.0156e+07,0,-0.00077395,0.0012532,-0.0022196,-0.34331,-0.038231,-9.7688,0,0,44.736,1,1,8008,4004
1806,6.0158e+07,0,-0.00087059,0.00088409,-0.0025434,-0.34258,-0.041646,-9.7592,0,0,44.736,1,1,8008,4004
1809,6.0161e+07,0,-0.00059852,0.00082474,-0.0021014,-0.34036,-0.045524,-9.754,0,0,44.736,1,1,8008,4004
1812,6.0164e+07,0,-0.00069259,0.00029517,-0.0013575,-0.33801,-0.047518,-9.756,0,0,44.736,1,1,8008,4004
1843,6.0166e+07,0,-0.00064772,8.8239e-05,8.4932e-05,-0.33285,-0.049401,-9.7585,0,0,44.736,1,1,8008,4004
1847,6.0169e+07,0,-0.00058631,0.00017493,0.00040133,-0.32938,-0.05075,-9.7605,0,0,44.736,1,1,8008,4004
1850,6.0171e+07,0,-0.00043651,-0.00093967,0.00017948,-0.32537,-0.050672,-9.7649,0,0,44.736,1,1,8008,4004
1853,6.0174e+07,0,4.5897e-05,-0.0013427,-0.00014819,-0.32281,-0.050707,-9.7679,0,0,44.736,1,1,8008,4004
1884,6.0177e+07,0,0.0001017,-0.0013187,-7.0682e-05,-0.32069,-0.051343,-9.7707,0,0,44.736,1,1,8008,4004
1887,6.0179e+07,0,-0.00058849,-0.0011396,0.00031546,-0.32091,-0.051112,-9.7723,0,0,44.736,1,1,8008,4004
1890,6.0182e+07,0,-0.000976,-0.000985,0.00078051,-0.32115,-0.049165,-9.7729,0,0,44.736,1,1,8008,4004
1893,6.0184e+07,0,-8.0749e-05,-0.00010682,0.00061017,-0.32185,-0.046728,-9.7729,0,0,44.736,1,1,8008,4004
1924,6.0187e+07,0,0.00056833,-0.00032437,0.0006263,-0.32347,-0.044843,-9.7707,0,0,44.736,1,1,8008,4004
1928,6.019e+07,0,-0.00028342,-0.00065009,0.00099634,-0.32438,-0.044115,-9.768,0,0,44.736,1,1,8008,4004
1931,6.0192e+07,0,-0.0011507,-0.00066644,0.00098885,-0.32503,-0.043304,-9.7645,0,0,44.736,1,1,8008,4004
1934,6.0195e+07,0,-0.00097068,-0.00027651,0.0007505,-0.32456,-0.044043,-9.7626,0,0,44.736,1,1,8008,4004
1965,6.0197e+07,0,-0.0011415,-0.00024654,0.00069145,-0.3202,-0.046572,-9.7609,0,0,44.736,1,1,8008,4004
1969,6.02e+07,0,-0.0011695,-0.00035703,-2.9304e-05,-0.31806,-0.047533,-9.76,0,0,44.736,1,1,8008,4004
1972,6.0202e+07,0,-0.0021031,9.3362e-05,-0.0009838,-0.31615,-0.047813,-9.7624,0,0,44.737,1,1,8008,4004
1979,6.0205e+07,0,-0.0022456,0.00024414,-0.0010747,-0.31505,-0.047789,-9.7647,0,0,44.737,1,1,8008,4004
2010,6.0207e+07,0,-0.0014659,0.00029318,-0.00055468,-0.3141,-0.048439,-9.7683,0,0,44.737,1,1,8008,4004
2014,6.021e+07,0,-0.0012912,0.00015872,8.0732e-05,-0.31226,-0.048397,-9.7695,0,0,44.737,1,1,8008,4004
2017,6.0212e+07,0,-0.00045099,0.00046336,0.0012087,-0.30933,-0.04867,-9.7697,0,0,44.737,1,1,8008,4004
2021,6.0215e+07,0,0.00028129,0.00092474,0.0017428,-0.30839,-0.049059,-9.7722,0,0,44.737,1,1,8008,4004
2054,6.0218e+07,0,0.00056389,0.00090834,0.0012825,-0.30749,-0.049727,-9.7771,0,0,44.737,1,1,8008,4004
2057,6.022e+07,0,-0.00050521,0.00049716,0.00083086,-0.30938,-0.048979,-9.781,0,0,44.737,1,1,8008,4004
2060,6.0223e+07,0,-0.00083887,0.00087811,0.00095077,-0.31161,-0.04767,-9.7817,0,0,44.737,1,1,8008,4004
2063,6.0225e+07,0,-0.0018671,0.00051882,0.00091917,-0.31331,-0.044882,-9.7801,0,0,44.737,1,1,8008,4004
2094,6.0227e+07,0,-0.0025036,-0.00028026,0.00056137,-0.31401,-0.043672,-9.7784,0,0,44.738,1,1,8008,4004
2098,6.023e+07,0,-0.0029442,-0.00012122,0.00089222,-0.31598,-0.044605,-9.7737,0,0,44.738,1,1,8008,4004
2101,6.0233e+07,0,-0.0022942,0.00089298,0.0015622,-0.31688,-0.045303,-9.7709,0,0,44.738,1,1,8008,4004
2104,6.0236e+07,0,-0.00043735,0.0015913,0.0009205,-0.31805,-0.0458,-9.7687,0,0,44.738,1,1,8008,4004
2135,6.0239e+07,0,5.8599e-05,0.00077925,-0.00031591,-0.31755,-0.043418,-9.7651,0,0,44.738,1,1,8008,4004
2139,6.0241e+07,0,-0.00052794,0.00028638,-0.00069171,-0.31519,-0.041507,-9.7621,0,0,44.738,1,1,8008,4004
2142,6.0243e+07,0,-0.0013573,0.00063635,-0.00026307,-0.31168,-0.040936,-9.7583,0,0,44.738,1,1,8008,4004
2145,6.0246e+07,0,-0.0010734,0.00015507,0.00023261,-0.30971,-0.04258,-9.7583,0,0,44.739,1,1,8008,4004
2176,6.025e+07,0,-0.00042487,0.00061189,-9.9636e-05,-0.31049,-0.042497,-9.7633,0,0,44.739,1,1,8008,4004
2179,6.0253e+07,0,0.00024378,0.0023469,-0.00021219,-0.31095,-0.041627,-9.7667,0,0,44.739,1,1,8008,4004
2182,6.0254e+07,0,0.000886,0.0027632,-9.2928e-05,-0.31032,-0.041656,-9.7668,0,0,44.739,1,1,8008,4004
2185,6.0257e+07,0,0.00074181,0.0023808,-0.00043574,-0.30974,-0.041001,-9.7669,0,0,44.739,1,1,8008,4004
2216,6.026e+07,0,0.00043045,0.0010218,-0.0015842,-0.30838,-0.041681,-9.7668,0,0,44.74,1,1,8008,4004
2219,6.0261e+07,0,3.4181e-05,0.00035735,-0.0018212,-0.30751,-0.042514,-9.7669,0,0,44.74,1,1,8008,4004
2223,6.0264e+07,0,0.00024153,0.00026899,-0.0016185,-0.30734,-0.045355,-9.7671,0,0,44.74,1,1,8008,4004
2227,6.0267e+07,0,0.00033449,-0.00012725,-0.0015941,-0.30755,-0.047085,-9.7661,0,0,44.74,1,1,8008,4004
2258,6.0269e+07,0,0.00086297,-7.3246e-05,-0.0013727,-0.30919,-0.047102,-9.7645,0,0,44.74,1,1,8008,4004
2261,6.0272e+07,0,0.0016534,0.0010154,-0.00095867,-0.31081,-0.046739,-9.7651,0,0,44.74,1,1,8008,4004
2264,6.0274e+07,0,0.0014101,0.0025873,-0.00091609,-0.31257,-0.047647,-9.766,0,0,44.741,1,1,8008,4004
2268,6.0277e+07,0,0.0011535,0.0031573,-0.00060705,-0.31304,-0.048949,-9.7662,0,0,44.741,1,1,8008,4004
2299,6.028e+07,0,0.0015262,0.0014195,-0.0012053,-0.31295,-0.051419,-9.7668,0,0,44.741,1,1,8008,4004
2302,6.0283e+07,0,0.0017622,0.0014803,-0.0015797,-0.31034,-0.052527,-9.7644,0,0,44.741,1,1,8008,4004
2305,6.0285e+07,0,0.0017761,0.001381,-0.0011038,-0.30873,-0.052767,-9.7617,0,0,44.741,1,1,8008,4004
2308,6.0288e+07,0,0.0026711,0.00071195,-0.00034992,-0.30797,-0.052976,-9.7579,0,0,44.741,1,1,8008,4004
2341,6.0291e+07,0,0.0020611,0.00050252,0.0003664,-0.30854,-0.053735,-9.7586,0,0,44.742,1,1,8008,4004
2344,6.0293e+07,0,0.0012238,0.00094591,0.00056124,-0.30895,-0.053528,-9.7597,0,0,44.742,1,1,8008,4004
2347,6.0295e+07,0,0.00081862,0.00075314,0.00026198,-0.30879,-0.052707,-9.7602,0,0,44.742,1,1,8008,4004
2351,6.0298e+07,0,0.00099172,0.00034957,0.00038667,-0.30756,-0.05137,-9.7602,0,0,44.742,1,1,8008,4004
2382,6.0301e+07,0,0.0015782,0.00045847,0.0005377,-0.30608,-0.051483,-9.7598,0,0,44.742,1,1,8008,4004
2385,6.0303e+07,0,0.001656,0.00079967,0.0001505,-0.30175,-0.049942,-9.7597,0,0,44.742,1,1,8008,4004
2388,6.0306e+07,0,0.0016351,0.00045104,3.5815e-05,-0.30011,-0.047748,-9.7603,0,0,44.743,1,1,8008,4004
2395,6.0308e+07,0,0.0008667,-0.00054974,-0.00021875,-0.2996,-0.043229,-9.7607,0,0,44.743,1,1,8008,4004
2426,6.0311e+07,0,-0.00013317,-0.00098521,-0.00073967,-0.29829,-0.041348,-9.7616,0,0,44.743,1,1,8008,4004
2429,6.0313e+07,0,-0.0005944,-0.0010243,-0.0007893,-0.29399,-0.040567,-9.7647,0,0,44.743,1,1,8008,4004
2432,6.0316e+07,0,-0.00080835,-0.0013673,-0.001092,-0.29171,-0.03896,-9.7658,0,0,44.743,1,1,8008,4004
2437,6.0318e+07,0,-0.00074908,-0.0020147,-0.0011403,-0.29052,-0.037212,-9.7684,0,0,44.743,1,1,8008,4004
2470,6.0321e+07,0,-0.0010803,-0.0016635,-0.001181,-0.28993,-0.038518,-9.7703,0,0,44.744,1,1,8008,4004
2473,6.0324e+07,0,-0.0015418,-0.0015607,-0.0013342,-0.29013,-0.041884,-9.7724,0,0,44.744,1,1,8008,4004
2476,6.0326e+07,0,-0.0014403,-0.0007596,-0.0012717,-0.29237,-0.04575,-9.7744,0,0,44.744,1,1,8008,4004
2481,6.0328e+07,0,-0.0010144,3.6215e-05,-0.0010451,-0.29404,-0.048644,-9.7749,0,0,44.744,1,1,8008,4004
2512,6.0331e+07,0,-0.0003953,-0.00055111,-0.00037428,-0.29755,-0.051444,-9.7732,0,0,44.744,1,1,8008,4004
2515,6.0333e+07,0,-0.00048156,-0.0011109,-4.5501e-05,-0.30015,-0.052108,-9.7687,0,0,44.744,1,1,8008,4004
2518,6.0336e+07,0,-0.00050681,-0.00054387,9.3328e-05,-0.30365,-0.051668,-9.7623,0,0,44.745,1,1,8008,4004
2521,6.0339e+07,0,-0.00053585,-0.00027348,-0.00019998,-0.30686,-0.051421,-9.7581,0,0,44.745,1,1,8008,4004
2552,6.0342e+07,0,-0.00037565,-0.00045442,-0.001014,-0.31153,-0.048879,-9.7523,0,0,44.745,1,1,8008,4004
2555,6.0345e+07,0,-0.00046981,-0.00067131,-0.00070483,-0.31531,-0.044488,-9.7508,0,0,44.745,1,1,8008,4004
2558,6.0347e+07,0,-0.0010273,-0.00074581,0.00024718,-0.31829,-0.042135,-9.7571,0,0,44.745,1,1,8008,4004
2561,6.0349e+07,0,-0.0017751,-0.00061841,0.00063663,-0.31982,-0.040262,-9.7625,0,0,44.745,1,1,8008,4004
2592,6.0353e+07,0,-0.0024853,-0.00026752,0.00054714,-0.32061,-0.036897,-9.7707,0,0,44.745,1,1,8008,4004
2595,6.0356e+07,0,-0.0016366,0.00030949,0.00080916,-0.32177,-0.036262,-9.7754,0,0,44.746,1,1,8008,4004
2598,6.0357e+07,0,-0.0015257,0.00043192,0.00025336,-0.32284,-0.036371,-9.7761,0,0,44.746,1,1,8008,4004
2601,6.036e+07,0,-0.0016624,0.00070468,-0.00059047,-0.32407,-0.036188,-9.7762,0,0,44.746,1,1,8008,4004
2632,6.0362e+07,0,-0.0010195,0.00013952,-0.0010879,-0.32823,-0.03567,-9.7748,0,0,44.746,1,1,8008,4004
2635,6.0365e+07,0,-0.00094195,-8.9013e-05,-0.00095151,-0.33159,-0.035818,-9.775,0,0,44.746,1,1,8008,4004
2638,6.0368e+07,0,-0.00046825,-0.00065341,0.00032302,-0.33563,-0.036875,-9.7768,0,0,44.746,1,1,8008,4004
2642,6.037e+07,0,-0.00023651,-0.00057784,0.00039387,-0.33743,-0.036959,-9.7776,0,0,44.746,1,1,8008,4004
2673,6.0372e+07,0,0.00030505,0.0011389,-2.1028e-05,-0.33895,-0.037991,-9.7767,0,0,44.746,1,1,8008,4004
2676,6.0374e+07,0,0.00054405,0.0019393,0.00026238,-0.33874,-0.039782,-9.7766,0,0,44.747,1,1,8008,4004
2679,6.0377e+07,0,-6.7118e-06,0.0020024,-0.00034257,-0.33764,-0.044184,-9.7797,0,0,44.747,1,1,8008,4004
2683,6.038e+07,0,-0.00040002,0.0018574,-0.00068355,-0.33675,-0.048822,-9.784,0,0,44.747,1,1,8008,4004
2714,6.0383e+07,0,-0.001121,0.0015256,-0.00032842,-0.33534,-0.05467,-9.7885,0,0,44.747,1,1,8008,4004
2717,6.0385e+07,0,-0.00067891,0.0018682,-0.0002692,-0.33377,-0.055029,-9.7903,0,0,44.747,1,1,8008,4004
2720,6.0388e+07,0,0.00024616,0.0017059,0.0001785,-0.33193,-0.053346,-9.7891,0,0,44.747,1,1,8008,4004
2724,6.039e+07,0,0.00092581,0.00034272,-0.00019829,-0.32957,-0.050302,-9.7847,0,0,44.748,1,1,8008,4004
2755,6.0393e+07,0,0.00016719,-0.0002965,-0.00063079,-0.32994,-0.04627,-9.7804,0,0,44.748,1,1,8008,4004
2758,6.0396e+07,0,-0.00079964,-0.00035618,-0.0005683,-0.33059,-0.043518,-9.7777,0,0,44.748,1,1,8008,4004
2761,6.0398e+07,0,-0.00052536,-0.00044664,-1.835e-05,-0.32964,-0.042182,-9.7775,0,0,44.748,1,1,8008,4004
2765,6.0401e+07,0,-2.4936e-05,-0.00073061,0.00034323,-0.32877,-0.042165,-9.7785,0,0,44.748,1,1,8008,4004
2796,6.0403e+07,0,0.0012292,-0.00012611,-0.0011384,-0.32866,-0.043039,-9.7793,0,0,44.749,1,1,8008,4004
2799,6.0406e+07,0,0.0010855,0.00016367,-0.0012259,-0.32995,-0.042316,-9.7795,0,0,44.749,1,1,8008,4004
2802,6.0408e+07,0,0.00045321,-0.00032908,0.00026004,-0.32953,-0.042864,-9.7788,0,0,44.749,1,1,8008,4004
2809,6.0411e+07,0,0.00026142,-0.00019254,0.00054719,-0.32742,-0.043514,-9.7777,0,0,44.749,1,1,8008,4004
2840,6.0413e+07,0,7.9185e-05,4.1989e-05,0.00019118,-0.32284,-0.044123,-9.7776,0,0,44.75,1,1,8008,4004
2843,6.0416e+07,0,-0.0007223,0.00014123,0.00078007,-0.31917,-0.046177,-9.7738,0,0,44.75,1,1,8008,4004
2846,6.0418e+07,0,-0.00066496,-0.00044625,0.0014407,-0.3177,-0.047,-9.7709,0,0,44.75,1,1,8008,4004
2851,6.0421e+07,0,-0.00068244,-0.00085427,0.0020417,-0.31768,-0.047135,-9.7697,0,0,44.75,1,1,8008,4004
2882,6.0424e+07,0,-0.00034272,-0.0014337,0.0018915,-0.31978,-0.048294,-9.7713,0,0,44.75,1,1,8008,4004
2886,6.0426e+07,0,0.00024389,-0.0010745,0.0016229,-0.32053,-0.049249,-9.7722,0,0,44.751,1,1,8008,4004
2889,6.0429e+07,0,0.00081433,-0.00054574,0.00082772,-0.3225,-0.049678,-9.7719,0,0,44.751,1,1,8008,4004
2892,6.0431e+07,0,0.00067419,-0.00030633,-0.0001103,-0.3245,-0.05012,-9.7701,0,0,44.751,1,1,8008,4004
2923,6.0434e+07,0,0.00098135,5.3526e-05,0.00041943,-0.32668,-0.050409,-9.7668,0,0,44.751,1,1,8008,4004
2926,6.0436e+07,0,0.0016637,0.0002669,0.0018693,-0.32689,-0.051135,-9.7656,0,0,44.751,1,1,8008,4004
2929,6.0439e+07,0,0.0016851,8.5129e-05,0.0022469,-0.32632,-0.051451,-9.765,0,0,44.751,1,1,8008,4004
2933,6.0442e+07,0,0.0022889,0.00040792,0.0017548,-0.32555,-0.052004,-9.7651,0,0,44.751,1,1,8008,4004
2966,6.0445e+07,0,0.001813,-4.519e-05,0.0006768,-0.32464,-0.050687,-9.768,0,0,44.752,1,1,8008,4004
2969,6.0447e+07,0,0.0008309,-0.00089412,-0.00021252,-0.32465,-0.049565,-9.7719,0,0,44.752,1,1,8008,4004
2972,6.045e+07,0,0.00078661,-0.0011548,-0.00040041,-0.32601,-0.049849,-9.7761,0,0,44.752,1,1,8008,4004
2975,6.0455e+07,0,0.0021663,0.00016951,-0.0011629,-0.33001,-0.050173,-9.7815,0,0,44.752,1,1,8008,4004
3006,6.0458e+07,0,0.00263,-0.00029276,-0.00062901,-0.33079,-0.048547,-9.7791,0,0,44.752,1,1,8008,4004
3009,6.046e+07,0,0.0012696,-0.0010933,-0.0012602,-0.32891,-0.047511,-9.7735,0,0,44.752,1,1,8008,4004
3013,6.0462e+07,0,0.0010235,-0.0015746,-0.00097246,-0.3282,-0.047755,-9.772,0,0,44.752,1,1,8008,4004
3016,6.0465e+07,0,0.0015934,-0.0010067,0.00012899,-0.32743,-0.04771,-9.7733,0,0,44.752,1,1,8008,4004
3047,6.0469e+07,0,0.0019521,-0.00025009,6.9264e-05,-0.32522,-0.047055,-9.7734,0,0,44.753,1,1,8008,4004
3050,6.0471e+07,0,0.0013177,-0.00011074,1.8321e-05,-0.32456,-0.046642,-9.7741,0,0,44.753,1,1,8008,4004
3054,6.0473e+07,0,0.00051048,-0.00092517,0.00082344,-0.32465,-0.045236,-9.7769,0,0,44.753,1,1,8008,4004
3057,6.0475e+07,0,0.00028331,-0.00096254,0.001206,-0.32494,-0.044418,-9.7781,0,0,44.753,1,1,8008,4004
3088,6.0478e+07,0,9.1422e-05,0.00049496,0.00061948,-0.32576,-0.04452,-9.7805,0,0,44.753,1,1,8008,4004
3091,6.0481e+07,0,0.00021921,0.0014776,0.00075667,-0.32526,-0.043974,-9.782,0,0,44.753,1,1,8008,4004
3094,6.0483e+07,0,0.0008542,0.0013921,0.00066545,-0.32284,-0.041879,-9.7844,0,0,44.753,1,1,8008,4004
3098,6.0486e+07,0,0.0010946,0.0020192,0.00051638,-0.32127,-0.039299,-9.787,0,0,44.754,1,1,8008,4004
3129,6.0488e+07,0,0.0016074,0.0022364,0.00051785,-0.31829,-0.036298,-9.7899,0,0,44.754,1,1,8008,4004
3132,6.049e+07,0,0.0011502,0.0019889,0.00048048,-0.3159,-0.034279,-9.7914,0,0,44.754,1,1,8008,4004
3136,6.0493e+07,0,0.00012042,0.00089887,0.00090924,-0.31221,-0.034118,-9.7947,0,0,44.754,1,1,8008,4004
3139,6.0495e+07,0,-0.00031557,0.00014967,0.00067304,-0.30973,-0.035403,-9.7961,0,0,44.754,1,1,8008,4004
3170,6.0498e+07,0,-0.0013781,0.00012968,0.00040016,-0.30553,-0.037339,-9.7926,0,0,44.754,1,1,8008,4004
3173,6.0501e+07,0,-0.0018412,0.00072804,0.00024224,-0.30428,-0.038813,-9.7875,0,0,44.754,1,1,8008,4004
3176,6.0503e+07,0,-0.0012147,0.0022983,0.00021444,-0.30479,-0.040215,-9.7759,0,0,44.755,1,1,8008,4004
3179,6.0505e+07,0,-0.00090844,0.0030161,4.3799e-05,-0.30477,-0.04093,-9.7691,0,0,44.755,1,1,8008,4004
3210,6.0508e+07,0,-0.00093629,0.0028073,-0.0008142,-0.30592,-0.041997,-9.7609,0,0,44.755,1,1,8008,4004
3213,6.051e+07,0,-0.0012755,0.0021918,-0.00047257,-0.30547,-0.04163,-9.7574,0,0,44.755,1,1,8008,4004
3221,6.0514e+07,0,-0.0018497,0.0013345,0.00054475,-0.30374,-0.040859,-9.7542,0,0,44.755,1,1,8008,4004
3224,6.0516e+07,0,-0.0014034,0.0013921,0.00022065,-0.30302,-0.040201,-9.7526,0,0,44.756,1,1,8008,4004
3255,6.0518e+07,0,-0.00024221,0.0017739,-0.00026374,-0.30245,-0.039876,-9.7528,0,0,44.756,1,1,8008,4004
3259,6.0521e+07,0,-0.00029649,0.00086007,-0.00079299,-0.30256,-0.040761,-9.7565,0,0,44.756,1,1,8008,4004
3262,6.0523e+07,0,-0.00082418,0.00036932,-0.00057879,-0.30286,-0.040674,-9.7581,0,0,44.756,1,1,8008,4004
3265,6.0526e+07,0,-0.0013672,-9.0759e-05,-0.0003788,-0.30417,-0.0403,-9.7594,0,0,44.757,1,1,8008,4004
3296,6.0529e+07,0,-0.0022568,-0.0002292,-0.00043258,-0.30392,-0.039765,-9.7613,0,0,44.757,1,1,8008,4004
3299,6.0531e+07,0,-0.0024816,9.4527e-05,-0.00022463,-0.30207,-0.040187,-9.763,0,0,44.757,1,1,8008,4004
3303,6.0534e+07,0,-0.0022304,1.24e-05,1.5132e-05,-0.30143,-0.041166,-9.7618,0,0,44.757,1,1,8008,4004
3306,6.0536e+07,0,-0.0020183,-0.00062858,0.00071389,-0.30196,-0.044474,-9.7591,0,0,44.757,1,1,8008,4004
3337,6.0539e+07,0,-0.001447,-0.00047849,0.0011383,-0.30272,-0.046878,-9.7615,0,0,44.757,1,1,8008,4004
3340,6.0542e+07,0,-0.00122,-0.00085721,0.00065732,-0.30324,-0.05007,-9.768,0,0,44.757,1,1,8008,4004
3344,6.0544e+07,0,-0.0011468,-0.0012752,0.00021722,-0.30346,-0.050737,-9.7726,0,0,44.758,1,1,8008,4004
3347,6.0546e+07,0,-0.001331,-0.001513,0.0011425,-0.3053,-0.051154,-9.7793,0,0,44.758,1,1,8008,4004
3380,6.055e+07,0,-0.0019244,-0.00091157,0.002575,-0.30895,-0.050886,-9.7815,0,0,44.758,1,1,8008,4004
3383,6.0551e+07,0,-0.0025613,-0.00053599,0.0025448,-0.31215,-0.051534,-9.7846,0,0,44.758,1,1,8008,4004
3387,6.0554e+07,0,-0.003156,-0.00017309,0.0019921,-0.31573,-0.052304,-9.7883,0,0,44.758,1,1,8008,4004
3390,6.0556e+07,0,-0.0032653,0.00020132,0.00078405,-0.31869,-0.051981,-9.7922,0,0,44.758,1,1,8008,4004
3421,6.0558e+07,0,-0.0025582,-9.7585e-06,0.00030248,-0.31958,-0.051104,-9.7925,0,0,44.759,1,1,8008,4004
3424,6.0562e+07,0,-0.0014812,-0.00064194,-0.00027897,-0.31839,-0.050566,-9.7887,0,0,44.759,1,1,8008,4004
3428,6.0566e+07,0,0.000487,-0.0018399,-0.0011849,-0.31474,-0.047637,-9.7783,0,0,44.759,1,1,8008,4004
3459,6.0569e+07,0,0.00048929,-0.0011222,-0.0017636,-0.31143,-0.045605,-9.7775,0,0,44.759,1,1,8008,4004
3463,6.0572e+07,0,0.00067126,-0.0013079,-0.0016014,-0.30884,-0.045401,-9.7777,0,0,44.759,1,1,8008,4004
3466,6.0575e+07,0,0.0012157,-0.0020025,-0.0011788,-0.30748,-0.04536,-9.7761,0,0,44.759,1,1,8008,4004
3469,6.0577e+07,0,0.00090212,-0.0015956,-0.0015998,-0.3073,-0.045675,-9.7741,0,0,44.76,1,1,8008,4004
3500,6.0579e+07,0,0.00058102,-0.00023312,-0.0018366,-0.30732,-0.046023,-9.7719,0,0,44.76,1,1,8008,4004
3503,6.0581e+07,0,0.0010556,0.00055551,-0.0017434,-0.30878,-0.045254,-9.7711,0,0,44.76,1,1,8008,4004
3507,6.0584e+07,0,0.001925,0.00080398,-0.0014428,-0.31281,-0.042745,-9.7707,0,0,44.76,1,1,8008,4004
3510,6.0587e+07,0,0.0024914,0.0020254,-0.00094806,-0.31582,-0.039926,-9.7705,0,0,44.76,1,1,8008,4004
3541,6.059e+07,0,0.0027068,0.0028522,-0.00033069,-0.31933,-0.035625,-9.7707,0,0,44.76,1,1,8008,4004
3544,6.0593e+07,0,0.001383,0.0017609,0.00028642,-0.32168,-0.032275,-9.7722,0,0,44.76,1,1,8008,4004
3547,6.0594e+07,0,0.00030804,0.0012813,0.00069736,-0.32209,-0.031141,-9.7717,0,0,44.76,1,1,8008,4004
3550,6.0598e+07,0,-0.00013148,-0.00040098,0.0011699,-0.32151,-0.030501,-9.7708,0,0,44.76,1,1,8008,4004
3581,6.06e+07,0,0.00050591,-0.0010813,0.0017514,-0.32003,-0.030716,-9.7696,0,0,44.76,1,1,8008,4004
3584,6.0602e+07,0,0.0012579,-0.0011525,0.0015875,-0.32028,-0.030678,-9.7691,0,0,44.76,1,1,8008,4004
3588,6.0605e+07,0,0.0028042,-0.0012145,0.00091056,-0.32032,-0.032433,-9.7699,0,0,44.76,1,1,8008,4004
3591,6.0608e+07,0,0.0030178,-0.00096514,-7.9402e-05,-0.31943,-0.034163,-9.7713,0,0,44.761,1,1,8008,4004
3622,6.0611e+07,0,0.0012612,-6.9627e-05,-0.0014031,-0.31797,-0.036532,-9.7732,0,0,44.761,1,1,8008,4004
3625,6.0613e+07,0,0.00051664,0.001078,-0.0015747,-0.31799,-0.038451,-9.7722,0,0,44.761,1,1,8008,4004
3632,6.0616e+07,0,0.00061922,0.0020487,-0.00095681,-0.31883,-0.039052,-9.7715,0,0,44.761,1,1,8008,4004
3635,6.0618e+07,0,0.0015493,0.0022089,-3.3768e-05,-0.32072,-0.039439,-9.7702,0,0,44.761,1,1,8008,4004
3666,6.0621e+07,0,0.00087951,0.0019761,0.00066847,-0.32223,-0.038324,-9.7695,0,0,44.761,1,1,8008,4004
3670,6.0623e+07,0,0.00020347,0.0013095,0.00090423,-0.32254,-0.037019,-9.7695,0,0,44.761,1,1,8008,4004
3674,6.0626e+07,0,-0.00013124,0.00029192,0.00066894,-0.32354,-0.034592,-9.7689,0,0,44.761,1,1,8008,4004
3677,6.0629e+07,0,-0.00080566,-7.8344e-05,0.00052231,-0.32443,-0.033241,-9.7719,0,0,44.761,1,1,8008,4004
3708,6.0632e+07,0,-0.00063156,0.00055014,0.00095348,-0.32396,-0.030438,-9.7778,0,0,44.761,1,1,8008,4004
3711,6.0634e+07,0,9.2871e-05,0.00094597,0.0011191,-0.32391,-0.028882,-9.7819,0,0,44.762,1,1,8008,4004
3715,6.0636e+07,0,0.00038904,0.00053832,0.00036999,-0.32401,-0.029955,-9.7851,0,0,44.762,1,1,8008,4004
3718,6.0639e+07,0,0.00084765,-0.00017527,7.0365e-05,-0.32327,-0.032872,-9.787,0,0,44.762,1,1,8008,4004
3749,6.0641e+07,0,0.0011832,-0.00015745,-1.9292e-05,-0.32171,-0.03837,-9.7872,0,0,44.762,1,1,8008,4004
3752,6.0644e+07,0,0.0014387,-0.00059775,-0.00030465,-0.32116,-0.041735,-9.7876,0,0,44.762,1,1,8008,4004
3755,6.0646e+07,0,0.0020461,-0.0012955,-0.00024777,-0.32237,-0.046422,-9.7872,0,0,44.762,1,1,8008,4004
3760,6.0649e+07,0,0.0012752,-0.0011281,-0.0002563,-0.32328,-0.049154,-9.7861,0,0,44.762,1,1,8008,4004
3791,6.0652e+07,0,-0.0010428,-0.0011044,-0.00044832,-0.32224,-0.054122,-9.7845,0,0,44.762,1,1,8008,4004
3794,6.0656e+07,0,-0.0021978,-0.00086887,-0.0011394,-0.32103,-0.059015,-9.7855,0,0,44.762,1,1,8008,4004
3797,6.066e+07,0,-0.0021397,-0.0010267,0.00058072,-0.3225,-0.059377,-9.7774,0,0,44.763,1,1,8008,4004
3828,6.0663e+07,0,-0.0015289,-0.00047658,0.0018046,-0.32296,-0.059339,-9.7734,0,0,44.763,1,1,8008,4004
3831,6.0665e+07,0,-0.0013819,-0.00062109,0.0016404,-0.32292,-0.060536,-9.7665,0,0,44.763,1,1,8008,4004
3835,6.0668e+07,0,-0.0020621,-0.00093101,0.0013501,-0.32227,-0.061774,-9.763,0,0,44.763,1,1,8008,4004
3838,6.0671e+07,0,-0.003207,-0.00094467,0.00063418,-0.32209,-0.060931,-9.7611,0,0,44.763,1,1,8008,4004
3869,6.0673e+07,0,-0.0028027,-0.00013034,-0.00027015,-0.32249,-0.057706,-9.7571,0,0,44.763,1,1,8008,4004
3872,6.0676e+07,0,-0.0027975,0.0001581,-0.001163,-0.32355,-0.056901,-9.7523,0,0,44.763,1,1,8008,4004
3875,6.0679e+07,0,-0.0027822,-0.0002617,-0.0015726,-0.32543,-0.056337,-9.7517,0,0,44.763,1,1,8008,4004
3878,6.0681e+07,0,-0.0024928,-0.00054483,-0.001703,-0.3254,-0.053623,-9.7541,0,0,44.763,1,1,8008,4004
3909,6.0684e+07,0,-0.0013988,-0.00020641,-0.0014535,-0.32227,-0.048859,-9.7588,0,0,44.763,1,1,8008,4004
3912,6.0686e+07,0,-0.0014033,3.4426e-06,-0.0010551,-0.31873,-0.048344,-9.7591,0,0,44.763,1,1,8008,4004
3915,6.0688e+07,0,-0.0016207,-4.0704e-05,-0.00068837,-0.31499,-0.046443,-9.7599,0,0,44.763,1,1,8008,4004
3918,6.0691e+07,0,-0.0013134,-0.00014118,0.00044584,-0.31495,-0.045137,-9.7595,0,0,44.763,1,1,8008,4004
3949,6.0693e+07,0,-0.0017745,-0.00019139,0.00035695,-0.31619,-0.044113,-9.7573,0,0,44.764,1,1,8008,4004
3953,6.0697e+07,0,-0.0014204,-0.00068666,-0.00028769,-0.31654,-0.043439,-9.7514,0,0,44.764,1,1,8008,4004
3957,6.0699e+07,0,-0.00092722,-0.0006248,-0.00054909,-0.31646,-0.043322,-9.7481,0,0,44.764,1,1,8008,4004
3960,6.0701e+07,0,-0.00030858,-0.00026862,7.2988e-05,-0.31581,-0.04362,-9.7489,0,0,44.764,1,1,8008,4004
3991,6.0704e+07,0,0.00035632,-6.2664e-05,0.0012613,-0.31384,-0.04541,-9.7533,0,0,44.764,1,1,8008,4004
3995,6.0706e+07,0,-0.00054221,-0.00025215,0.0014028,-0.31042,-0.046149,-9.7624,0,0,44.764,1,1,8008,4004
3998,6.0709e+07,0,-0.0015292,-0.00053469,0.0018128,-0.30831,-0.045593,-9.769,0,0,44.764,1,1,8008,4004
4001,6.0711e+07,0,-0.0020334,-0.00051814,0.0011929,-0.30433,-0.043476,-9.78,0,0,44.764,1,1,8008,4004
4032,6.0713e+07,0,-0.001969,-0.00051959,0.00030788,-0.30146,-0.040779,-9.7856,0,0,44.764,1,1,8008,4004
4035,6.0716e+07,0,-0.00083406,0.00012169,0.00011814,-0.2994,-0.035252,-9.7896,0,0,44.764,1,1,8008,4004
4042,6.0719e+07,0,0.00066212,0.00077919,-0.0006573,-0.29857,-0.03205,-9.7896,0,0,44.764,1,1,8008,4004
4047,6.0721e+07,0,0.001239,0.0018259,-0.0015039,-0.29756,-0.030422,-9.7885,0,0,44.764,1,1,8008,4004
4078,6.0724e+07,0,-6.6537e-05,0.0025066,-0.0015704,-0.29708,-0.031537,-9.7878,0,0,44.764,1,1,8008,4004
4082,6.0727e+07,0,-0.00052236,0.0024908,-0.00077347,-0.29944,-0.032711,-9.7853,0,0,44.764,1,1,8008,4004
4086,6.0729e+07,0,-0.00040379,0.0022252,0.00011983,-0.30414,-0.034097,-9.7792,0,0,44.764,1,1,8008,4004
4089,6.0732e+07,0,-0.00031183,0.0025504,0.00037495,-0.30684,-0.034685,-9.7745,0,0,44.764,1,1,8008,4004
4120,6.0735e+07,0,-0.0013154,0.002926,0.00087574,-0.31049,-0.035189,-9.7734,0,0,44.764,1,1,8008,4004
4123,6.0737e+07,0,-0.0015651,0.0022786,0.00054885,-0.31432,-0.036364,-9.779,0,0,44.763,1,1,8008,4004
4127,6.074e+07,0,-0.0013945,0.00098735,-0.00037439,-0.31646,-0.037057,-9.7847,0,0,44.763,1,1,8008,4004
4131,6.0742e+07,0,-0.00067911,1.8675e-06,-0.0018493,-0.32105,-0.035966,-9.7891,0,0,44.763,1,1,8008,4004
4162,6.0745e+07,0,-0.00049314,0.00010429,-0.0021364,-0.32301,-0.035483,-9.7882,0,0,44.763,1,1,8008,4004
4166,6.0748e+07,0,0.00039019,0.00042855,-0.00073035,-0.32298,-0.036577,-9.7868,0,0,44.763,1,1,8008,4004
4169,6.075e+07,0,0.00098424,0.00089944,0.00057968,-0.32253,-0.036931,-9.7867,0,0,44.763,1,1,8008,4004
4172,6.0752e+07,0,0.0023673,0.0017107,0.00077509,-0.31959,-0.037499,-9.7838,0,0,44.763,1,1,8008,4004
4203,6.0754e+07,0,0.0028646,0.0016111,0.0010073,-0.31699,-0.039865,-9.7804,0,0,44.763,1,1,8008,4004
4206,6.0757e+07,0,0.0026768,0.00123,0.0007624,-0.3117,-0.04375,-9.776,0,0,44.763,1,1,8008,4004
4209,6.0764e+07,0,0.0009005,0.0018702,0.00076668,-0.3079,-0.047454,-9.7742,0,0,44.763,1,1,8008,4004
4212,6.0765e+07,0,0.00044036,0.0016949,-5.9678e-05,-0.31059,-0.046927,-9.7712,0,0,44.762,1,1,8008,4004
4244,6.0767e+07,0,0.00030517,0.0010412,-6.5437e-07,-0.31305,-0.046737,-9.7701,0,0,44.762,1,1,8008,4004
4247,6.077e+07,0,0.00031206,-7.8458e-05,0.00029785,-0.31721,-0.045943,-9.7704,0,0,44.762,1,1,8008,4004
4250,6.0773e+07,0,0.00043188,-0.00019601,0.00047018,-0.31863,-0.044613,-9.7709,0,0,44.762,1,1,8008,4004
4253,6.0776e+07,0,0.00030471,-0.00072783,-6.5089e-05,-0.32147,-0.045423,-9.7709,0,0,44.762,1,1,8008,4004
4284,6.0778e+07,0,0.00095935,-3.4335e-05,1.5406e-05,-0.32181,-0.04689,-9.7716,0,0,44.762,1,1,8008,4004
4288,6.0781e+07,0,0.0021586,-0.00037785,-0.00060793,-0.32064,-0.047932,-9.7735,0,0,44.762,1,1,8008,4004
4291,6.0784e+07,0,0.0018249,-0.00049319,-0.00076552,-0.31879,-0.048536,-9.775,0,0,44.762,1,1,8008,4004
4294,6.0786e+07,0,0.00050803,-0.00076363,-0.00052943,-0.31685,-0.048723,-9.7759,0,0,44.762,1,1,8008,4004
4327,6.0789e+07,0,-0.00034031,-0.00098,-0.00022613,-0.31342,-0.049029,-9.7763,0,0,44.762,1,1,8008,4004
4331,6.0791e+07,0,-0.00045892,-0.0014019,-2.7103e-05,-0.31066,-0.048165,-9.7742,0,0,44.761,1,1,8008,4004
4334,6.0793e+07,0,0.00034691,-0.0012571,-0.00026262,-0.3079,-0.047245,-9.771,0,0,44.761,1,1,8008,4004
4337,6.0796e+07,0,0.00071659,-0.0010203,-0.00051469,-0.30761,-0.04763,-9.7684,0,0,44.761,1,1,8008,4004
4368,6.0799e+07,0,0.0013012,-0.0012281,-0.00010804,-0.30938,-0.051455,-9.7658,0,0,44.761,1,1,8008,4004
4372,6.0801e+07,0,0.0016246,-0.0010378,-7.8399e-05,-0.31055,-0.052418,-9.7667,0,0,44.761,1,1,8008,4004
4375,6.0804e+07,0,0.0014621,-0.0015689,0.00086366,-0.31183,-0.052683,-9.7708,0,0,44.761,1,1,8008,4004
4378,6.0807e+07,0,0.00090549,-0.0023746,0.00096431,-0.31281,-0.052088,-9.7746,0,0,44.761,1,1,8008,4004
4409,6.0809e+07,0,-0.00025346,-0.0014253,0.00054353,-0.31487,-0.052075,-9.7759,0,0,44.76,1,1,8008,4004
4412,6.0812e+07,0,-0.00055052,-0.00040358,-0.00015274,-0.31694,-0.052379,-9.7752,0,0,44.76,1,1,8008,4004
4415,6.0815e+07,0,0.0001939,6.7671e-05,-0.00086848,-0.31774,-0.051827,-9.7765,0,0,44.76,1,1,8008,4004
4418,6.0817e+07,0,-0.00020213,0.00052155,-0.0014367,-0.31789,-0.051691,-9.7787,0,0,44.76,1,1,8008,4004
4449,6.082e+07,0,-0.00052396,0.00059595,-0.0012524,-0.31811,-0.052315,-9.7802,0,0,44.76,1,1,8008,4004
4457,6.0822e+07,0,-0.0016605,-0.00025252,-5.5611e-05,-0.31867,-0.05265,-9.7846,0,0,44.76,1,1,8008,4004
4460,6.0824e+07,0,-0.0017141,-0.00060596,0.00025536,-0.32072,-0.052457,-9.7871,0,0,44.76,1,1,8008,4004
4463,6.0828e+07,0,-0.0012553,0.00094777,-0.00051196,-0.32275,-0.054317,-9.789,0,0,44.76,1,1,8008,4004
4494,6.0831e+07,0,-0.0011156,0.0019026,-0.00027817,-0.32508,-0.058192,-9.7879,0,0,44.759,1,1,8008,4004
4498,6.0833e+07,0,-0.0015711,0.0020304,0.00033123,-0.32619,-0.060684,-9.7883,0,0,44.759,1,1,8008,4004
4503,6.0836e+07,0,-0.0017817,0.0021616,0.00010447,-0.32764,-0.063506,-9.7898,0,0,44.759,1,1,8008,4004
4507,6.0838e+07,0,-0.0013266,0.0031182,-0.00017443,-0.32687,-0.062795,-9.7898,0,0,44.759,1,1,8008,4004
4538,6.0841e+07,0,-0.00081121,0.0033426,0.00023414,-0.32644,-0.060546,-9.7925,0,0,44.759,1,1,8008,4004
4541,6.0844e+07,0,-0.00097212,0.0027514,7.443e-05,-0.32557,-0.057004,-9.7942,0,0,44.759,1,1,8008,4004
4545,6.0846e+07,0,-0.0015798,0.002333,-0.00060672,-0.32443,-0.050524,-9.796,0,0,44.759,1,1,8008,4004
4548,6.0848e+07,0,-0.0020274,0.00225,-0.0013447,-0.32553,-0.04754,-9.796,0,0,44.759,1,1,8008,4004
4579,6.0851e+07,0,-0.00205,0.0021267,-0.001544,-0.32747,-0.046995,-9.7958,0,0,44.759,1,1,8008,4004
4583,6.0855e+07,0,-0.0025683,0.0021297,-0.0013822,-0.32707,-0.048216,-9.7953,0,0,44.759,1,1,8008,4004
4586,6.0857e+07,0,-0.0033001,0.0019602,-0.00078245,-0.32591,-0.049973,-9.7973,0,0,44.759,1,1,8008,4004
4589,6.0859e+07,0,-0.0032897,0.0011702,9.2791e-05,-0.3255,-0.049969,-9.7997,0,0,44.759,1,1,8008,4004
4620,6.0862e+07,0,-0.0019298,0.00090593,0.0010599,-0.32472,-0.049029,-9.7993,0,0,44.758,1,1,8008,4004
4623,6.0864e+07,0,-0.00074077,0.00072734,0.001318,-0.32425,-0.048285,-9.7977,0,0,44.758,1,1,8008,4004
4626,6.0867e+07,0,-0.00075098,0.00084855,0.00081289,-0.32445,-0.049066,-9.7956,0,0,44.758,1,1,8008,4004
4629,6.0872e+07,0,-0.0026086,0.0010661,-0.00028804,-0.32331,-0.050362,-9.8002,0,0,44.758,1,1,8008,4004
4661,6.0874e+07,0,-0.0029242,0.00065877,0.00084783,-0.32325,-0.047861,-9.7971,0,0,44.758,1,1,8008,4004
4664,6.0877e+07,0,-0.0021504,0.0011809,0.00038703,-0.32357,-0.045622,-9.7926,0,0,44.758,1,1,8008,4004
4667,6.088e+07,0,-0.001099,0.0016604,-0.00046802,-0.32221,-0.043472,-9.7865,0,0,44.758,1,1,8008,4004
4670,6.0882e+07,0,-0.00074837,0.0013658,0.00010458,-0.32042,-0.041065,-9.7816,0,0,44.758,1,1,8008,4004
4701,6.0884e+07,0,-5.6615e-05,0.00086695,0.00089202,-0.32091,-0.037533,-9.779,0,0,44.758,1,1,8008,4004
4705,6.0887e+07,0,0.00057504,0.00075004,0.00029155,-0.32437,-0.034105,-9.7805,0,0,44.758,1,1,8008,4004
4708,6.089e+07,0,0.0010384,0.0013431,0.00058998,-0.32635,-0.032617,-9.7801,0,0,44.757,1,1,8008,4004
4711,6.0892e+07,0,0.00060102,0.0017858,0.0013514,-0.32829,-0.032158,-9.7766,0,0,44.757,1,1,8008,4004
4742,6.0895e+07,0,-0.00012338,0.0011563,0.00076242,-0.32849,-0.032178,-9.7696,0,0,44.757,1,1,8008,4004
4746,6.0897e+07,0,-0.00018254,0.00045476,0.00081105,-0.32757,-0.031371,-9.7659,0,0,44.757,1,1,8008,4004
4749,6.09e+07,0,0.00029056,-7.8813e-05,0.00071352,-0.32699,-0.031479,-9.7639,0,0,44.757,1,1,8008,4004
4752,6.0902e+07,0,0.00065374,-0.00050505,0.00062432,-0.32725,-0.03285,-9.7643,0,0,44.757,1,1,8008,4004
4783,6.0905e+07,0,0.00029248,-0.0014925,0.00075348,-0.3261,-0.034728,-9.7645,0,0,44.757,1,1,8008,4004
4787,6.0908e+07,0,-0.000318,-0.0024914,0.00035294,-0.32422,-0.037423,-9.7647,0,0,44.757,1,1,8008,4004
4790,6.091e+07,0,-0.00027525,-0.0020593,0.00046748,-0.3228,-0.038975,-9.7654,0,0,44.757,1,1,8008,4004
4793,6.0912e+07,0,0.00031507,-0.002222,0.00055225,-0.32025,-0.040729,-9.768,0,0,44.757,1,1,8008,4004
4824,6.0915e+07,0,0.00096771,-0.002158,0.00080791,-0.32064,-0.04006,-9.7705,0,0,44.757,1,1,8008,4004
4827,6.0918e+07,0,0.0028731,-0.0018993,0.0019775,-0.32152,-0.036627,-9.7716,0,0,44.757,1,1,8008,4004
4830,6.092e+07,0,0.0039169,-0.0017784,0.0027098,-0.32147,-0.035337,-9.772,0,0,44.757,1,1,8008,4004
4833,6.0922e+07,0,0.0040805,-0.0014175,0.0028939,-0.32181,-0.034307,-9.7737,0,0,44.757,1,1,8008,4004
4868,6.0925e+07,0,0.0040483,-0.00065999,0.0026455,-0.32219,-0.034592,-9.775,0,0,44.757,1,1,8008,4004
4872,6.0927e+07,0,0.0032875,0.00011074,0.0014494,-0.32326,-0.03711,-9.7765,0,0,44.757,1,1,8008,4004
4875,6.093e+07,0,0.002344,-0.00019627,0.00014276,-0.32319,-0.040448,-9.7774,0,0,44.758,1,1,8008,4004
4878,6.0933e+07,0,0.0011836,-0.00066038,-0.00091176,-0.32163,-0.04592,-9.7777,0,0,44.758,1,1,8008,4004
4909,6.0935e+07,0,0.00017938,-0.00045767,-0.00063842,-0.32168,-0.051802,-9.777,0,0,44.758,1,1,8008,4004
4912,6.0938e+07,0,0.00030826,9.7934e-05,0.00037072,-0.32253,-0.056393,-9.7797,0,0,44.758,1,1,8008,4004
4915,6.0941e+07,0,0.001189,0.0014686,0.00092271,-0.32368,-0.06084,-9.7865,0,0,44.758,1,1,8008,4004
4918,6.0942e+07,0,0.0016585,0.0026914,2.1471e-05,-0.32374,-0.062545,-9.7895,0,0,44.758,1,1,8008,4004
4949,6.0945e+07,0,0.00067103,0.0031395,-0.0015763,-0.32213,-0.066919,-9.7895,0,0,44.758,1,1,8008,4004
4953,6.0947e+07,0,0.00010054,0.0029024,-0.0017331,-0.32023,-0.068805,-9.789,0,0,44.758,1,1,8008,4004
4956,6.095e+07,0,0.00010998,0.0033941,-0.0017655,-0.31761,-0.06802,-9.7889,0,0,44.758,1,1,8008,4004
4959,6.0953e+07,0,0.00047543,0.0034633,-0.0011534,-0.31592,-0.066409,-9.7885,0,0,44.758,1,1,8008,4004
4990,6.0955e+07,0,0.0014212,0.0031144,0.00039354,-0.31437,-0.063827,-9.7875,0,0,44.758,1,1,8008,4004
4994,6.0958e+07,0,0.0014437,0.0023737,0.0004441,-0.31266,-0.062215,-9.785,0,0,44.758,1,1,8008,4004
4997,6.096e+07,0,0.00047816,0.0019179,-0.00011671,-0.31022,-0.05913,-9.7823,0,0,44.758,1,1,8008,4004
5001,6.0962e+07,0,0.00025896,0.0016429,0.00017943,-0.30778,-0.056876,-9.7805,0,0,44.758,1,1,8008,4004
5032,6.0968e+07,0,0.00023603,-0.00064515,-0.0013927,-0.30486,-0.055225,-9.7753,0,0,44.758,1,1,8008,4004
5035,6.0973e+07,0,-0.00069886,0.00019929,-0.0017115,-0.31005,-0.055522,-9.7706,0,0,44.758,1,1,8008,4004
5066,6.0976e+07,0,-0.00047476,3.4985e-06,-0.0015401,-0.31026,-0.055937,-9.7667,0,0,44.758,1,1,8008,4004
5069,6.0979e+07,0,1.9652e-05,-0.00018536,-0.0010434,-0.30927,-0.058785,-9.762,0,0,44.758,1,1,8008,4004
5072,6.0981e+07,0,-3.165e-05,-0.00038166,-0.00075341,-0.3078,-0.060738,-9.7598,0,0,44.758,1,1,8008,4004
5075,6.0983e+07,0,-0.00010249,-0.00081767,0.00051994,-0.30548,-0.06348,-9.7571,0,0,44.758,1,1,8008,4004
5106,6.0986e+07,0,-0.00083336,-0.0017193,0.00012182,-0.30551,-0.066469,-9.7566,0,0,44.758,1,1,8008,4004
5110,6.0988e+07,0,-0.0012143,-0.0020237,-0.00088642,-0.30716,-0.068115,-9.7583,0,0,44.758,1,1,8008,4004
5113,6.0991e+07,0,-0.0020341,-0.0011489,-0.0013886,-0.30905,-0.071371,-9.7617,0,0,44.758,1,1,8008,4004
5116,6.0994e+07,0,-0.0025498,-0.00066351,-0.0017323,-0.30833,-0.073312,-9.7624,0,0,44.758,1,1,8008,4004
5147,6.0996e+07,0,-0.0027023,-0.00014415,-0.001731,-0.30681,-0.070416,-9.7637,0,0,44.758,1,1,8008,4004
5150,6.0999e+07,0,-0.0034505,-0.00066216,-0.0006424,-0.30752,-0.061559,-9.7646,0,0,44.758,1,1,8008,4004
5154,6.1002e+07,0,-0.0037181,-0.0013983,-0.00014046,-0.308,-0.055127,-9.764,0,0,44.758,1,1,8008,4004
5157,6.1005e+07,0,-0.0035122,-0.0022935,-0.00046109,-0.30858,-0.04614,-9.7622,0,0,44.759,1,1,8008,4004
5188,6.1007e+07,0,-0.0037264,-0.0024474,-0.00024158,-0.30757,-0.039027,-9.7612,0,0,44.759,1,1,8008,4004
5191,6.101e+07,0,-0.0031039,-0.0018808,-0.00020995,-0.30723,-0.035892,-9.7608,0,0,44.759,1,1,8008,4004
5195,6.1012e+07,0,-0.0013404,-0.0015102,-0.00028285,-0.3089,-0.034694,-9.7613,0,0,44.759,1,1,8008,4004
5198,6.1015e+07,0,-0.00078215,-0.00098743,-0.00077662,-0.31017,-0.0359,-9.7633,0,0,44.759,1,1,8008,4004
5229,6.1018e+07,0,-0.0017679,-0.00019829,-0.00065373,-0.31094,-0.03961,-9.7663,0,0,44.759,1,1,8008,4004
5232,6.102e+07,0,-0.0028009,-0.00036896,-0.00019954,-0.31219,-0.041849,-9.7683,0,0,44.759,1,1,8008,4004
5235,6.1023e+07,0,-0.0043664,-0.0014359,-0.00024817,-0.31459,-0.045249,-9.77,0,0,44.759,1,1,8008,4004
5238,6.1025e+07,0,-0.0044799,-0.0021485,-0.00016088,-0.31686,-0.046533,-9.772,0,0,44.759,1,1,8008,4004
5273,6.1028e+07,0,-0.0025224,-0.0020015,0.00011678,-0.32039,-0.046416,-9.7727,0,0,44.76,1,1,8008,4004
5276,6.103e+07,0,-0.0011949,-0.0019662,0.0007333,-0.32117,-0.045289,-9.7739,0,0,44.76,1,1,8008,4004
5280,6.1032e+07,0,4.4059e-05,-0.0018892,0.0014733,-0.31967,-0.04401,-9.7736,0,0,44.76,1,1,8008,4004
5284,6.1035e+07,0,-0.00030412,-0.00079096,0.0015793,-0.31916,-0.042366,-9.7715,0,0,44.76,1,1,8008,4004
5315,6.1037e+07,0,-0.00074675,0.00092563,0.001839,-0.31947,-0.036615,-9.7673,0,0,44.76,1,1,8008,4004
5320,6.1041e+07,0,-0.00015882,5.1234e-05,0.0015773,-0.31871,-0.032084,-9.7619,0,0,44.76,1,1,8008,4004
5323,6.1042e+07,0,0.00061857,-0.0012207,0.0018502,-0.31959,-0.030224,-9.7594,0,0,44.76,1,1,8008,4004
5326,6.1045e+07,0,0.0019513,-0.0012417,0.0026512,-0.32031,-0.029936,-9.7615,0,0,44.76,1,1,8008,4004
5357,6.1048e+07,0,0.0019079,-0.00078313,0.0022286,-0.32065,-0.031039,-9.7657,0,0,44.76,1,1,8008,4004
5360,6.105e+07,0,0.0013625,-0.0003107,0.0013856,-0.32164,-0.033513,-9.7725,0,0,44.76,1,1,8008,4004
5364,6.1053e+07,0,0.0013625,-5.9023e-05,0.0013223,-0.32282,-0.035402,-9.7767,0,0,44.76,1,1,8008,4004
5367,6.1055e+07,0,0.0012859,0.00010871,0.0013868,-0.32627,-0.036877,-9.7833,0,0,44.76,1,1,8008,4004
5398,6.1057e+07,0,0.0014688,6.0412e-05,0.0013942,-0.3292,-0.038436,-9.7863,0,0,44.761,1,1,8008,4004
5401,6.1061e+07,0,0.0012056,-0.0002796,0.00095697,-0.33241,-0.04118,-9.7904,0,0,44.761,1,1,8008,4004
5405,6.1062e+07,0,0.000853,-0.00055448,0.0012143,-0.33324,-0.043209,-9.7916,0,0,44.761,1,1,8008,4004
5408,6.1068e+07,0,0.00041636,-0.00034232,0.00028802,-0.33869,-0.048703,-9.7925,0,0,44.761,1,1,8008,4004
5439,6.1071e+07,0,0.00025953,0.001163,-0.00043611,-0.34075,-0.048785,-9.7927,0,0,44.761,1,1,8008,4004
5443,6.1074e+07,0,0.00041256,0.0018366,-0.00031385,-0.33933,-0.047572,-9.7926,0,0,44.761,1,1,8008,4004
5446,6.1076e+07,0,0.00026906,0.0012046,0.0003666,-0.33542,-0.045737,-9.7903,0,0,44.761,1,1,8008,4004
5449,6.1078e+07,0,0.00059576,0.00072407,0.00020266,-0.33263,-0.044824,-9.788,0,0,44.761,1,1,8008,4004
5480,6.1081e+07,0,0.0005457,0.00089288,0.0003406,-0.32981,-0.042615,-9.7855,0,0,44.761,1,1,8008,4004
5484,6.1083e+07,0,0.0016042,0.00099649,0.00035099,-0.32561,-0.039435,-9.783,0,0,44.761,1,1,8008,4004
5487,6.1086e+07,0,0.0028508,0.0005601,-0.00071277,-0.32288,-0.040121,-9.7809,0,0,44.761,1,1,8008,4004
5490,6.1089e+07,0,0.0032391,0.00092827,-0.0020532,-0.31983,-0.042763,-9.7752,0,0,44.761,1,1,8008,4004
5521,6.1091e+07,0,0.0025608,0.0015133,-0.0020408,-0.31992,-0.043,-9.7727,0,0,44.761,1,1,8008,4004
5524,6.1094e+07,0,0.0019965,0.001804,-0.00164,-0.31955,-0.042312,-9.7726,0,0,44.76,1,1,8008,4004
5527,6.1097e+07,0,0.0020441,0.0024791,-0.0012124,-0.3189,-0.041511,-9.772,0,0,44.76,1,1,8008,4004
5530,6.1099e+07,0,0.0020282,0.0019607,-0.0010339,-0.31864,-0.041071,-9.7733,0,0,44.76,1,1,8008,4004
5561,6.1102e+07,0,0.0012014,0.0011249,0.00014637,-0.31807,-0.040287,-9.7776,0,0,44.76,1,1,8008,4004
5565,6.1104e+07,0,0.00098516,0.0012934,0.00089182,-0.31816,-0.040478,-9.7793,0,0,44.76,1,1,8008,4004
5568,6.1106e+07,0,0.0012552,0.0011413,0.0013822,-0.31829,-0.039498,-9.7779,0,0,44.76,1,1,8008,4004
5572,6.1109e+07,0,0.0012931,0.001423,0.0013229,-0.31799,-0.039625,-9.7749,0,0,44.76,1,1,8008,4004
5603,6.1112e+07,0,0.0016741,0.0014107,-0.0002247,-0.31771,-0.04187,-9.7673,0,0,44.76,1,1,8008,4004
5606,6.1115e+07,0,0.0013935,-0.00061355,-0.0017283,-0.31561,-0.048059,-9.7606,0,0,44.76,1,1,8008,4004
5609,6.1117e+07,0,0.0010463,-0.0013928,-0.002072,-0.31418,-0.053361,-9.7574,0,0,44.761,1,1,8008,4004
5612,6.1119e+07,0,0.00041115,-0.0013892,-0.0014948,-0.31219,-0.060286,-9.7556,0,0,44.761,1,1,8008,4004
5646,6.1122e+07,0,0.00077319,-0.00070794,-0.0010837,-0.31021,-0.062472,-9.7578,0,0,44.761,1,1,8008,4004
5650,6.1124e+07,0,0.0014942,0.00087442,-0.00052622,-0.30834,-0.063824,-9.7652,0,0,44.761,1,1,8008,4004
5653,6.1127e+07,0,0.0011012,0.0017592,4.3137e-05,-0.30854,-0.064391,-9.7714,0,0,44.761,1,1,8008,4004
5660,6.113e+07,0,0.00011003,0.0012888,0.00082855,-0.31134,-0.065102,-9.7807,0,0,44.761,1,1,8008,4004
5691,6.1132e+07,0,-0.0013455,0.00025891,0.00055,-0.31515,-0.067036,-9.7907,0,0,44.761,1,1,8008,4004
5694,6.1135e+07,0,-0.0018299,-0.0011988,-0.00021,-0.31691,-0.06914,-9.7962,0,0,44.761,1,1,8008,4004
5697,6.1138e+07,0,-0.0014567,-0.00096444,-0.00082555,-0.31827,-0.071689,-9.7994,0,0,44.761,1,1,8008,4004
5700,6.114e+07,0,-0.00086612,-0.00054188,-0.00089552,-0.31751,-0.072365,-9.7974,0,0,44.761,1,1,8008,4004
5731,6.1142e+07,0,-0.00075344,-0.00073327,-0.00060768,-0.31564,-0.072858,-9.7931,0,0,44.76,1,1,8008,4004
5735,6.1145e+07,0,-0.0015209,-0.001049,-0.00017061,-0.31636,-0.071335,-9.7895,0,0,44.76,1,1,8008,4004
5738,6.1147e+07,0,-0.0021765,-9.8871e-05,0.00020085,-0.3173,-0.067911,-9.7825,0,0,44.76,1,1,8008,4004
5741,6.115e+07,0,-0.0017495,0.0008665,-2.1666e-05,-0.31682,-0.064766,-9.7792,0,0,44.76,1,1,8008,4004
5772,6.1153e+07,0,-0.00049523,-0.00020252,-0.00026198,-0.31662,-0.059023,-9.7782,0,0,44.76,1,1,8008,4004
5775,6.1155e+07,0,-0.0005563,-0.0013211,-0.00046918,-0.31563,-0.055536,-9.7792,0,0,44.76,1,1,8008,4004
5779,6.1157e+07,0,-0.00084138,-0.0019297,-0.00029009,-0.31339,-0.050965,-9.7817,0,0,44.76,1,1,8008,4004
5782,6.116e+07,0,-0.0010689,-0.0017515,-0.00032361,-0.31341,-0.04764,-9.7812,0,0,44.76,1,1,8008,4004
5813,6.1164e+07,0,-0.0012413,-0.00049904,-0.00056139,-0.31248,-0.040458,-9.7793,0,0,44.76,1,1,8008,4004
5816,6.1166e+07,0,-0.0011697,-6.1848e-05,-0.00092169,-0.31101,-0.038708,-9.7795,0,0,44.76,1,1,8008,4004
5819,6.1168e+07,0,-0.0014603,0.00057339,-0.0013446,-0.30939,-0.037633,-9.7774,0,0,44.76,1,1,8008,4004
5822,6.117e+07,0,-0.0012922,0.00049202,-0.0012803,-0.30905,-0.038179,-9.7758,0,0,44.76,1,1,8008,4004
5853,6.1177e+07,0,-0.00047461,0.00062226,0.00033709,-0.30977,-0.041823,-9.7827,0,0,44.76,1,1,8008,4004
5856,6.1179e+07,0,-0.00038133,0.00078596,0.00028033,-0.31231,-0.041765,-9.7874,0,0,44.76,1,1,8008,4004
5860,6.1181e+07,0,-0.0006509,0.0014014,-0.00013688,-0.31731,-0.042186,-9.7895,0,0,44.759,1,1,8008,4004
5891,6.1183e+07,0,-0.00088383,0.0012543,-0.00077469,-0.3197,-0.044034,-9.7891,0,0,44.759,1,1,8008,4004
5894,6.1186e+07,0,-0.00079698,0.00084086,-0.00094127,-0.32114,-0.046932,-9.7877,0,0,44.759,1,1,8008,4004
5897,6.1189e+07,0,-0.00091536,0.0011494,0.00013953,-0.32137,-0.049174,-9.7847,0,0,44.759,1,1,8008,4004
5900,6.1191e+07,0,0.00010508,0.0023424,0.0016017,-0.32147,-0.052897,-9.781,0,0,44.759,1,1,8008,4004
5931,6.1193e+07,0,0.00090544,0.0027657,0.002182,-0.32028,-0.055335,-9.779,0,0,44.759,1,1,8008,4004
5934,6.1196e+07,0,0.00046986,0.0023611,0.0017677,-0.31522,-0.056029,-9.7767,0,0,44.759,1,1,8008,4004
5937,6.1199e+07,0,0.00072906,0.0018226,0.0018028,-0.31174,-0.054352,-9.7766,0,0,44.758,1,1,8008,4004
5940,6.1202e+07,0,0.00035826,0.0018292,0.0011098,-0.30834,-0.052935,-9.7754,0,0,44.758,1,1,8008,4004
5971,6.1204e+07,0,-0.00021787,0.0018049,0.00084571,-0.30573,-0.050201,-9.7738,0,0,44.758,1,1,8008,4004
5975,6.1207e+07,0,-0.00065638,0.0023564,0.00055609,-0.30514,-0.046831,-9.7739,0,0,44.758,1,1,8008,4004
5979,6.1209e+07,0,-0.00099658,0.0030037,-0.00038413,-0.30643,-0.042663,-9.7752,0,0,44.758,1,1,8008,4004
5982,6.1212e+07,0,-0.0014741,0.0027908,-0.00033353,-0.30815,-0.039681,-9.7777,0,0,44.758,1,1,8008,4004
6013,6.1215e+07,0,-0.0016923,0.0016294,0.00011366,-0.31084,-0.037127,-9.782,0,0,44.758,1,1,8008,4004
6016,6.1217e+07,0,-0.0013551,0.0013585,0.00050165,-0.31387,-0.034885,-9.784,0,0,44.758,1,1,8008,4004
6019,6.122e+07,0,-0.00056743,0.0012324,0.00039737,-0.31594,-0.033795,-9.7816,0,0,44.758,1,1,8008,4004
6022,6.1222e+07,0,0.00079841,0.0011611,0.00044209,-0.31766,-0.033224,-9.7778,0,0,44.758,1,1,8008,4004
6053,6.1225e+07,0,0.00093769,0.0011044,0.00029886,-0.31755,-0.033616,-9.7759,0,0,44.758,1,1,8008,4004
6058,6.1228e+07,0,0.00094753,0.0015348,-0.00059362,-0.31815,-0.034867,-9.7766,0,0,44.758,1,1,8008,4004
6062,6.123e+07,0,0.00066925,0.0015749,-0.00065992,-0.31725,-0.035608,-9.7774,0,0,44.757,1,1,8008,4004
6069,6.1232e+07,0,-0.00064232,0.00026191,-0.00069326,-0.31348,-0.035834,-9.7778,0,0,44.757,1,1,8008,4004
6100,6.1235e+07,0,-0.0010117,-0.00031231,-0.00035241,-0.31139,-0.035253,-9.781,0,0,44.757,1,1,8008,4004
6103,6.1237e+07,0,-4.0774e-05,-0.0010438,-0.000113,-0.30987,-0.035143,-9.7877,0,0,44.757,1,1,8008,4004
6106,6.124e+07,0,0.00031352,-0.0016683,0.00034055,-0.3098,-0.035061,-9.7922,0,0,44.757,1,1,8008,4004
6109,6.1242e+07,0,0.00041412,-0.002704,0.00058321,-0.30933,-0.034417,-9.7963,0,0,44.757,1,1,8008,4004
6140,6.1245e+07,0,0.00050144,-0.0030068,-0.00026239,-0.30822,-0.034909,-9.7976,0,0,44.757,1,1,8008,4004
6143,6.1248e+07,0,0.00014957,-0.002647,-0.0013123,-0.3084,-0.038603,-9.7979,0,0,44.757,1,1,8008,4004
6147,6.125e+07,0,0.00023628,-0.0025876,-0.0018572,-0.30899,-0.041222,-9.7972,0,0,44.757,1,1,8008,4004
6150,6.1252e+07,0,0.0013418,-0.0023797,-0.001472,-0.30938,-0.043652,-9.7965,0,0,44.757,1,1,8008,4004
6181,6.1255e+07,0,0.0022245,-0.0013326,-0.0008541,-0.30825,-0.044274,-9.7954,0,0,44.757,1,1,8008,4004
6184,6.1257e+07,0,0.0024585,-0.00058945,-0.0001962,-0.30742,-0.045709,-9.7925,0,0,44.757,1,1,8008,4004
6187,6.126e+07,0,0.0014916,-0.0004982,0.00025543,-0.30732,-0.047739,-9.79,0,0,44.757,1,1,8008,4004
6190,6.1262e+07,0,0.00029664,-0.00013412,0.00026176,-0.30755,-0.05114,-9.7863,0,0,44.757,1,1,8008,4004
6221,6.1265e+07,0,0.00020704,-0.00014757,-0.00038995,-0.30762,-0.052986,-9.7845,0,0,44.757,1,1,8008,4004
6224,6.1267e+07,0,0.0005251,0.00029406,-0.0006723,-0.30777,-0.054105,-9.7825,0,0,44.757,1,1,8008,4004
6228,6.127e+07,0,0.00049123,0.00061247,-0.0011359,-0.30846,-0.054366,-9.7812,0,0,44.757,1,1,8008,4004
6231,6.1274e+07,0,0.00056183,0.00097263,-0.00098722,-0.31207,-0.053726,-9.7852,0,0,44.757,1,1,8008,4004
6262,6.128e+07,0,-0.00057383,-0.00058425,-0.00013456,-0.32154,-0.049797,-9.7868,0,0,44.757,1,1,8008,4004
6266,6.1282e+07,0,-0.0005893,-0.00088633,0.00012175,-0.32418,-0.051091,-9.7861,0,0,44.757,1,1,8008,4004
6269,6.1285e+07,0,1.0477e-05,-0.00084325,-0.00016443,-0.32543,-0.053937,-9.7872,0,0,44.757,1,1,8008,4004
6302,6.1288e+07,0,0.00069962,-0.00065006,-0.00026208,-0.32565,-0.052461,-9.7902,0,0,44.757,1,1,8008,4004
6305,6.1291e+07,0,0.00069843,-0.00047897,-0.00060608,-0.32455,-0.051486,-9.7912,0,0,44.757,1,1,8008,4004
6308,6.1293e+07,0,0.00067731,-0.00093162,-0.0007971,-0.32213,-0.050714,-9.7893,0,0,44.757,1,1,8008,4004
6311,6.1295e+07,0,0.00098654,-0.0014196,-0.00092702,-0.31968,-0.050931,-9.7862,0,0,44.757,1,1,8008,4004
6342,6.1298e+07,0,0.0024361,-0.00084391,-0.00092108,-0.31551,-0.051611,-9.7811,0,0,44.757,1,1,8008,4004
6345,6.1301e+07,0,0.0017804,-0.00018635,-0.0010328,-0.3146,-0.051983,-9.7797,0,0,44.757,1,1,8008,4004
6349,6.1303e+07,0,-1.4807e-05,0.00036693,-0.0010301,-0.31521,-0.051899,-9.7782,0,0,44.757,1,1,8008,4004
6354,6.1306e+07,0,-0.00072668,0.00058084,-0.00073392,-0.31684,-0.05014,-9.7775,0,0,44.757,1,1,8008,4004
6385,6.1308e+07,0,-0.00098023,0.00095588,-0.00064537,-0.31954,-0.047422,-9.7753,0,0,44.757,1,1,8008,4004
6388,6.1311e+07,0,-0.0013401,0.0012489,-0.00047756,-0.32124,-0.046611,-9.7732,0,0,44.757,1,1,8008,4004
6391,6.1313e+07,0,-0.0017379,0.0015225,-0.0005812,-0.32283,-0.044448,-9.7702,0,0,44.757,1,1,8008,4004
6394,6.1316e+07,0,-0.0014895,0.001636,-0.00057216,-0.32297,-0.044126,-9.7702,0,0,44.757,1,1,8008,4004
6425,6.1318e+07,0,-0.00096191,0.0015031,-0.00015709,-0.32094,-0.045002,-9.7734,0,0,44.757,1,1,8008,4004
6428,6.1321e+07,0,-0.001113,0.00081624,0.00085679,-0.32295,-0.046445,-9.7766,0,0,44.757,1,1,8008,4004
6432,6.1323e+07,0,-0.0015847,0.00088534,0.0009569,-0.32625,-0.047995,-9.7765,0,0,44.757,1,1,8008,4004
6435,6.1326e+07,0,-0.0019247,0.0009026,0.00063748,-0.32931,-0.052456,-9.7739,0,0,44.757,1,1,8008,4004
6466,6.133e+07,0,-0.0030735,0.0010144,0.00091452,-0.32838,-0.057189,-9.7723,0,0,44.757,1,1,8008,4004
6469,6.1331e+07,0,-0.0034273,0.00076911,0.00096535,-0.32679,-0.059299,-9.7713,0,0,44.757,1,1,8008,4004
6477,6.1334e+07,0,-0.0033523,0.00041328,0.0010186,-0.32558,-0.059022,-9.7674,0,0,44.757,1,1,8008,4004
6480,6.1337e+07,0,-0.0027376,0.00028382,0.00066948,-0.32534,-0.056873,-9.7651,0,0,44.757,1,1,8008,4004
6511,6.1339e+07,0,-0.0018259,0.00067188,0.0017005,-0.32575,-0.05324,-9.7648,0,0,44.758,1,1,8008,4004
6514,6.1342e+07,0,-0.0016705,0.00031361,0.0013574,-0.3261,-0.051123,-9.766,0,0,44.758,1,1,8008,4004
6517,6.1344e+07,0,-0.0021033,0.00097052,6.4154e-05,-0.32549,-0.049273,-9.7664,0,0,44.758,1,1,8008,4004
6520,6.1347e+07,0,-0.0024664,0.0017086,-0.00059766,-0.32346,-0.048327,-9.7666,0,0,44.758,1,1,8008,4004
6551,6.1349e+07,0,-0.0025459,0.001361,-6.6659e-05,-0.3192,-0.044856,-9.7682,0,0,44.758,1,1,8008,4004
6554,6.1352e+07,0,-0.0024902,0.00098266,0.00057021,-0.31732,-0.04166,-9.7711,0,0,44.758,1,1,8008,4004
6559,6.1354e+07,0,-0.0018688,-5.1342e-06,0.0011623,-0.3151,-0.037613,-9.7752,0,0,44.758,1,1,8008,4004
6562,6.1357e+07,0,-0.001121,0.00022422,0.0010358,-0.31487,-0.036563,-9.7752,0,0,44.758,1,1,8008,4004
6593,6.1359e+07,0,-0.0013866,0.0010698,0.00087349,-0.31592,-0.038728,-9.7731,0,0,44.758,1,1,8008,4004
6596,6.1362e+07,0,-0.0014777,0.000957,0.0010639,-0.31601,-0.039961,-9.7705,0,0,44.758,1,1,8008,4004
6599,6.1364e+07,0,-0.002183,-6.5237e-05,0.0010186,-0.31542,-0.040675,-9.7692,0,0,44.758,1,1,8008,4004
6602,6.1367e+07,0,-0.0020484,-0.00030943,0.00067531,-0.31492,-0.04263,-9.7702,0,0,44.758,1,1,8008,4004
6633,6.137e+07,0,-0.0019225,-0.00030252,0.00039697,-0.31466,-0.047741,-9.772,0,0,44.758,1,1,8008,4004
6636,6.1372e+07,0,-0.002098,0.00016156,0.00049022,-0.31501,-0.052417,-9.772,0,0,44.758,1,1,8008,4004
6640,6.1374e+07,0,-0.0019297,0.00093354,0.00070048,-0.31461,-0.054342,-9.7697,0,0,44.758,1,1,8008,4004
6643,6.1383e+07,0,0.0011587,0.0020866,-0.00088306,-0.31593,-0.049107,-9.7832,0,0,44.759,1,1,8008,4004
6675,6.1385e+07,0,0.0010578,0.0013344,-0.00091033,-0.31718,-0.045757,-9.7897,0,0,44.759,1,1,8008,4004
6678,6.1388e+07,0,0.00090044,0.00096701,-0.00049731,-0.31928,-0.044182,-9.7917,0,0,44.759,1,1,8008,4004
6681,6.1391e+07,0,0.00077809,0.00074952,-0.00017248,-0.32101,-0.040877,-9.7903,0,0,44.759,1,1,8008,4004
6684,6.1393e+07,0,0.0014788,0.00065855,7.2839e-05,-0.32057,-0.038857,-9.7867,0,0,44.759,1,1,8008,4004
6715,6.1396e+07,0,0.0020825,0.00040926,-0.00010488,-0.31776,-0.035582,-9.7815,0,0,44.76,1,1,8008,4004
6719,6.1398e+07,0,0.0020565,0.0015561,-0.00016666,-0.31548,-0.03454,-9.7803,0,0,44.76,1,1,8008,4004
6722,6.1401e+07,0,0.0015488,0.0019415,0.00036138,-0.31453,-0.034532,-9.7795,0,0,44.76,1,1,8008,4004
6726,6.1404e+07,0,0.0008762,0.0013746,0.00048554,-0.31417,-0.034547,-9.7766,0,0,44.76,1,1,8008,4004
6757,6.1407e+07,0,0.001652,0.0012031,0.0010451,-0.3123,-0.034811,-9.7745,0,0,44.76,1,1,8008,4004
6761,6.1409e+07,0,0.002095,0.001453,0.00068601,-0.30995,-0.034516,-9.7741,0,0,44.76,1,1,8008,4004
6764,6.1411e+07,0,0.0021599,0.0033913,-0.0001074,-0.30839,-0.036535,-9.7732,0,0,44.761,1,1,8008,4004
6767,6.1413e+07,0,0.0023622,0.0041684,-0.00022436,-0.30803,-0.039717,-9.7731,0,0,44.761,1,1,8008,4004
6798,6.1416e+07,0,0.0022386,0.0030823,-0.00058263,-0.30705,-0.044431,-9.775,0,0,44.761,1,1,8008,4004
6801,6.1419e+07,0,0.0016225,0.0021114,-0.0012126,-0.30759,-0.046729,-9.7771,0,0,44.761,1,1,8008,4004
6804,6.1421e+07,0,0.0010015,0.0011671,-0.0015232,-0.31068,-0.048314,-9.7799,0,0,44.761,1,1,8008,4004
6807,6.1423e+07,0,0.00080478,0.00068699,-0.0017911,-0.312,-0.048693,-9.7812,0,0,44.761,1,1,8008,4004
6838,6.1426e+07,0,0.0014845,0.00040876,-0.00082678,-0.31194,-0.047918,-9.7845,0,0,44.761,1,1,8008,4004
6842,6.1429e+07,0,0.0024368,0.0010472,0.00042612,-0.31193,-0.045529,-9.7884,0,0,44.761,1,1,8008,4004
6847,6.1432e+07,0,0.0027877,0.0012739,0.0012325,-0.31141,-0.042954,-9.7955,0,0,44.761,1,1,8008,4004
6850,6.1434e+07,0,0.0019963,0.00048605,0.0014261,-0.31061,-0.041873,-9.7995,0,0,44.761,1,1,8008,4004
6885,6.1436e+07,0,0.00083625,0.00079869,0.0017233,-0.30875,-0.041444,-9.8023,0,0,44.761,1,1,8008,4004
6888,6.1439e+07,0,0.00061176,0.0011324,0.0016013,-0.30872,-0.041654,-9.8023,0,0,44.761,1,1,8008,4004
6891,6.1441e+07,0,0.00053863,0.00085722,0.0014501,-0.31013,-0.041954,-9.7988,0,0,44.761,1,1,8008,4004
6894,6.1444e+07,0,0.00062842,0.00060179,0.0011084,-0.30895,-0.042766,-9.7934,0,0,44.761,1,1,8008,4004
6925,6.1447e+07,0,0.0011028,-0.00067015,0.00080374,-0.30471,-0.044124,-9.7845,0,0,44.761,1,1,8008,4004
6929,6.1449e+07,0,0.00051762,-0.0012257,0.0010298,-0.30346,-0.04526,-9.7794,0,0,44.762,1,1,8008,4004
6932,6.1451e+07,0,-0.00022837,-0.00057466,0.00046773,-0.30458,-0.047084,-9.7755,0,0,44.762,1,1,8008,4004
6935,6.1454e+07,0,-0.00021809,0.00031879,0.00011397,-0.30582,-0.047918,-9.7731,0,0,44.762,1,1,8008,4004
6966,6.1457e+07,0,-0.0013454,0.0011296,-0.00011771,-0.30805,-0.047346,-9.7659,0,0,44.762,1,1,8008,4004
6970,6.1459e+07,0,-0.0020312,0.00078952,-0.00042513,-0.31094,-0.047884,-9.76,0,0,44.762,1,1,8008,4004
6973,6.1461e+07,0,-0.0016364,-0.00021722,-0.00034137,-0.31333,-0.048879,-9.7605,0,0,44.762,1,1,8008,4004
6976,6.1464e+07,0,-0.0011031,-0.00030674,-0.00074191,-0.31618,-0.047448,-9.7635,0,0,44.762,1,1,8008,4004
7007,6.1467e+07,0,-0.002399,-0.00018511,-0.0010483,-0.3162,-0.045395,-9.7685,0,0,44.762,1,1,8008,4004
7010,6.147e+07,0,-0.0027645,-0.00031725,-0.00071618,-0.31433,-0.043667,-9.771,0,0,44.762,1,1,8008,4004
7013,6.1473e+07,0,-0.0027092,-0.00037636,-0.00081879,-0.30961,-0.04264,-9.7724,0,0,44.762,1,1,8008,4004
7016,6.1475e+07,0,-0.0026722,-0.00080006,-0.00073706,-0.30706,-0.041707,-9.7722,0,0,44.762,1,1,8008,4004
7047,6.1478e+07,0,-0.0020797,-0.001533,-0.00081351,-0.30662,-0.038182,-9.7701,0,0,44.762,1,1,8008,4004
7051,6.148e+07,0,-0.0019946,-0.0013062,-0.00016555,-0.30802,-0.035409,-9.7699,0,0,44.763,1,1,8008,4004
7054,6.1483e+07,0,-0.0018747,-0.00086076,0.00042506,-0.31021,-0.035506,-9.7722,0,0,44.763,1,1,8008,4004
7057,6.1486e+07,0,-0.002175,-0.00034499,4.9079e-06,-0.31544,-0.035924,-9.7762,0,0,44.763,1,1,8008,4004
7060,6.1488e+07,0,-0.0021023,-0.00067444,-0.00063667,-0.32103,-0.035454,-9.774,0,0,44.763,1,1,8008,4004
7091,6.1491e+07,0,-0.0016728,-0.0012641,-0.0011718,-0.32487,-0.035839,-9.7715,0,0,44.763,1,1,8008,4004
7094,6.1494e+07,0,-0.0013811,-0.00060677,-0.0012077,-0.32581,-0.035565,-9.771,0,0,44.763,1,1,8008,4004
7098,6.1497e+07,0,-0.0018544,-0.0012609,-0.00123,-0.32387,-0.035928,-9.7692,0,0,44.763,1,1,8008,4004
7101,6.1498e+07,0,-0.00191,-0.0017245,-0.001271,-0.32062,-0.035652,-9.7683,0,0,44.763,1,1,8008,4004
7132,6.1501e+07,0,-0.0017151,-0.001752,-0.0013222,-0.31706,-0.03507,-9.7723,0,0,44.763,1,1,8008,4004
7136,6.1503e+07,0,-0.00163,-0.0018728,-0.0010767,-0.31496,-0.03564,-9.7756,0,0,44.763,1,1,8008,4004
7139,6.1506e+07,0,-0.00201,-0.001778,-0.0015152,-0.31266,-0.036931,-9.7808,0,0,44.763,1,1,8008,4004
7143,6.1509e+07,0,-0.0025135,-0.001641,-0.0013464,-0.31204,-0.038311,-9.7826,0,0,44.763,1,1,8008,4004
7174,6.1512e+07,0,-0.0028316,-0.0017682,-0.00068779,-0.31168,-0.040046,-9.7828,0,0,44.763,1,1,8008,4004
7177,6.1515e+07,0,-0.0017354,-0.0016257,-0.00024144,-0.31366,-0.04063,-9.7827,0,0,44.763,1,1,8008,4004
7180,6.1517e+07,0,-0.00091304,-0.0016876,0.00096877,-0.31519,-0.040225,-9.7818,0,0,44.762,1,1,8008,4004
7184,6.152e+07,0,9.4166e-05,-0.00088257,0.0023815,-0.31571,-0.040344,-9.7814,0,0,44.763,1,1,8008,4004
7215,6.1522e+07,0,-0.00029854,-0.00020935,0.0020174,-0.31486,-0.041481,-9.7826,0,0,44.763,1,1,8008,4004
7218,6.1525e+07,0,-8.7363e-05,-0.00023514,0.00095165,-0.31545,-0.042753,-9.7836,0,0,44.763,1,1,8008,4004
7221,6.1528e+07,0,0.0010199,-0.0003045,0.0005323,-0.31739,-0.044062,-9.785,0,0,44.763,1,1,8008,4004
7224,6.153e+07,0,0.001203,0.0002262,-0.00031175,-0.31898,-0.043956,-9.787,0,0,44.763,1,1,8008,4004
7255,6.1533e+07,0,0.0010603,0.0012893,-0.0013227,-0.32192,-0.044036,-9.7896,0,0,44.763,1,1,8008,4004
7259,6.1535e+07,0,1.463e-05,0.00062509,-0.0013972,-0.32513,-0.044713,-9.7907,0,0,44.763,1,1,8008,4004
7262,6.1538e+07,0,-0.00095921,0.00041215,-0.00075261,-0.32759,-0.045693,-9.7901,0,0,44.763,1,1,8008,4004
7269,6.1541e+07,0,-0.0014086,0.00053274,2.5323e-05,-0.33159,-0.043305,-9.7881,0,0,44.763,1,1,8008,4004
7300,6.1544e+07,0,-0.00070344,-0.00022715,0.00085045,-0.33261,-0.040998,-9.7829,0,0,44.764,1,1,8008,4004
7303,6.1546e+07,0,-0.00065569,-0.00025482,0.00083778,-0.33168,-0.040661,-9.7775,0,0,44.764,1,1,8008,4004
7306,6.1548e+07,0,-0.00042948,-0.001157,0.00070021,-0.33132,-0.04161,-9.7743,0,0,44.764,1,1,8008,4004
7309,6.1551e+07,0,-0.00036409,-0.0021423,0.00021928,-0.32827,-0.042349,-9.7713,0,0,44.764,1,1,8008,4004
7340,6.1554e+07,0,3.1075e-05,-0.0019404,9.5758e-05,-0.32305,-0.03988,-9.7708,0,0,44.764,1,1,8008,4004
7344,6.1556e+07,0,0.00061179,-0.0014725,-0.00033192,-0.32013,-0.038024,-9.7694,0,0,44.764,1,1,8008,4004
7347,6.1558e+07,0,0.0013281,-0.00093583,-0.00027094,-0.31863,-0.036987,-9.7684,0,0,44.764,1,1,8008,4004
7350,6.1561e+07,0,0.0020394,-0.00057713,0.00090203,-0.31941,-0.035682,-9.7679,0,0,44.764,1,1,8008,4004
7381,6.1564e+07,0,0.0018845,-0.00053459,0.0015656,-0.3205,-0.034578,-9.769,0,0,44.764,1,1,8008,4004
7384,6.1566e+07,0,0.0014152,0.00017762,0.0017854,-0.32187,-0.0354,-9.7719,0,0,44.764,1,1,8008,4004
7388,6.1569e+07,0,0.0012873,0.00028059,0.0017642,-0.32201,-0.036905,-9.7756,0,0,44.764,1,1,8008,4004
7391,6.1571e+07,0,0.0013612,0.0013016,0.0010767,-0.32127,-0.03825,-9.7821,0,0,44.765,1,1,8008,4004
7423,6.1573e+07,0,0.001825,0.0022717,0.00089648,-0.32131,-0.038049,-9.7853,0,0,44.765,1,1,8008,4004
7427,6.1577e+07,0,0.0017933,0.0012564,0.00070043,-0.32212,-0.036821,-9.7873,0,0,44.765,1,1,8008,4004
7430,6.1579e+07,0,0.0017292,0.00017772,0.0002841,-0.32216,-0.03656,-9.7884,0,0,44.765,1,1,8008,4004
7433,6.1584e+07,0,-0.0010598,-0.00071192,0.00040381,-0.3215,-0.039863,-9.7844,0,0,44.765,1,1,8008,4004
7464,6.1587e+07,0,-0.00098775,-0.0010732,0.00063669,-0.321,-0.042635,-9.7822,0,0,44.765,1,1,8008,4004
7467,6.159e+07,0,-0.0006262,-0.0015701,-0.00031708,-0.32021,-0.048121,-9.7807,0,0,44.765,1,1,8008,4004
7470,6.1592e+07,0,-0.00041146,-0.0018121,-0.00036544,-0.31911,-0.049566,-9.78,0,0,44.765,1,1,8008,4004
7473,6.1594e+07,0,0.00014653,-0.0016748,0.00018906,-0.31858,-0.048839,-9.7804,0,0,44.765,1,1,8008,4004
7505,6.1596e+07,0,0.00044509,-0.0012165,-2.1141e-05,-0.31901,-0.047396,-9.7796,0,0,44.765,1,1,8008,4004
7508,6.1599e+07,0,8.132e-05,-0.000221,-0.00058139,-0.31847,-0.045359,-9.7796,0,0,44.765,1,1,8008,4004
7511,6.1602e+07,0,-0.00051154,3.0227e-05,-0.00060067,-0.31688,-0.045188,-9.7817,0,0,44.765,1,1,8008,4004
7514,6.1604e+07,0,-0.001416,-1.3547e-05,7.9686e-06,-0.31481,-0.046333,-9.7857,0,0,44.766,1,1,8008,4004
7545,6.1607e+07,0,-0.0015548,-0.00042518,0.00042486,-0.31371,-0.047049,-9.7878,0,0,44.766,1,1,8008,4004
7549,6.1609e+07,0,-0.0016061,-0.00072002,0.00015766,-0.31134,-0.047928,-9.7879,0,0,44.766,1,1,8008,4004
7552,6.1612e+07,0,-0.0011878,-0.0008516,6.4151e-05,-0.30963,-0.048197,-9.7856,0,0,44.766,1,1,8008,4004
7555,6.1614e+07,0,-0.0012335,-0.0017817,-0.00081108,-0.30852,-0.048583,-9.7838,0,0,44.766,1,1,8008,4004
7586,6.1617e+07,0,-0.0017219,-0.0019242,-0.0018248,-0.3077,-0.048233,-9.782,0,0,44.766,1,1,8008,4004
7590,6.162e+07,0,-0.0018185,-0.001724,-0.0017698,-0.30649,-0.046798,-9.7794,0,0,44.766,1,1,8008,4004
7593,6.1622e+07,0,-0.002273,-0.00091673,-0.00096418,-0.30393,-0.044653,-9.7736,0,0,44.766,1,1,8008,4004
7597,6.1624e+07,0,-0.0020856,-0.00038586,-0.00029893,-0.30273,-0.042811,-9.7693,0,0,44.766,1,1,8008,4004
7628,6.1627e+07,0,-0.0028383,0.00028926,-0.00073198,-0.30171,-0.041213,-9.7646,0,0,44.766,1,1,8008,4004
7632,6.163e+07,0,-0.0027336,-4.2436e-06,-0.00072334,-0.30189,-0.040911,-9.7653,0,0,44.766,1,1,8008,4004
7635,6.1632e+07,0,-0.0018442,-0.00065754,-0.00024203,-0.30365,-0.041778,-9.7699,0,0,44.766,1,1,8008,4004
7638,6.1634e+07,0,-0.0016289,-0.0005449,8.5714e-06,-0.30404,-0.04196,-9.7734,0,0,44.766,1,1,8008,4004
7671,6.1637e+07,0,-0.00023578,-0.00018238,0.00091302,-0.30327,-0.042916,-9.7756,0,0,44.766,1,1,8008,4004
7675,6.164e+07,0,-6.2853e-05,0.0007507,0.0013357,-0.30265,-0.044492,-9.775,0,0,44.766,1,1,8008,4004
7682,6.1643e+07,0,-0.0015662,0.001019,0.0017391,-0.30009,-0.04806,-9.7726,0,0,44.766,1,1,8008,4004
7685,6.1645e+07,0,-0.0021982,0.00083043,0.0018301,-0.29895,-0.049846,-9.7721,0,0,44.766,1,1,8008,4004
7716,6.1648e+07,0,-0.0014478,0.00039032,0.0013957,-0.30169,-0.049573,-9.7721,0,0,44.766,1,1,8008,4004
7719,6.165e+07,0,-0.00067617,0.0003191,5.1241e-05,-0.30567,-0.048202,-9.7724,0,0,44.766,1,1,8008,4004
7722,6.1653e+07,0,-0.00042105,0.00042439,2.5673e-05,-0.30904,-0.048962,-9.7728,0,0,44.766,1,1,8008,4004
7725,6.1656e+07,0,-0.00010431,0.00035565,0.00064837,-0.31242,-0.050253,-9.7756,0,0,44.766,1,1,8008,4004
7756,6.1658e+07,0,9.2402e-05,0.00030484,-0.00052732,-0.31331,-0.054302,-9.7753,0,0,44.766,1,1,8008,4004
7760,6.1661e+07,0,0.00099189,0.00020742,-0.0011553,-0.31336,-0.056725,-9.7731,0,0,44.766,1,1,8008,4004
7763,6.1663e+07,0,0.00068373,0.00046703,-0.0016768,-0.31036,-0.057331,-9.7694,0,0,44.766,1,1,8008,4004
7766,6.1666e+07,0,-0.00030005,0.00074578,-0.001726,-0.30844,-0.054725,-9.7665,0,0,44.766,1,1,8008,4004
7797,6.1669e+07,0,-0.00065961,0.00069081,-0.0010108,-0.30667,-0.050151,-9.7614,0,0,44.766,1,1,8008,4004
7800,6.1671e+07,0,-0.00080113,0.00096766,-0.00065025,-0.30615,-0.046646,-9.7588,0,0,44.766,1,1,8008,4004
7803,6.1674e+07,0,-0.0010558,0.0021968,-0.00021109,-0.30701,-0.042897,-9.7583,0,0,44.766,1,1,8008,4004
7806,6.1676e+07,0,-0.0012107,0.0027737,-0.00092309,-0.3081,-0.041654,-9.7595,0,0,44.766,1,1,8008,4004
7837,6.1678e+07,0,-0.00048777,0.002696,-0.0020822,-0.31004,-0.041079,-9.7598,0,0,44.766,1,1,8008,4004
7841,6.1681e+07,0,0.00034849,0.0022793,-0.0019569,-0.31204,-0.040481,-9.7593,0,0,44.766,1,1,8008,4004
7844,6.1683e+07,0,0.00077788,0.0016445,-0.0011705,-0.31427,-0.039247,-9.7606,0,0,44.766,1,1,8008,4004
7847,6.1686e+07,0,0.00016773,0.0017502,-0.00052364,-0.31513,-0.038824,-9.7625,0,0,44.766,1,1,8008,4004
7878,6.1694e+07,0,0.00081731,0.00075071,-0.00061832,-0.31383,-0.041245,-9.7646,0,0,44.766,1,1,8008,4004
7882,6.1697e+07,0,0.00033704,0.0016203,-0.0020651,-0.31375,-0.043633,-9.7645,0,0,44.766,1,1,8008,4004
7913,6.17e+07,0,-0.00010568,0.0017949,-0.0029228,-0.31223,-0.047638,-9.7634,0,0,44.766,1,1,8008,4004
7916,6.1702e+07,0,0.0014162,0.00037479,-0.00249,-0.31325,-0.050181,-9.7608,0,0,44.766,1,1,8008,4004
7919,6.1704e+07,0,0.002219,-0.0008187,-0.0020654,-0.31379,-0.049095,-9.7601,0,0,44.767,1,1,8008,4004
7923,6.1707e+07,0,0.0015647,-0.00067721,-0.0011643,-0.31226,-0.046345,-9.7634,0,0,44.767,1,1,8008,4004
7954,6.171e+07,0,0.0010685,-0.00018669,-0.00037837,-0.31078,-0.043872,-9.7675,0,0,44.767,1,1,8008,4004
7957,6.1712e+07,0,0.0010353,-0.00010513,0.00018435,-0.30846,-0.041479,-9.7696,0,0,44.767,1,1,8008,4004
7961,6.1715e+07,0,0.00096523,-0.00065095,0.00038806,-0.30759,-0.041307,-9.7689,0,0,44.767,1,1,8008,4004
7965,6.1717e+07,0,-0.00047704,-0.0012557,0.00079135,-0.30711,-0.043207,-9.7675,0,0,44.767,1,1,8008,4004
7996,6.172e+07,0,-0.00081566,-0.0014662,0.0012716,-0.30739,-0.045189,-9.7684,0,0,44.767,1,1,8008,4004
7999,6.1723e+07,0,-6.1525e-05,-0.0016272,0.0010934,-0.30912,-0.046423,-9.7696,0,0,44.767,1,1,8008,4004
8002,6.1724e+07,0,0.00086365,-0.001912,0.00059199,-0.3113,-0.047952,-9.7717,0,0,44.767,1,1,8008,4004
8007,6.1727e+07,0,0.001375,-0.0022298,0.0004443,-0.31368,-0.04984,-9.7741,0,0,44.767,1,1,8008,4004
8038,6.173e+07,0,0.0022032,-0.002227,0.00027227,-0.31484,-0.050963,-9.7729,0,0,44.767,1,1,8008,4004
8041,6.1732e+07,0,0.002206,-0.0016705,0.00024648,-0.31474,-0.051968,-9.7728,0,0,44.767,1,1,8008,4004
8044,6.1735e+07,0,0.0021645,-0.00062736,0.00039296,-0.31159,-0.051867,-9.7758,0,0,44.767,1,1,8008,4004
8047,6.1737e+07,0,0.0017295,-0.00056601,0.00069888,-0.31005,-0.050761,-9.778,0,0,44.767,1,1,8008,4004
8078,6.1741e+07,0,-0.00018202,-0.0011009,0.00088284,-0.31075,-0.046968,-9.7827,0,0,44.767,1,1,8008,4004
8081,6.1742e+07,0,-0.0011862,-0.0011059,0.0011988,-0.31212,-0.044632,-9.7852,0,0,44.767,1,1,8008,4004
8088,6.1746e+07,0,-0.00099457,-0.00090084,0.0018306,-0.3134,-0.040653,-9.7866,0,0,44.767,1,1,8008,4004
8094,6.1747e+07,0,6.4725e-05,4.46e-05,0.0017082,-0.31427,-0.038549,-9.7864,0,0,44.767,1,1,8008,4004
8125,6.175e+07,0,0.00053934,0.00041567,0.00037493,-0.3166,-0.039661,-9.7825,0,0,44.767,1,1,8008,4004
8128,6.1753e+07,0,0.00054793,0.00050342,0.00039408,-0.31847,-0.04145,-9.7797,0,0,44.767,1,1,8008,4004
8131,6.1755e+07,0,0.001359,0.00070885,-0.00071021,-0.32122,-0.04451,-9.7774,0,0,44.767,1,1,8008,4004
8134,6.1757e+07,0,0.0021785,0.00016155,-0.0012867,-0.32218,-0.046531,-9.7783,0,0,44.767,1,1,8008,4004
8165,6.1761e+07,0,0.0024232,-0.00037188,-0.0018995,-0.32244,-0.048933,-9.7804,0,0,44.767,1,1,8008,4004
8168,6.1763e+07,0,0.0022114,0.00029406,-0.0015098,-0.32124,-0.050219,-9.7829,0,0,44.767,1,1,8008,4004
8171,6.1765e+07,0,0.0004797,0.00072966,-0.00095788,-0.31977,-0.051311,-9.7871,0,0,44.767,1,1,8008,4004
8176,6.1767e+07,0,-0.00025715,0.0016399,0.0001523,-0.3193,-0.052266,-9.7898,0,0,44.767,1,1,8008,4004
8207,6.177e+07,0,-0.00068087,0.0018258,0.0001737,-0.31833,-0.052946,-9.7924,0,0,44.767,1,1,8008,4004
8210,6.1773e+07,0,-0.00069924,0.0013071,-0.00031453,-0.31727,-0.052571,-9.7916,0,0,44.767,1,1,8008,4004
8213,6.1775e+07,0,0.00025653,0.001129,-0.00015598,-0.3167,-0.052405,-9.7916,0,0,44.767,1,1,8008,4004
8216,6.1778e+07,0,-0.0003971,0.0012031,-8.0201e-05,-0.31763,-0.052654,-9.7937,0,0,44.767,1,1,8008,4004
8249,6.1781e+07,0,-0.0027489,0.00094906,0.00027286,-0.32045,-0.052019,-9.7938,0,0,44.767,1,1,8008,4004
8252,6.1785e+07,0,-0.0030831,0.00017928,0.0010505,-0.32196,-0.050953,-9.7906,0,0,44.767,1,1,8008,4004
8255,6.1786e+07,0,-0.0027951,0.00067174,0.0017192,-0.32399,-0.049815,-9.7875,0,0,44.767,1,1,8008,4004
8259,6.1789e+07,0,-0.0027891,0.0015737,0.00083294,-0.32548,-0.049159,-9.7871,0,0,44.767,1,1,8008,4004
8290,6.1792e+07,0,-0.0016939,0.0012109,0.00017664,-0.32805,-0.044348,-9.7876,0,0,44.767,1,1,8008,4004
8293,6.1795e+07,0,-0.001198,0.0011208,0.00053764,-0.32649,-0.041159,-9.7868,0,0,44.767,1,1,8008,4004
8296,6.1798e+07,0,-0.00056033,0.0017336,0.00045067,-0.32149,-0.037108,-9.7836,0,0,44.767,1,1,8008,4004
8300,6.18e+07,0,-0.00036952,0.0020433,0.00057677,-0.31827,-0.034765,-9.7813,0,0,44.767,1,1,8008,4004
8331,6.1802e+07,0,-0.00043573,0.0020112,0.00020615,-0.31554,-0.033199,-9.7773,0,0,44.767,1,1,8008,4004
8334,6.1805e+07,0,-0.0010545,0.0020849,-0.00043698,-0.31765,-0.0345,-9.7737,0,0,44.767,1,1,8008,4004
8337,6.1807e+07,0,-0.0012846,0.0023266,-0.00038,-0.3196,-0.03633,-9.7733,0,0,44.767,1,1,8008,4004
8340,6.181e+07,0,-0.001974,0.0021652,-0.00073016,-0.32063,-0.037476,-9.774,0,0,44.767,1,1,8008,4004
8371,6.1813e+07,0,-0.0025245,0.0022064,-0.00063049,-0.31957,-0.03756,-9.7739,0,0,44.767,1,1,8008,4004
8374,6.1816e+07,0,-0.0027358,0.0014981,-0.00044948,-0.31964,-0.036763,-9.7724,0,0,44.767,1,1,8008,4004
8377,6.1818e+07,0,-0.002516,0.00088827,-0.00048169,-0.32178,-0.035146,-9.7717,0,0,44.767,1,1,8008,4004
8381,6.182e+07,0,-0.0015355,4.6044e-05,-0.00074538,-0.3253,-0.032556,-9.7707,0,0,44.767,1,1,8008,4004
8413,6.1823e+07,0,-0.0013339,-0.00030153,-0.00071267,-0.32851,-0.031319,-9.7674,0,0,44.767,1,1,8008,4004
8416,6.1826e+07,0,-0.0014142,0.00086525,-0.00086647,-0.32989,-0.030511,-9.7667,0,0,44.767,1,1,8008,4004
8420,6.1828e+07,0,-0.00079391,0.0015168,-0.0012855,-0.33034,-0.028502,-9.7669,0,0,44.767,1,1,8008,4004
8424,6.183e+07,0,-0.00014608,0.00060053,-0.0010104,-0.32977,-0.026042,-9.7668,0,0,44.767,1,1,8008,4004
8455,6.1833e+07,0,-0.00055357,-0.00057509,-0.00039449,-0.3274,-0.026564,-9.7658,0,0,44.767,1,1,8008,4004
8458,6.1836e+07,0,-0.0011755,-0.0016195,-0.00011285,-0.32548,-0.028966,-9.7644,0,0,44.767,1,1,8008,4004
8461,6.1838e+07,0,-0.0013967,-0.0021536,0.00037079,-0.32323,-0.031294,-9.7638,0,0,44.767,1,1,8008,4004
8465,6.184e+07,0,-0.00015753,-0.0021267,0.0015663,-0.31907,-0.034497,-9.7664,0,0,44.767,1,1,8008,4004
8498,6.1843e+07,0,-0.00039226,-0.00084439,0.0015091,-0.3165,-0.036217,-9.769,0,0,44.767,1,1,8008,4004
8501,6.1845e+07,0,-0.00070766,-0.00070768,0.00091156,-0.31536,-0.038053,-9.772,0,0,44.767,1,1,8008,4004
8508,6.1849e+07,0,-0.00013529,-0.00039362,0.00066319,-0.315,-0.039251,-9.7761,0,0,44.767,1,1,8008,4004
8512,6.1851e+07,0,0.00032011,0.00012277,0.00020891,-0.31316,-0.040281,-9.7807,0,0,44.767,1,1,8008,4004
8543,6.1854e+07,0,-0.00023488,-0.00078647,0.00031484,-0.31044,-0.038787,-9.7835,0,0,44.767,1,1,8008,4004
8546,6.1856e+07,0,-0.00052117,-0.00072215,3.53e-05,-0.30924,-0.037248,-9.7843,0,0,44.767,1,1,8008,4004
8549,6.1858e+07,0,-0.00040341,-0.00034358,-0.00079358,-0.30867,-0.035922,-9.785,0,0,44.767,1,1,8008,4004
8552,6.1861e+07,0,0.00029236,-0.00095704,-0.00079974,-0.30825,-0.035392,-9.7848,0,0,44.767,1,1,8008,4004
8583,6.1863e+07,0,0.00075615,-0.00072284,-7.0271e-05,-0.30735,-0.034247,-9.7823,0,0,44.767,1,1,8008,4004
8586,6.1866e+07,0,0.0010306,-0.00011992,0.00023365,-0.30618,-0.032788,-9.7802,0,0,44.767,1,1,8008,4004
8589,6.1868e+07,0,0.00061545,0.00016241,0.00052841,-0.30504,-0.030697,-9.7761,0,0,44.767,1,1,8008,4004
8593,6.1871e+07,0,0.00099346,0.00041041,0.00053157,-0.3051,-0.030404,-9.7726,0,0,44.767,1,1,8008,4004
8624,6.1873e+07,0,0.001414,0.0010045,0.0014441,-0.30526,-0.031372,-9.7682,0,0,44.767,1,1,8008,4004
8627,6.1876e+07,0,0.00051573,0.0013295,0.0013614,-0.30585,-0.034362,-9.7688,0,0,44.767,1,1,8008,4004
8630,6.1879e+07,0,0.00010735,0.0013405,0.0010075,-0.30763,-0.037545,-9.7718,0,0,44.767,1,1,8008,4004
8633,6.1882e+07,0,4.6621e-06,0.0019944,0.0011994,-0.31147,-0.0418,-9.7752,0,0,44.767,1,1,8008,4004
8636,6.1884e+07,0,-0.00011093,0.0015648,0.00089671,-0.31483,-0.046649,-9.7733,0,0,44.767,1,1,8008,4004
8667,6.1886e+07,0,-0.00017509,0.0011642,0.00056194,-0.31659,-0.048539,-9.7718,0,0,44.767,1,1,8008,4004
8670,6.1889e+07,0,0.00010395,0.00091162,0.0010095,-0.31829,-0.049996,-9.773,0,0,44.767,1,1,8008,4004
8674,6.1892e+07,0,0.0010414,0.00063875,0.0018623,-0.31952,-0.049311,-9.777,0,0,44.767,1,1,8008,4004
8677,6.1894e+07,0,0.0016873,0.00036531,0.002341,-0.31921,-0.049113,-9.7774,0,0,44.766,1,1,8008,4004
8708,6.1897e+07,0,0.0025822,0.00065397,0.0021222,-0.31797,-0.049397,-9.7772,0,0,44.766,1,1,8008,4004
8711,6.19e+07,0,0.002817,0.0007531,0.0019907,-0.31795,-0.049082,-9.7784,0,0,44.766,1,1,8008,4004
8715,6.1902e+07,0,0.0028041,0.00077205,0.0014008,-0.31971,-0.046469,-9.7809,0,0,44.766,1,1,8008,4004
8718,6.1905e+07,0,0.0017472,0.00067171,0.00089594,-0.32008,-0.044501,-9.7815,0,0,44.766,1,1,8008,4004
8749,6.1907e+07,0,0.00038017,-0.00016438,0.00050375,-0.31773,-0.0436,-9.7813,0,0,44.766,1,1,8008,4004
8752,6.191e+07,0,0.0018686,-0.00029876,-4.6336e-06,-0.31261,-0.043602,-9.7804,0,0,44.766,1,1,8008,4004
8756,6.1913e+07,0,0.0022547,-0.00045277,-0.00019657,-0.30969,-0.043941,-9.7784,0,0,44.766,1,1,8008,4004
8759,6.1916e+07,0,0.0020108,-0.00019994,0.00010759,-0.30682,-0.046608,-9.7774,0,0,44.766,1,1,8008,4004
8762,6.1917e+07,0,0.0028972,0.00046389,0.00026521,-0.306,-0.049201,-9.777,0,0,44.766,1,1,8008,4004
8793,6.192e+07,0,0.0026647,0.0006469,0.00041471,-0.30715,-0.052305,-9.776,0,0,44.766,1,1,8008,4004
8797,6.1923e+07,0,0.0016651,0.00033123,-0.00035363,-0.30818,-0.053639,-9.7766,0,0,44.766,1,1,8008,4004
8800,6.1925e+07,0,0.00098409,-0.00027084,-0.00046366,-0.31006,-0.055855,-9.7773,0,0,44.766,1,1,8008,4004
8803,6.1928e+07,0,0.00085816,-0.00035505,0.00034261,-0.31246,-0.056218,-9.7768,0,0,44.766,1,1,8008,4004
8834,6.1931e+07,0,-0.00031729,-0.00045014,4.3437e-05,-0.31583,-0.054653,-9.7769,0,0,44.766,1,1,8008,4004
8837,6.1933e+07,0,-0.00073348,0.00014747,-0.00050496,-0.31711,-0.053659,-9.777,0,0,44.767,1,1,8008,4004
8841,6.1935e+07,0,-0.0013416,-0.0001431,-0.00083654,-0.31706,-0.05381,-9.7771,0,0,44.767,1,1,8008,4004
8845,6.1939e+07,0,-0.0016702,-0.0012368,-0.0013873,-0.31567,-0.055193,-9.7778,0,0,44.767,1,1,8008,4004
8876,6.1942e+07,0,-0.0012579,-0.0021017,-0.00067573,-0.31477,-0.05788,-9.7755,0,0,44.767,1,1,8008,4004
8880,6.1944e+07,0,-0.0014353,-0.0011722,-0.00032481,-0.31461,-0.059275,-9.7736,0,0,44.767,1,1,8008,4004
8883,6.1946e+07,0,-0.0012003,0.00041048,-0.0007215,-0.31261,-0.058481,-9.772,0,0,44.767,1,1,8008,4004
8886,6.1949e+07,0,-0.000963,0.000243,-0.0011173,-0.31057,-0.055954,-9.771,0,0,44.767,1,1,8008,4004
8921,6.1952e+07,0,-0.00044273,-0.00021183,-0.0014503,-0.31002,-0.051064,-9.7709,0,0,44.767,1,1,8008,4004
8924,6.1954e+07,0,-0.00037123,-0.00078725,-0.0020609,-0.31257,-0.047236,-9.7719,0,0,44.768,1,1,8008,4004
8927,6.1956e+07,0,-0.0005553,-0.0010554,-0.0018634,-0.31417,-0.045293,-9.7704,0,0,44.768,1,1,8008,4004
8930,6.1959e+07,0,-0.00094791,-0.00093216,-0.0015048,-0.31406,-0.044332,-9.7658,0,0,44.768,1,1,8008,4004
8961,6.1961e+07,0,-0.0013375,-0.00098579,-0.0011323,-0.31288,-0.043422,-9.7567,0,0,44.768,1,1,8008,4004
8965,6.1964e+07,0,-0.0014363,-0.0012456,-0.00063192,-0.3142,-0.042951,-9.7535,0,0,44.768,1,1,8008,4004
8968,6.1966e+07,0,-0.0016172,-0.00062484,-7.4609e-05,-0.31774,-0.042093,-9.7495,0,0,44.768,1,1,8008,4004
8971,6.1969e+07,0,-0.0024225,-0.0010391,-8.6884e-05,-0.31925,-0.042042,-9.7475,0,0,44.768,1,1,8008,4004
9002,6.1971e+07,0,-0.0035619,-0.0017725,0.00013485,-0.32036,-0.041906,-9.7454,0,0,44.768,1,1,8008,4004
9005,6.1973e+07,0,-0.0023873,-0.0018387,-0.00035955,-0.3209,-0.04232,-9.7475,0,0,44.769,1,1,8008,4004
9008,6.1977e+07,0,-0.0013894,-0.0014234,-0.00050004,-0.32238,-0.043821,-9.7527,0,0,44.769,1,1,8008,4004
9011,6.1979e+07,0,-0.0017401,-0.00083547,-0.00014627,-0.32315,-0.044377,-9.7541,0,0,44.769,1,1,8008,4004
9042,6.1981e+07,0,-0.0016473,-0.00048493,-0.0010789,-0.32417,-0.04384,-9.7552,0,0,44.769,1,1,8008,4004
9046,6.1984e+07,0,-0.0011904,-0.00052038,-0.0019553,-0.32482,-0.042951,-9.7567,0,0,44.769,1,1,8008,4004
9049,6.1986e+07,0,-0.00031591,-0.00078262,-0.002258,-0.32532,-0.040816,-9.7604,0,0,44.769,1,1,8008,4004
9052,6.1992e+07,0,-0.00017461,0.00064246,-6.1859e-05,-0.32525,-0.043154,-9.7687,0,0,44.769,1,1,8008,4004
9083,6.1994e+07,0,-0.00044144,-0.00022567,0.00095149,-0.32428,-0.043887,-9.7746,0,0,44.769,1,1,8008,4004
9087,6.1997e+07,0,-0.00032023,9.7241e-05,0.0007104,-0.32156,-0.041399,-9.7802,0,0,44.77,1,1,8008,4004
9091,6.2e+07,0,-0.00019018,0.0010137,0.00082065,-0.31967,-0.040297,-9.7821,0,0,44.77,1,1,8008,4004
9094,6.2003e+07,0,-0.0014468,0.0012811,0.0012026,-0.31978,-0.039468,-9.7807,0,0,44.77,1,1,8008,4004
9097,6.2005e+07,0,-0.002224,0.00038026,0.00083448,-0.32281,-0.041026,-9.7783,0,0,44.77,1,1,8008,4004
9128,6.2008e+07,0,-0.0024073,0.00011683,5.5262e-05,-0.32358,-0.042893,-9.776,0,0,44.77,1,1,8008,4004
9131,6.2011e+07,0,-0.0021024,-0.00011986,-4.9836e-05,-0.32408,-0.044502,-9.7724,0,0,44.77,1,1,8008,4004
9134,6.2013e+07,0,-0.0011608,-0.00045113,-0.00015795,-0.32514,-0.046256,-9.7701,0,0,44.77,1,1,8008,4004
9137,6.2015e+07,0,-9.7904e-05,-0.0015907,-0.00043972,-0.3267,-0.04811,-9.7666,0,0,44.77,1,1,8008,4004
9168,6.2018e+07,0,-0.00029593,-0.00081026,-0.00062331,-0.32668,-0.047655,-9.7625,0,0,44.77,1,1,8008,4004
9172,6.202e+07,0,-0.0010244,0.00028722,-0.00011327,-0.32567,-0.047205,-9.7584,0,0,44.77,1,1,8008,4004
9175,6.2023e+07,0,-0.00074659,0.0010217,0.00016548,-0.32414,-0.046659,-9.7561,0,0,44.77,1,1,8008,4004
9178,6.2026e+07,0,2.0667e-05,0.0017351,0.00013956,-0.32211,-0.045825,-9.7549,0,0,44.77,1,1,8008,4004
9211,6.2029e+07,0,0.00066399,0.0023237,-2.0049e-05,-0.31952,-0.044132,-9.7563,0,0,44.771,1,1,8008,4004
9214,6.2031e+07,0,0.0015881,0.0021651,-0.00049645,-0.31435,-0.041959,-9.7586,0,0,44.771,1,1,8008,4004
9217,6.2033e+07,0,0.0018738,0.0014234,-0.00035577,-0.31039,-0.040791,-9.7618,0,0,44.771,1,1,8008,4004
9221,6.2036e+07,0,0.0018164,0.00064503,0.00016692,-0.30706,-0.040254,-9.7679,0,0,44.771,1,1,8008,4004
9252,6.2039e+07,0,0.0017201,0.0004646,0.00091221,-0.30684,-0.03867,-9.7701,0,0,44.771,1,1,8008,4004
9256,6.2041e+07,0,0.00089835,0.00085128,0.00085412,-0.30743,-0.039266,-9.7707,0,0,44.771,1,1,8008,4004
9259,6.2044e+07,0,0.00037772,0.001585,5.2855e-05,-0.30886,-0.041394,-9.7694,0,0,44.771,1,1,8008,4004
9262,6.2046e+07,0,0.00062022,0.0020825,-0.00091126,-0.31011,-0.042703,-9.7685,0,0,44.771,1,1,8008,4004
9293,6.205e+07,0,0.0008468,0.0021075,-0.00097419,-0.31202,-0.043728,-9.7691,0,0,44.771,1,1,8008,4004
9297,6.2052e+07,0,0.001022,0.0012964,-0.00063782,-0.31456,-0.044603,-9.7698,0,0,44.771,1,1,8008,4004
9304,6.2054e+07,0,0.00086025,-0.00052978,-0.00099681,-0.32006,-0.046264,-9.7667,0,0,44.771,1,1,8008,4004
9307,6.2056e+07,0,0.00082592,-0.0010287,-0.0011223,-0.32121,-0.047737,-9.7639,0,0,44.771,1,1,8008,4004
9338,6.2059e+07,0,0.00077373,-0.00053688,1.1242e-05,-0.32058,-0.049697,-9.7611,0,0,44.771,1,1,8008,4004
9341,6.2061e+07,0,0.00048115,-0.00043477,0.00029449,-0.31946,-0.049892,-9.761,0,0,44.77,1,1,8008,4004
9344,6.2064e+07,0,0.00073381,-9.4075e-05,-0.00021749,-0.31787,-0.046643,-9.7636,0,0,44.77,1,1,8008,4004
9347,6.2067e+07,0,0.0010252,5.4093e-05,0.00064233,-0.31732,-0.044235,-9.7672,0,0,44.77,1,1,8008,4004
9378,6.2069e+07,0,0.00074651,0.00020376,0.0012569,-0.31641,-0.04234,-9.7737,0,0,44.771,1,1,8008,4004
9382,6.2072e+07,0,0.00064268,0.00024149,0.0010529,-0.3148,-0.041462,-9.7775,0,0,44.771,1,1,8008,4004
9385,6.2074e+07,0,0.00077326,0.00078141,0.0014375,-0.31226,-0.039141,-9.7814,0,0,44.771,1,1,8008,4004
9388,6.2077e+07,0,0.00057947,0.00044642,0.0016554,-0.3132,-0.037869,-9.781,0,0,44.771,1,1,8008,4004
9419,6.208e+07,0,-0.00031581,-0.00012101,0.0015665,-0.31556,-0.038888,-9.7782,0,0,44.771,1,1,8008,4004
9422,6.2082e+07,0,-0.00016651,-0.00068379,0.00052719,-0.31772,-0.041233,-9.7763,0,0,44.771,1,1,8008,4004
9425,6.2084e+07,0,0.00043718,-0.00035721,-0.0003122,-0.31866,-0.042254,-9.7747,0,0,44.771,1,1,8008,4004
9428,6.2087e+07,0,0.0011825,-0.00015655,0.00015971,-0.32089,-0.043491,-9.7721,0,0,44.771,1,1,8008,4004
9459,6.209e+07,0,0.001746,-0.00040944,0.00069448,-0.31968,-0.04499,-9.7702,0,0,44.771,1,1,8008,4004
9463,6.2094e+07,0,0.001086,0.00010014,0.00084109,-0.31699,-0.045665,-9.7691,0,0,44.77,1,1,8008,4004
9466,6.2095e+07,0,0.0010911,-0.0014273,0.0004644,-0.31141,-0.045268,-9.7659,0,0,44.77,1,1,8008,4004
9469,6.2098e+07,0,0.00081437,-0.0016771,-0.00011755,-0.30903,-0.042948,-9.7629,0,0,44.77,1,1,8008,4004
9500,6.2104e+07,0,0.00060267,0.00015137,-0.0016606,-0.30347,-0.037045,-9.7606,0,0,44.77,1,1,8008,4004
9503,6.2106e+07,0,0.00084967,5.2381e-05,-0.0012587,-0.30266,-0.035443,-9.7589,0,0,44.77,1,1,8008,4004
9506,6.2108e+07,0,0.00077084,0.00027993,0.00011183,-0.3021,-0.033998,-9.7557,0,0,44.771,1,1,8008,4004
9537,6.2111e+07,0,-0.0010186,0.0011157,0.00031038,-0.30337,-0.034929,-9.754,0,0,44.771,1,1,8008,4004
9540,6.2113e+07,0,-0.0013555,0.001398,0.00013921,-0.30578,-0.03683,-9.7543,0,0,44.771,1,1,8008,4004
9544,6.2116e+07,0,-0.0023331,0.0018165,0.00042282,-0.30738,-0.03916,-9.7532,0,0,44.771,1,1,8008,4004
9547,6.2119e+07,0,-0.0027705,0.00076357,0.0010033,-0.30876,-0.044276,-9.7511,0,0,44.771,1,1,8008,4004
9578,6.2121e+07,0,-0.0026955,0.00087147,0.0016036,-0.30932,-0.047742,-9.7538,0,0,44.771,1,1,8008,4004
9581,6.2124e+07,0,-0.0020862,0.0011042,0.0010451,-0.31062,-0.048396,-9.7547,0,0,44.771,1,1,8008,4004
9585,6.2126e+07,0,-0.00072637,0.0017332,-0.00027872,-0.31174,-0.045987,-9.7548,0,0,44.771,1,1,8008,4004
9589,6.2129e+07,0,-0.0004262,0.002065,-0.00044526,-0.31218,-0.043871,-9.7542,0,0,44.77,1,1,8008,4004
9620,6.2132e+07,0,-0.00069486,0.0010972,0.00069129,-0.31403,-0.043291,-9.7537,0,0,44.77,1,1,8008,4004
9623,6.2135e+07,0,-0.00025271,0.0005,0.00098304,-0.31744,-0.045971,-9.7548,0,0,44.77,1,1,8008,4004
9626,6.2137e+07,0,8.487e-05,0.00024978,0.00060459,-0.31862,-0.047737,-9.7549,0,0,44.77,1,1,8008,4004
9629,6.2139e+07,0,-0.00038019,0.0011928,0.00046019,-0.32001,-0.049816,-9.7557,0,0,44.771,1,1,8008,4004
9660,6.2142e+07,0,-0.0011112,0.0019081,0.00042177,-0.3193,-0.051506,-9.7595,0,0,44.771,1,1,8008,4004
9664,6.2144e+07,0,-0.0012238,0.0011927,0.00021409,-0.31739,-0.051424,-9.7626,0,0,44.771,1,1,8008,4004
9668,6.2147e+07,0,-0.00068172,0.00049306,1.6901e-05,-0.3159,-0.050062,-9.764,0,0,44.771,1,1,8008,4004
9671,6.2149e+07,0,-0.00021605,0.0002439,-1.4603e-06,-0.313,-0.04803,-9.7654,0,0,44.771,1,1,8008,4004
9702,6.2152e+07,0,-0.0010117,-0.00027781,0.00064393,-0.30989,-0.047624,-9.7678,0,0,44.771,1,1,8008,4004
9705,6.2154e+07,0,-0.0014457,3.8343e-05,0.00083522,-0.30897,-0.047762,-9.7698,0,0,44.771,1,1,8008,4004
9713,6.2158e+07,0,-0.002077,0.0012293,0.0016557,-0.30865,-0.046154,-9.773,0,0,44.771,1,1,8008,4004
9716,6.216e+07,0,-0.0019623,0.0012038,0.0021133,-0.30989,-0.0453,-9.7735,0,0,44.771,1,1,8008,4004
9747,6.2162e+07,0,-0.0010269,0.00098602,0.00096215,-0.31305,-0.044153,-9.7741,0,0,44.771,1,1,8008,4004
9750,6.2165e+07,0,-0.00049135,0.00090853,0.000255,-0.31537,-0.04407,-9.7745,0,0,44.771,1,1,8008,4004
9754,6.2167e+07,0,8.5226e-05,0.00078421,-0.00045493,-0.31817,-0.044879,-9.7757,0,0,44.77,1,1,8008,4004
9757,6.217e+07,0,0.0011358,0.00078957,-5.3004e-05,-0.31923,-0.044315,-9.7757,0,0,44.77,1,1,8008,4004
9788,6.2173e+07,0,0.0013765,0.00096377,0.00054912,-0.31973,-0.042912,-9.7768,0,0,44.77,1,1,8008,4004
9792,6.2175e+07,0,-0.0001178,0.00024757,0.00059704,-0.31953,-0.043517,-9.7794,0,0,44.77,1,1,8008,4004
9796,6.2178e+07,0,-0.00074426,-0.00023292,0.0009937,-0.31833,-0.043969,-9.7794,0,0,44.77,1,1,8008,4004
9799,6.2181e+07,0,-0.00039126,-0.00072713,0.00079441,-0.3149,-0.042672,-9.7778,0,0,44.77,1,1,8008,4004
9830,6.2183e+07,0,0.00052055,-0.0013566,0.00049717,-0.31339,-0.038801,-9.7786,0,0,44.77,1,1,8008,4004
9833,6.2186e+07,0,8.896e-05,-0.001616,-0.00019228,-0.31277,-0.037243,-9.7796,0,0,44.77,1,1,8008,4004
9836,6.2188e+07,0,-0.0008409,-0.0012975,-0.00020235,-0.31385,-0.037217,-9.781,0,0,44.771,1,1,8008,4004
9839,6.2191e+07,0,-0.00088385,-0.00092423,0.00033012,-0.31503,-0.03762,-9.7817,0,0,44.771,1,1,8008,4004
9870,6.2194e+07,0,0.00034518,-0.00050321,0.00037479,-0.31684,-0.037949,-9.7824,0,0,44.771,1,1,8008,4004
9873,6.2197e+07,0,0.00078964,-0.00065918,0.00034809,-0.31735,-0.039374,-9.7806,0,0,44.771,1,1,8008,4004
9877,6.2199e+07,0,0.0010487,-0.00095674,-0.00023264,-0.31957,-0.038431,-9.7811,0,0,44.771,1,1,8008,4004
9880,6.2201e+07,0,0.0013524,-0.0011737,-0.00097387,-0.32101,-0.037786,-9.7837,0,0,44.771,1,1,8008,4004
9911,6.2204e+07,0,0.00036071,-0.00041267,-0.0011464,-0.32295,-0.036335,-9.7871,0,0,44.771,1,1,8008,4004
9914,6.2207e+07,0,0.00022277,0.00099503,-0.00042987,-0.32258,-0.035809,-9.7881,0,0,44.771,1,1,8008,4004
9917,6.2209e+07,0,0.00014125,0.0016247,0.00024645,-0.32082,-0.035021,-9.7906,0,0,44.771,1,1,8008,4004
9920,6.2211e+07,0,-0.00019768,0.0016371,0.00052581,-0.31869,-0.034962,-9.7902,0,0,44.77,1,1,8008,4004
9951,6.2214e+07,0,7.2513e-05,0.0013175,0.00086647,-0.3182,-0.035091,-9.7891,0,0,44.77,1,1,8008,4004
9954,6.2217e+07,0,0.00094177,0.00040074,0.00079439,-0.31608,-0.0357,-9.7867,0,0,44.77,1,1,8008,4004
9958,6.2219e+07,0,0.0015859,0.00086409,0.00057222,-0.31693,-0.037097,-9.7856,0,0,44.77,1,1,8008,4004
9961,6.2221e+07,0,0.0019657,0.0014757,0.0002967,-0.31843,-0.037924,-9.7824,0,0,44.77,1,1,8008,4004
9992,6.2224e+07,0,0.0021075,0.0020938,9.7797e-05,-0.31901,-0.038554,-9.7797,0,0,44.77,1,1,8008,4004
9995,6.2226e+07,0,0.0017341,0.0020108,-0.00014028,-0.31781,-0.038852,-9.7763,0,0,44.77,1,1,8008,4004
9999,6.2229e+07,0,0.0013728,0.002155,-0.00050932,-0.3161,-0.03965,-9.7726,0,0,44.77,1,1,8008,4004
10002,6.2231e+07,0,0.0017318,0.0019048,-0.00033648,-0.31547,-0.043978,-9.7659,0,0,44.77,1,1,8008,4004
10035,6.2234e+07,0,0.0014599,0.00086299,-3.5419e-05,-0.31675,-0.045813,-9.763,0,0,44.77,1,1,8008,4004
10038,6.2236e+07,0,0.0016842,0.00019412,-0.00092873,-0.31766,-0.046552,-9.7604,0,0,44.77,1,1,8008,4004
10041,6.2239e+07,0,0.0022015,-0.00013138,-0.0016372,-0.31776,-0.046831,-9.758,0,0,44.77,1,1,8008,4004
10044,6.2242e+07,0,0.0027013,0.00049557,-0.0015638,-0.31735,-0.045439,-9.7551,0,0,44.77,1,1,8008,4004
10075,6.2244e+07,0,0.0021744,0.00099544,-0.00077656,-0.31714,-0.045615,-9.7511,0,0,44.77,1,1,8008,4004
10078,6.2247e+07,0,0.0017577,0.0012081,-0.00057443,-0.31841,-0.046868,-9.7498,0,0,44.77,1,1,8008,4004
10082,6.2249e+07,0,0.0013532,0.00037379,-2.3017e-05,-0.31961,-0.048282,-9.7508,0,0,44.769,1,1,8008,4004
10086,6.2252e+07,0,0.0016531,0.00080067,0.0003081,-0.31971,-0.048554,-9.7533,0,0,44.769,1,1,8008,4004
10117,6.2255e+07,0,0.0013525,0.0022046,0.00099077,-0.31877,-0.048778,-9.7598,0,0,44.769,1,1,8008,4004
10120,6.2257e+07,0,0.00093418,0.0025952,0.00058378,-0.3186,-0.049305,-9.7624,0,0,44.769,1,1,8008,4004
10127,6.2259e+07,0,0.0011278,0.0023258,0.00050505,-0.31727,-0.050898,-9.7647,0,0,44.769,1,1,8008,4004
10130,6.2262e+07,0,0.001284,0.0014453,9.9041e-05,-0.31691,-0.051369,-9.7646,0,0,44.769,1,1,8008,4004
10161,6.2264e+07,0,0.00045148,0.00058785,-0.00054499,-0.31738,-0.051513,-9.7589,0,0,44.769,1,1,8008,4004
10164,6.2267e+07,0,-0.00092187,-5.009e-05,-0.00080474,-0.31719,-0.051986,-9.7547,0,0,44.769,1,1,8008,4004
10168,6.227e+07,0,-0.0015461,-0.00026428,-0.0014893,-0.3161,-0.053757,-9.7507,0,0,44.769,1,1,8008,4004
10171,6.2272e+07,0,-0.00091152,0.00058643,-0.0019989,-0.31617,-0.055531,-9.7502,0,0,44.769,1,1,8008,4004
10204,6.2274e+07,0,0.00048164,9.805e-05,-0.002226,-0.31839,-0.05958,-9.7518,0,0,44.769,1,1,8008,4004
10207,6.2277e+07,0,0.00036835,-0.00070508,-0.001702,-0.31957,-0.060436,-9.7524,0,0,44.769,1,1,8008,4004
10210,6.228e+07,0,-0.00014068,-0.00083952,-0.00079159,-0.32103,-0.060189,-9.7537,0,0,44.769,1,1,8008,4004
10213,6.2282e+07,0,0.00041594,-0.00085961,-0.00059722,-0.3219,-0.060198,-9.7559,0,0,44.769,1,1,8008,4004
10244,6.2284e+07,0,0.0010959,-0.000747,9.0205e-05,-0.32332,-0.059414,-9.759,0,0,44.769,1,1,8008,4004
10247,6.2287e+07,0,0.00071598,-0.00064989,0.00073971,-0.32374,-0.059183,-9.7608,0,0,44.769,1,1,8008,4004
10251,6.2289e+07,0,-0.00061026,-0.00016263,0.0006628,-0.32306,-0.059966,-9.7637,0,0,44.769,1,1,8008,4004
10254,6.2292e+07,0,-0.00072725,0.00024417,-4.1558e-05,-0.3216,-0.059467,-9.7672,0,0,44.769,1,1,8008,4004
10285,6.2296e+07,0,0.00015014,0.00077414,-0.00011337,-0.3201,-0.059408,-9.7714,0,0,44.768,1,1,8008,4004
10288,6.2297e+07,0,-0.00032578,0.00086149,0.001406,-0.31911,-0.06106,-9.771,0,0,44.768,1,1,8008,4004
10292,6.23e+07,0,-0.001433,0.00069157,0.0018189,-0.31953,-0.060833,-9.7713,0,0,44.768,1,1,8008,4004
10295,6.2306e+07,0,-0.0018386,0.0012354,0.001056,-0.32023,-0.061769,-9.7842,0,0,44.768,1,1,8008,4004
10326,6.2308e+07,0,-0.0019764,0.00020022,0.0011071,-0.32021,-0.061607,-9.7813,0,0,44.768,1,1,8008,4004
10329,6.2311e+07,0,-0.0019163,-0.00035892,0.0014916,-0.31986,-0.061301,-9.7781,0,0,44.768,1,1,8008,4004
10332,6.2314e+07,0,-0.0019863,-0.00084582,0.00086677,-0.31763,-0.060903,-9.7751,0,0,44.768,1,1,8008,4004
10335,6.2316e+07,0,-0.0016488,-0.00068049,8.9864e-05,-0.31485,-0.060314,-9.7732,0,0,44.768,1,1,8008,4004
10366,6.2319e+07,0,-0.0011088,0.00045818,-0.00045634,-0.30867,-0.05785,-9.7703,0,0,44.768,1,1,8008,4004
10370,6.2321e+07,0,-0.00099172,0.00090682,-0.00012945,-0.30464,-0.054955,-9.7687,0,0,44.768,1,1,8008,4004
10373,6.2324e+07,0,-0.00093628,0.0010544,0.00014901,-0.30121,-0.050649,-9.7657,0,0,44.768,1,1,8008,4004
10376,6.2326e+07,0,-0.00043309,0.00064456,9.8889e-05,-0.30183,-0.047346,-9.7639,0,0,44.768,1,1,8008,4004
10407,6.2329e+07,0,-0.00077861,-0.00040449,-0.00060736,-0.30563,-0.042773,-9.7628,0,0,44.768,1,1,8008,4004
10410,6.2332e+07,0,-0.00067137,-0.00078837,0.00022321,-0.30617,-0.03855,-9.7624,0,0,44.768,1,1,8008,4004
10413,6.2334e+07,0,-0.00093165,-0.0014028,0.0011726,-0.30657,-0.03755,-9.7609,0,0,44.768,1,1,8008,4004
10416,6.2337e+07,0,-0.0016113,-0.0012333,0.00045798,-0.30811,-0.038167,-9.7595,0,0,44.768,1,1,8008,4004
10447,6.2339e+07,0,-0.0020613,-0.00076902,-0.0013006,-0.31018,-0.039653,-9.7599,0,0,44.768,1,1,8008,4004
10451,6.2342e+07,0,-0.0021801,-0.00058646,-0.0017054,-0.31206,-0.040652,-9.7616,0,0,44.768,1,1,8008,4004
10454,6.2344e+07,0,-0.0020103,0.00014373,-0.0020231,-0.31424,-0.042353,-9.7653,0,0,44.768,1,1,8008,4004
10457,6.2347e+07,0,-0.0011723,0.00053045,-0.0014904,-0.31567,-0.044107,-9.7688,0,0,44.768,1,1,8008,4004
10488,6.235e+07,0,-0.0006439,0.00039428,-0.000967,-0.31639,-0.048647,-9.7732,0,0,44.768,1,1,8008,4004
10491,6.2351e+07,0,-0.0011362,-0.00054455,-0.00041772,-0.31591,-0.052151,-9.7763,0,0,44.768,1,1,8008,4004
10494,6.2354e+07,0,-0.0011224,-0.0011296,0.00075386,-0.31726,-0.055582,-9.778,0,0,44.768,1,1,8008,4004
10497,6.2357e+07,0,-0.00039569,-0.00065845,0.00049435,-0.31858,-0.055726,-9.7779,0,0,44.768,1,1,8008,4004
10528,6.2359e+07,0,-0.00034371,0.00032396,-0.00016726,-0.31831,-0.05369,-9.7764,0,0,44.768,1,1,8008,4004
10536,6.2362e+07,0,3.8123e-05,0.0011114,-0.00037225,-0.3175,-0.051692,-9.7771,0,0,44.768,1,1,8008,4004
10539,6.2364e+07,0,0.0010662,0.0016549,-0.00051201,-0.31628,-0.049134,-9.7804,0,0,44.768,1,1,8008,4004
10542,6.2367e+07,0,0.001219,0.0010915,-0.00047495,-0.31575,-0.048845,-9.7818,0,0,44.768,1,1,8008,4004
10551,6.2388e+07,0,-0.0011183,0.00092584,0.0016336,-0.31028,-0.037151,-9.7605,0,0,44.768,1,1,8008,4004
10582,6.239e+07,0,-0.00094051,0.0010224,0.001199,-0.30976,-0.033652,-9.7595,0,0,44.768,1,1,8008,4004
10587,6.2393e+07,0,-0.00018734,0.00080585,0.00070494,-0.30972,-0.032836,-9.7618,0,0,44.768,1,1,8008,4004
10590,6.2395e+07,0,0.0012737,0.00074012,0.0006168,-0.31009,-0.033316,-9.7636,0,0,44.768,1,1,8008,4004
10593,6.2399e+07,0,0.0019735,0.00021051,0.00057523,-0.31086,-0.034022,-9.7646,0,0,44.768,1,1,8008,4004
10596,6.24e+07,0,0.0017992,-0.0010459,0.00042065,-0.31151,-0.036096,-9.7689,0,0,44.768,1,1,8008,4004
10627,6.2403e+07,0,0.0010839,-0.0011148,0.00050536,-0.31263,-0.037055,-9.7741,0,0,44.768,1,1,8008,4004
10630,6.2405e+07,0,0.0015965,-0.0015402,0.00049506,-0.31295,-0.037968,-9.7774,0,0,44.768,1,1,8008,4004
10633,6.2409e+07,0,0.0015323,-0.0016306,-0.00048104,-0.31234,-0.040982,-9.7796,0,0,44.768,1,1,8008,4004
10636,6.241e+07,0,0.0010774,-0.0015152,-0.0010151,-0.31453,-0.042991,-9.779,0,0,44.768,1,1,8008,4004
10667,6.2416e+07,0,0.00012247,-0.00099546,8.4394e-05,-0.32264,-0.047015,-9.7788,0,0,44.768,1,1,8008,4004
10671,6.2418e+07,0,0.00087123,-0.00072653,0.00076287,-0.32341,-0.047993,-9.7813,0,0,44.768,1,1,8008,4004
10674,6.2421e+07,0,0.0024224,-0.00069576,0.00029793,-0.32288,-0.048089,-9.7803,0,0,44.768,1,1,8008,4004
10705,6.2424e+07,0,0.0021298,-0.00079583,0.00050814,-0.32269,-0.048225,-9.7787,0,0,44.768,1,1,8008,4004
10708,6.2426e+07,0,0.0016884,-0.00057731,0.00067192,-0.3222,-0.049572,-9.7788,0,0,44.768,1,1,8008,4004
10712,6.2429e+07,0,0.00097358,-0.00048132,0.00076241,-0.32056,-0.052326,-9.7779,0,0,44.768,1,1,8008,4004
10715,6.2431e+07,0,0.00070901,7.4993e-05,0.00058433,-0.31811,-0.053967,-9.7764,0,0,44.768,1,1,8008,4004
10746,6.2435e+07,0,0.0014191,0.00027715,0.00036301,-0.31669,-0.054806,-9.7753,0,0,44.768,1,1,8008,4004
10749,6.2437e+07,0,0.0019471,0.00048993,0.00017516,-0.31736,-0.053288,-9.7744,0,0,44.768,1,1,8008,4004
10754,6.2439e+07,0,0.0014193,0.00064935,-0.00065707,-0.31866,-0.051001,-9.7726,0,0,44.769,1,1,8008,4004
10757,6.2441e+07,0,0.00055213,-0.00018203,-0.00063616,-0.31988,-0.050953,-9.7709,0,0,44.769,1,1,8008,4004
10788,6.2444e+07,0,0.00047495,-0.00087668,-0.00070208,-0.32243,-0.052333,-9.7654,0,0,44.769,1,1,8008,4004
10791,6.2447e+07,0,0.00072343,-0.0007623,-0.00046778,-0.32415,-0.053493,-9.7612,0,0,44.769,1,1,8008,4004
10795,6.2449e+07,0,0.00063474,-0.0014474,-0.00097692,-0.32724,-0.054021,-9.7575,0,0,44.768,1,1,8008,4004
10798,6.2451e+07,0,0.00033241,-0.0016801,-0.0013763,-0.32924,-0.053239,-9.7589,0,0,44.768,1,1,8008,4004
10829,6.2454e+07,0,-0.00040414,-0.0014501,-5.8861e-05,-0.3306,-0.051769,-9.7638,0,0,44.768,1,1,8008,4004
10832,6.2457e+07,0,-0.00081748,-0.0012381,0.00036827,-0.33105,-0.052151,-9.7669,0,0,44.768,1,1,8008,4004
10835,6.2459e+07,0,-0.00088354,-0.0007029,0.00073309,-0.33127,-0.054127,-9.773,0,0,44.768,1,1,8008,4004
10838,6.2462e+07,0,-0.00030897,-0.00045543,0.0013313,-0.33028,-0.055048,-9.778,0,0,44.768,1,1,8008,4004
10873,6.2464e+07,0,-0.0014274,-0.00010388,0.0013868,-0.32755,-0.056217,-9.7805,0,0,44.768,1,1,8008,4004
10876,6.2467e+07,0,-0.0029796,0.00052996,0.00095093,-0.32389,-0.058675,-9.779,0,0,44.768,1,1,8008,4004
10880,6.2469e+07,0,-0.0033607,0.0011524,0.0010656,-0.32117,-0.059776,-9.7798,0,0,44.768,1,1,8008,4004
10883,6.2472e+07,0,-0.0028051,0.001765,0.0012463,-0.31959,-0.060353,-9.7798,0,0,44.768,1,1,8008,4004
10914,6.2475e+07,0,-0.0010957,0.0017696,0.0013397,-0.31907,-0.060887,-9.7762,0,0,44.768,1,1,8008,4004
10917,6.2477e+07,0,-0.0003062,0.0022534,0.00075809,-0.31764,-0.060195,-9.7734,0,0,44.768,1,1,8008,4004
10921,6.248e+07,0,-0.000454,0.0022776,0.00058785,-0.31568,-0.06015,-9.7711,0,0,44.768,1,1,8008,4004
10924,6.2482e+07,0,-0.00030385,0.0017297,0.00088009,-0.31332,-0.05813,-9.7669,0,0,44.769,1,1,8008,4004
10955,6.2485e+07,0,-0.00023619,0.00087665,0.0009343,-0.31251,-0.053004,-9.7611,0,0,44.769,1,1,8008,4004
10958,6.2487e+07,0,-0.00042256,0.00078521,-0.00014621,-0.31348,-0.049628,-9.759,0,0,44.769,1,1,8008,4004
10962,6.249e+07,0,-0.00066369,0.0020323,-0.0017643,-0.31427,-0.046301,-9.7607,0,0,44.769,1,1,8008,4004
10965,6.2492e+07,0,-0.0010533,0.0026021,-0.0014883,-0.31456,-0.044663,-9.7636,0,0,44.769,1,1,8008,4004
10996,6.2495e+07,0,-0.0012238,0.0026451,-0.00050071,-0.31764,-0.043839,-9.7667,0,0,44.769,1,1,8008,4004
10999,6.2498e+07,0,-0.00070169,0.0022043,-8.6131e-05,-0.32042,-0.044256,-9.7693,0,0,44.769,1,1,8008,4004
11004,6.25e+07,0,-0.00078621,0.0010252,0.0007719,-0.32317,-0.043363,-9.7737,0,0,44.769,1,1,8008,4004
11007,6.2503e+07,0,-0.0014649,0.00063304,0.0002881,-0.32342,-0.04144,-9.776,0,0,44.769,1,1,8008,4004
11038,6.2505e+07,0,-0.0028969,-2.5362e-05,-0.00050657,-0.32093,-0.041206,-9.7778,0,0,44.77,1,1,8008,4004
11041,6.2513e+07,0,0.00087932,0.00097018,-0.00074018,-0.32046,-0.043165,-9.7768,0,0,44.77,1,1,8008,4004
11073,6.2516e+07,0,0.0011878,0.001086,-0.00011485,-0.32209,-0.039768,-9.7775,0,0,44.77,1,1,8008,4004
11076,6.2518e+07,0,0.0010146,0.00062937,-0.00011011,-0.32303,-0.036026,-9.782,0,0,44.77,1,1,8008,4004
11079,6.2521e+07,0,0.00057881,0.00010403,-0.00014293,-0.3243,-0.032588,-9.7864,0,0,44.77,1,1,8008,4004
11082,6.2524e+07,0,2.3483e-05,0.00041714,-0.00027625,-0.32615,-0.029644,-9.7877,0,0,44.77,1,1,8008,4004
11113,6.2526e+07,0,-0.00025788,0.0012448,-0.0015433,-0.32672,-0.030562,-9.7883,0,0,44.771,1,1,8008,4004
11116,6.253e+07,0,0.00035313,0.00053426,-0.0021289,-0.32708,-0.031964,-9.7923,0,0,44.771,1,1,8008,4004
11119,6.2531e+07,0,0.0004628,0.00020616,-0.0022312,-0.32707,-0.030811,-9.7947,0,0,44.771,1,1,8008,4004
11122,6.2534e+07,0,0.00032306,-3.8301e-05,-0.0020258,-0.32497,-0.028942,-9.7958,0,0,44.771,1,1,8008,4004
11153,6.2537e+07,0,0.00026858,0.0004051,-0.0010833,-0.32262,-0.029396,-9.793,0,0,44.771,1,1,8008,4004
11157,6.2539e+07,0,-2.6892e-05,0.00085346,-0.00062069,-0.32313,-0.031705,-9.7923,0,0,44.772,1,1,8008,4004
11160,6.2542e+07,0,0.00068771,0.0005155,0.00086909,-0.32542,-0.037194,-9.7916,0,0,44.772,1,1,8008,4004
11163,6.2545e+07,0,0.001,0.00055351,0.0016897,-0.32695,-0.041085,-9.7906,0,0,44.772,1,1,8008,4004
11194,6.2547e+07,0,0.00034579,0.0007803,0.0011412,-0.32799,-0.047237,-9.7888,0,0,44.772,1,1,8008,4004
11197,6.255e+07,0,0.00057135,0.00083798,0.00041631,-0.32812,-0.049559,-9.7872,0,0,44.772,1,1,8008,4004
11201,6.2552e+07,0,0.0016992,0.00069515,0.00030041,-0.32738,-0.053301,-9.783,0,0,44.772,1,1,8008,4004
11204,6.2555e+07,0,0.0024044,0.00029738,0.00022167,-0.32587,-0.056799,-9.7785,0,0,44.773,1,1,8008,4004
11235,6.2557e+07,0,0.0023239,-0.00038295,0.00063557,-0.3222,-0.059987,-9.7714,0,0,44.773,1,1,8008,4004
11239,6.256e+07,0,0.00097205,-0.0015233,0.0014161,-0.31689,-0.059607,-9.766,0,0,44.773,1,1,8008,4004
11242,6.2562e+07,0,0.00082896,-0.0016928,0.0017719,-0.31416,-0.058246,-9.7634,0,0,44.773,1,1,8008,4004
11245,6.2565e+07,0,0.0014536,-0.00092676,0.00052118,-0.311,-0.055782,-9.7618,0,0,44.774,1,1,8008,4004
11280,6.2568e+07,0,0.0012882,0.00033971,-0.00068241,-0.30952,-0.054894,-9.7668,0,0,44.774,1,1,8008,4004
11283,6.2571e+07,0,0.0010814,0.0013455,-0.001136,-0.31017,-0.0537,-9.7715,0,0,44.774,1,1,8008,4004
11286,6.2573e+07,0,0.0012401,0.0011709,-0.0018131,-0.31238,-0.051952,-9.776,0,0,44.775,1,1,8008,4004
11290,6.2576e+07,0,0.0015344,0.00076552,-0.0014849,-0.31338,-0.052398,-9.7788,0,0,44.775,1,1,8008,4004
11321,6.2578e+07,0,0.0026489,0.00077091,-3.352e-05,-0.31593,-0.053053,-9.7849,0,0,44.775,1,1,8008,4004
11325,6.2581e+07,0,0.0022886,0.00014071,0.00028297,-0.3162,-0.052797,-9.7897,0,0,44.775,1,1,8008,4004
11328,6.2583e+07,0,0.0017847,-0.00074408,0.00014428,-0.31538,-0.051149,-9.7936,0,0,44.776,1,1,8008,4004
11331,6.2586e+07,0,0.0012395,-0.00088206,0.00018386,-0.31556,-0.049746,-9.7974,0,0,44.776,1,1,8008,4004
11362,6.2588e+07,0,0.00097724,-0.00091325,0.00026483,-0.31609,-0.049764,-9.7991,0,0,44.776,1,1,8008,4004
11366,6.2591e+07,0,0.00041683,0.00032772,0.00047416,-0.31749,-0.0523,-9.7987,0,0,44.777,1,1,8008,4004
11369,6.2594e+07,0,0.00023803,0.00078328,0.00064803,-0.31969,-0.056186,-9.7963,0,0,44.777,1,1,8008,4004
11374,6.2596e+07,0,-0.0010028,0.00052095,0.0010972,-0.32133,-0.058298,-9.792,0,0,44.777,1,1,8008,4004
11405,6.2598e+07,0,-0.0014802,0.00059854,0.0017701,-0.32148,-0.058265,-9.7883,0,0,44.778,1,1,8008,4004
11408,6.2601e+07,0,-0.00093797,0.00065961,0.0024443,-0.31957,-0.057196,-9.7831,0,0,44.778,1,1,8008,4004
11411,6.2604e+07,0,-0.000768,0.00094253,0.0022077,-0.3176,-0.056311,-9.7822,0,0,44.778,1,1,8008,4004
11414,6.2607e+07,0,-0.0011581,0.00078664,0.0012678,-0.31659,-0.0547,-9.7822,0,0,44.779,1,1,8008,4004
11417,6.2611e+07,0,-0.0007264,0.00018807,0.00047919,-0.31255,-0.050831,-9.7821,0,0,44.779,1,1,8008,4004
11449,6.2614e+07,0,-0.0017612,0.0010881,0.00034419,-0.30955,-0.050375,-9.7785,0,0,44.779,1,1,8008,4004
11452,6.2617e+07,0,-0.0025371,0.0019976,0.00017407,-0.30984,-0.052602,-9.778,0,0,44.779,1,1,8008,4004
11455,6.262e+07,0,-0.0033111,0.0027828,0.00037661,-0.31163,-0.052978,-9.7767,0,0,44.78,1,1,8008,4004
11458,6.2622e+07,0,-0.0032194,0.002783,-0.0001027,-0.31227,-0.050758,-9.7765,0,0,44.78,1,1,8008,4004
11491,6.2625e+07,0,-0.0021639,0.0023721,-0.001389,-0.31355,-0.046748,-9.7758,0,0,44.78,1,1,8008,4004
11495,6.2627e+07,0,-0.0016737,0.0009069,-0.0010642,-0.31415,-0.043519,-9.7753,0,0,44.78,1,1,8008,4004
11498,6.263e+07,0,-0.0011753,0.00039696,-0.00082861,-0.3143,-0.043499,-9.7752,0,0,44.78,1,1,8008,4004
11501,6.2632e+07,0,-0.000707,-0.00026927,0.0006152,-0.31444,-0.045252,-9.7763,0,0,44.781,1,1,8008,4004
11532,6.2635e+07,0,-0.00102,-0.0009205,0.0013194,-0.3124,-0.045171,-9.7769,0,0,44.781,1,1,8008,4004
11535,6.2637e+07,0,-0.00060717,-0.00056899,0.00084994,-0.30994,-0.04438,-9.7753,0,0,44.781,1,1,8008,4004
11538,6.264e+07,0,-0.0011673,-0.00052422,-0.00014175,-0.30879,-0.044688,-9.7727,0,0,44.781,1,1,8008,4004
11541,6.2642e+07,0,-0.0026198,2.6803e-05,-0.0012854,-0.30888,-0.04627,-9.7719,0,0,44.781,1,1,8008,4004
11572,6.2645e+07,0,-0.0025671,0.00029903,-0.0014694,-0.30822,-0.046772,-9.7728,0,0,44.781,1,1,8008,4004
11576,6.2648e+07,0,-0.0026957,0.00079373,-0.00092381,-0.30825,-0.047463,-9.7704,0,0,44.782,1,1,8008,4004
11579,6.265e+07,0,-0.0025398,5.2601e-05,0.00044719,-0.30847,-0.0473,-9.769,0,0,44.782,1,1,8008,4004
11582,6.2652e+07,0,-0.0025578,-0.0013043,0.0013566,-0.30953,-0.046276,-9.768,0,0,44.782,1,1,8008,4004
11613,6.2654e+07,0,-0.0030891,-0.0019675,0.0016189,-0.31143,-0.045997,-9.7683,0,0,44.782,1,1,8008,4004
11616,6.2658e+07,0,-0.0032759,-0.0023035,0.00245,-0.31415,-0.046489,-9.7672,0,0,44.782,1,1,8008,4004
11619,6.266e+07,0,-0.0029111,-0.0021192,0.0024644,-0.31464,-0.046816,-9.7641,0,0,44.782,1,1,8008,4004
11622,6.2662e+07,0,-0.0028502,-0.0014834,0.00073706,-0.31304,-0.045212,-9.7646,0,0,44.782,1,1,8008,4004
11653,6.2665e+07,0,-0.0017701,-0.0009084,-6.9596e-06,-0.31158,-0.040992,-9.7702,0,0,44.782,1,1,8008,4004
11657,6.2667e+07,0,-0.00077865,-0.00099004,0.00021161,-0.31124,-0.03796,-9.7744,0,0,44.782,1,1,8008,4004
11664,6.267e+07,0,0.00023173,-0.00043769,4.9115e-05,-0.31124,-0.035249,-9.78,0,0,44.783,1,1,8008,4004
11667,6.2672e+07,0,0.0018966,-0.00014025,-0.00040642,-0.31148,-0.031652,-9.7904,0,0,44.783,1,1,8008,4004
11698,6.2675e+07,0,0.0024336,-0.00054045,-2.429e-05,-0.31102,-0.029487,-9.7966,0,0,44.783,1,1,8008,4004
11701,6.2677e+07,0,0.0014976,-0.00079885,-0.00081577,-0.30892,-0.026715,-9.8007,0,0,44.783,1,1,8008,4004
11704,6.268e+07,0,0.00099264,-0.00037318,-0.0011859,-0.30648,-0.026452,-9.7998,0,0,44.783,1,1,8008,4004
11708,6.2683e+07,0,0.00086634,0.00063037,-0.0011349,-0.30466,-0.028254,-9.7971,0,0,44.783,1,1,8008,4004
11739,6.2686e+07,0,0.00078228,0.00030051,-0.00097707,-0.30422,-0.029648,-9.7925,0,0,44.784,1,1,8008,4004
11743,6.2688e+07,0,0.00058301,-0.00071681,-0.0006013,-0.30498,-0.030612,-9.7879,0,0,44.784,1,1,8008,4004
11746,6.269e+07,0,0.00036636,-0.0015532,-1.6316e-05,-0.30947,-0.033943,-9.7836,0,0,44.784,1,1,8008,4004
11749,6.2693e+07,0,9.0521e-05,-0.0010916,-0.00024026,-0.31257,-0.03573,-9.7824,0,0,44.784,1,1,8008,4004
11780,6.2696e+07,0,0.00052499,-0.00080809,-0.00010593,-0.31742,-0.036424,-9.7818,0,0,44.784,1,1,8008,4004
11785,6.2698e+07,0,0.0010041,-0.001107,0.0003078,-0.31822,-0.035785,-9.7808,0,0,44.784,1,1,8008,4004
11788,6.2701e+07,0,0.0010952,-0.0014391,0.00027757,-0.31847,-0.036544,-9.7799,0,0,44.784,1,1,8008,4004
11791,6.2703e+07,0,0.00073106,-0.0015534,5.9586e-05,-0.31832,-0.038532,-9.779,0,0,44.784,1,1,8008,4004
11822,6.2705e+07,0,0.00049305,0.00028458,3.9092e-05,-0.31685,-0.041707,-9.7756,0,0,44.784,1,1,8008,4004
11826,6.2713e+07,0,0.001782,0.0023531,-0.0011036,-0.31634,-0.048344,-9.7794,0,0,44.785,1,1,8008,4004
11857,6.2716e+07,0,0.0017652,0.0020902,-0.0011384,-0.31653,-0.048681,-9.784,0,0,44.785,1,1,8008,4004
11860,6.2718e+07,0,0.0014522,0.0013875,-0.00092898,-0.31751,-0.049641,-9.7842,0,0,44.785,1,1,8008,4004
11863,6.2722e+07,0,0.0016288,0.0009004,-0.00071572,-0.31862,-0.052345,-9.7855,0,0,44.785,1,1,8008,4004
11866,6.2724e+07,0,0.0015294,0.00071369,-0.00090533,-0.31956,-0.053092,-9.7863,0,0,44.785,1,1,8008,4004
11897,6.2726e+07,0,0.0020666,0.00018761,-0.00016307,-0.32166,-0.050159,-9.7843,0,0,44.785,1,1,8008,4004
11901,6.2729e+07,0,0.0027883,0.001059,0.0003799,-0.32465,-0.046846,-9.7811,0,0,44.785,1,1,8008,4004
11905,6.2732e+07,0,0.0029645,0.0018218,0.00051762,-0.32802,-0.046544,-9.7785,0,0,44.785,1,1,8008,4004
11908,6.2734e+07,0,0.0016788,0.0018824,0.00023199,-0.33374,-0.04825,-9.7754,0,0,44.785,1,1,8008,4004
11939,6.2737e+07,0,0.00016519,0.002011,0.00068674,-0.33588,-0.05165,-9.7708,0,0,44.785,1,1,8008,4004
11943,6.274e+07,0,-0.00049327,0.0014637,0.0013611,-0.33435,-0.052765,-9.7664,0,0,44.785,1,1,8008,4004
11946,6.2742e+07,0,0.00012251,0.00042776,0.0021246,-0.3299,-0.050235,-9.7598,0,0,44.785,1,1,8008,4004
11949,6.2745e+07,0,0.00050765,0.00062227,0.0015052,-0.32728,-0.048656,-9.758,0,0,44.785,1,1,8008,4004
11980,6.2747e+07,0,0.00032315,0.00075653,0.00038088,-0.32522,-0.048423,-9.7568,0,0,44.785,1,1,8008,4004
11983,6.275e+07,0,-0.00011579,0.00048807,2.3003e-05,-0.3243,-0.048921,-9.755,0,0,44.785,1,1,8008,4004
11986,6.2752e+07,0,-0.0005201,0.0007818,-0.0010924,-0.32275,-0.048387,-9.7559,0,0,44.785,1,1,8008,4004
11989,6.2754e+07,0,0.00057391,0.00090682,-0.00094453,-0.32179,-0.048845,-9.7583,0,0,44.785,1,1,8008,4004
12020,6.2757e+07,0,0.0016578,0.00057915,-0.00064254,-0.32071,-0.049518,-9.7609,0,0,44.785,1,1,8008,4004
12024,6.276e+07,0,0.0017233,-3.9995e-05,-0.00089738,-0.32117,-0.049326,-9.7631,0,0,44.785,1,1,8008,4004
12027,6.2762e+07,0,0.0011093,-0.00048138,-0.00040955,-0.32143,-0.047949,-9.7681,0,0,44.785,1,1,8008,4004
12030,6.2765e+07,0,0.00036663,-0.00081856,0.00038875,-0.32185,-0.047206,-9.7717,0,0,44.784,1,1,8008,4004
12063,6.2767e+07,0,-0.00057889,-0.0010878,0.0011106,-0.32325,-0.0468,-9.7771,0,0,44.784,1,1,8008,4004
12067,6.277e+07,0,-0.00052603,-0.0010683,0.0010438,-0.32501,-0.047862,-9.7781,0,0,44.784,1,1,8008,4004
12074,6.2773e+07,0,-0.00043595,-0.00034036,0.0010512,-0.32789,-0.051275,-9.7796,0,0,44.784,1,1,8008,4004
12079,6.2775e+07,0,-0.00048064,0.00056047,0.0015677,-0.32927,-0.052451,-9.7806,0,0,44.784,1,1,8008,4004
12110,6.2778e+07,0,-0.0010674,0.0014895,0.0019412,-0.3302,-0.053905,-9.7829,0,0,44.784,1,1,8008,4004
12113,6.278e+07,0,-1.2505e-05,0.0015042,0.0010661,-0.33071,-0.053166,-9.7809,0,0,44.784,1,1,8008,4004
12116,6.2782e+07,0,0.00029803,0.0015712,0.00099568,-0.33108,-0.051655,-9.7783,0,0,44.784,1,1,8008,4004
12119,6.2786e+07,0,0.00026454,0.0011523,0.00056097,-0.33016,-0.047588,-9.7758,0,0,44.784,1,1,8008,4004
12150,6.2788e+07,0,-2.9749e-05,0.001314,0.00075109,-0.329,-0.043212,-9.7712,0,0,44.784,1,1,8008,4004
12154,6.2791e+07,0,-0.00058585,0.0010161,0.0010744,-0.32842,-0.041435,-9.7677,0,0,44.784,1,1,8008,4004
12158,6.2793e+07,0,-0.0012066,0.0003171,0.0012185,-0.32537,-0.038469,-9.7657,0,0,44.783,1,1,8008,4004
12161,6.2796e+07,0,-0.0016032,-0.00078411,0.00084928,-0.3218,-0.037288,-9.7647,0,0,44.783,1,1,8008,4004
12192,6.2799e+07,0,-0.0014929,-0.0012118,0.0006026,-0.31571,-0.037413,-9.7618,0,0,44.783,1,1,8008,4004
12195,6.2801e+07,0,-0.00079418,-0.00023595,0.000993,-0.31335,-0.037222,-9.76,0,0,44.783,1,1,8008,4004
12199,6.2803e+07,0,-0.00026649,0.00063423,0.0014088,-0.3124,-0.035962,-9.7589,0,0,44.783,1,1,8008,4004
12202,6.2805e+07,0,-0.0006142,0.00090439,0.0010457,-0.31213,-0.034805,-9.7586,0,0,44.783,1,1,8008,4004
12233,6.2808e+07,0,-0.0020827,0.00025024,0.00095408,-0.31083,-0.034543,-9.7544,0,0,44.783,1,1,8008,4004
12237,6.2812e+07,0,-0.003001,0.00030728,0.00096651,-0.31075,-0.034826,-9.7494,0,0,44.783,1,1,8008,4004
12240,6.2815e+07,0,-0.0037559,0.00069944,0.0012053,-0.31096,-0.036631,-9.7458,0,0,44.783,1,1,8008,4004
12243,6.2816e+07,0,-0.0035193,0.00031525,0.00055358,-0.31272,-0.037629,-9.7483,0,0,44.783,1,1,8008,4004
12274,6.2819e+07,0,-0.0034412,4.4914e-05,-0.00041532,-0.31531,-0.0384,-9.7536,0,0,44.783,1,1,8008,4004
12277,6.2821e+07,0,-0.0034156,-0.00012912,-0.00093202,-0.31609,-0.03967,-9.7578,0,0,44.783,1,1,8008,4004
12280,6.2825e+07,0,-0.0024677,-6.5251e-05,-0.00014907,-0.31605,-0.042038,-9.7641,0,0,44.783,1,1,8008,4004
12283,6.2827e+07,0,-0.0018975,1.8614e-06,-8.2361e-06,-0.31606,-0.04263,-9.7666,0,0,44.783,1,1,8008,4004
12316,6.283e+07,0,-0.00064507,-0.00026358,-0.00089482,-0.3173,-0.041878,-9.7659,0,0,44.783,1,1,8008,4004
12320,6.2832e+07,0,-0.00011113,-0.00016298,-0.0021442,-0.31882,-0.038254,-9.7655,0,0,44.783,1,1,8008,4004
12323,6.2834e+07,0,-0.00014826,-0.00057836,-0.0022753,-0.31944,-0.036855,-9.763,0,0,44.783,1,1,8008,4004
12326,6.2837e+07,0,-0.0002091,-0.00042964,-0.0017953,-0.31958,-0.03624,-9.76,0,0,44.783,1,1,8008,4004
12357,6.284e+07,0,-0.00076523,-1.9747e-05,-0.001304,-0.32043,-0.034085,-9.7508,0,0,44.783,1,1,8008,4004
12361,6.2842e+07,0,-0.00055233,-5.0348e-05,-0.0013864,-0.32111,-0.03378,-9.7451,0,0,44.783,1,1,8008,4004
12364,6.2845e+07,0,-7.9168e-06,-0.0004122,-0.0014779,-0.32199,-0.034546,-9.7412,0,0,44.783,1,1,8008,4004
12367,6.2847e+07,0,-0.00034835,-0.00054704,-0.0011447,-0.32305,-0.036023,-9.7393,0,0,44.783,1,1,8008,4004
12398,6.285e+07,0,-0.00097437,-0.00052309,-0.0013095,-0.32294,-0.038169,-9.742,0,0,44.783,1,1,8008,4004
12401,6.2853e+07,0,-0.0018809,-5.3473e-05,-0.00079442,-0.32158,-0.041852,-9.7466,0,0,44.783,1,1,8008,4004
12404,6.2855e+07,0,-0.0018288,0.00022285,-0.00040696,-0.32087,-0.047636,-9.7587,0,0,44.783,1,1,8008,4004
12407,6.2857e+07,0,-0.00095632,-0.00016914,-0.00060497,-0.32261,-0.051164,-9.7671,0,0,44.783,1,1,8008,4004
12438,6.286e+07,0,-0.00058596,-0.00059079,-0.0008669,-0.32499,-0.054819,-9.7762,0,0,44.783,1,1,8008,4004
12442,6.2863e+07,0,-0.00043473,-9.035e-05,-0.00079487,-0.32565,-0.05491,-9.7774,0,0,44.783,1,1,8008,4004
12445,6.2865e+07,0,0.00047072,0.00025494,-0.00099512,-0.32609,-0.051768,-9.7765,0,0,44.783,1,1,8008,4004
12448,6.2867e+07,0,0.00092867,0.0007948,-0.00094089,-0.32548,-0.050001,-9.7766,0,0,44.783,1,1,8008,4004
12479,6.287e+07,0,0.0008749,0.0015255,-0.00081039,-0.32412,-0.046751,-9.7758,0,0,44.784,1,1,8008,4004
12482,6.2872e+07,0,0.00070028,0.0015009,-0.00069829,-0.32437,-0.044307,-9.7746,0,0,44.784,1,1,8008,4004
12490,6.2875e+07,0,0.00018251,0.00078255,-0.00031762,-0.32317,-0.041437,-9.7716,0,0,44.784,1,1,8008,4004
12493,6.2878e+07,0,-0.00050307,0.00061178,-0.0004953,-0.32161,-0.041053,-9.7711,0,0,44.784,1,1,8008,4004
12524,6.288e+07,0,-0.00024558,0.0010018,-0.00041207,-0.32098,-0.043361,-9.7705,0,0,44.784,1,1,8008,4004
12528,6.2883e+07,0,-2.3994e-05,0.0011791,0.00025999,-0.322,-0.046143,-9.7685,0,0,44.784,1,1,8008,4004
12531,6.2885e+07,0,0.00025047,0.0004081,-0.00046594,-0.32235,-0.050851,-9.7663,0,0,44.784,1,1,8008,4004
12534,6.2888e+07,0,0.00099778,-0.0009171,-0.0012006,-0.31987,-0.053948,-9.7693,0,0,44.784,1,1,8008,4004
12565,6.2891e+07,0,0.00082052,-0.00071674,-0.00030671,-0.31891,-0.054543,-9.7738,0,0,44.785,1,1,8008,4004
12568,6.2893e+07,0,0.00039145,-0.00034848,0.00040847,-0.31912,-0.054145,-9.7747,0,0,44.785,1,1,8008,4004
12571,6.2896e+07,0,-0.00080398,-2.4086e-05,0.00050383,-0.31864,-0.055914,-9.7764,0,0,44.785,1,1,8008,4004
12574,6.2899e+07,0,-0.0008797,-5.2113e-05,0.0003357,-0.31692,-0.05767,-9.7764,0,0,44.785,1,1,8008,4004
12605,6.2901e+07,0,-0.0012126,9.9688e-05,0.00032583,-0.31539,-0.057901,-9.7727,0,0,44.785,1,1,8008,4004
12609,6.2904e+07,0,-0.0014482,1.202e-05,0.00047677,-0.31562,-0.057977,-9.7693,0,0,44.785,1,1,8008,4004
12612,6.2906e+07,0,-0.0021208,-0.00022886,-0.00012566,-0.31866,-0.058251,-9.7663,0,0,44.785,1,1,8008,4004
12615,6.2909e+07,0,-0.002145,-0.00043031,4.5563e-05,-0.32202,-0.057572,-9.7673,0,0,44.785,1,1,8008,4004
12646,6.2911e+07,0,-0.0016368,-0.00031546,-0.00025443,-0.32248,-0.055912,-9.7689,0,0,44.786,1,1,8008,4004
12651,6.2915e+07,0,-0.0019362,0.00020697,-0.00067178,-0.32177,-0.053476,-9.7697,0,0,44.786,1,1,8008,4004
12654,6.2919e+07,0,-0.0020945,-2.2145e-05,0.001416,-0.32192,-0.049537,-9.7713,0,0,44.786,1,1,8008,4004
12685,6.2922e+07,0,-0.0026602,-0.00062514,0.001906,-0.32024,-0.050642,-9.7741,0,0,44.786,1,1,8008,4004
12688,6.2924e+07,0,-0.0022195,-0.00017438,0.0016708,-0.3188,-0.052552,-9.7772,0,0,44.786,1,1,8008,4004
12691,6.2928e+07,0,-0.0013423,-0.00043596,0.0015155,-0.31754,-0.055142,-9.7814,0,0,44.786,1,1,8008,4004
12694,6.293e+07,0,-0.0010165,-0.00066237,0.0010856,-0.3178,-0.055981,-9.7861,0,0,44.786,1,1,8008,4004
12725,6.2933e+07,0,-0.00092225,-0.001294,0.00017732,-0.31832,-0.056787,-9.7908,0,0,44.787,1,1,8008,4004
12730,6.2935e+07,0,-0.00025965,-0.0017765,-0.00013974,-0.31933,-0.057784,-9.7895,0,0,44.787,1,1,8008,4004
12733,6.2938e+07,0,-0.00043926,-0.0018177,-0.00031981,-0.31929,-0.058295,-9.788,0,0,44.787,1,1,8008,4004
12736,6.2941e+07,0,-6.2193e-05,-0.0009491,-1.4899e-05,-0.32042,-0.058375,-9.7842,0,0,44.787,1,1,8008,4004
12767,6.2943e+07,0,-0.00036754,-0.00083615,0.00072174,-0.32388,-0.057788,-9.7809,0,0,44.787,1,1,8008,4004
12770,6.2946e+07,0,-0.00068826,-0.00097538,0.00053056,-0.32566,-0.055759,-9.7798,0,0,44.787,1,1,8008,4004
12773,6.2948e+07,0,-0.0012788,-0.00027725,-0.00027133,-0.32528,-0.052436,-9.7792,0,0,44.787,1,1,8008,4004
12776,6.2951e+07,0,-0.00088705,-3.948e-05,-0.00018198,-0.32362,-0.05214,-9.7773,0,0,44.787,1,1,8008,4004
12807,6.2954e+07,0,-0.00018023,0.00044729,0.00069298,-0.31941,-0.051979,-9.7747,0,0,44.788,1,1,8008,4004
12811,6.2956e+07,0,-0.00017834,0.00094297,0.0012074,-0.31758,-0.049891,-9.7767,0,0,44.788,1,1,8008,4004
12814,6.2958e+07,0,-0.00080807,0.00042216,0.0017378,-0.3181,-0.048384,-9.7776,0,0,44.788,1,1,8008,4004
12817,6.2961e+07,0,-0.0022116,-0.0014066,0.0022468,-0.31801,-0.047986,-9.779,0,0,44.788,1,1,8008,4004
12848,6.2963e+07,0,-0.0023252,-0.0021287,0.0016193,-0.31681,-0.048696,-9.7795,0,0,44.788,1,1,8008,4004
12851,6.2966e+07,0,-0.0016978,-0.0019885,-0.0001736,-0.31487,-0.052166,-9.7762,0,0,44.789,1,1,8008,4004
12854,6.2969e+07,0,-0.00070224,-0.0017214,-0.0014389,-0.31312,-0.055003,-9.7718,0,0,44.789,1,1,8008,4004
12857,6.2971e+07,0,-0.00031098,-0.0010505,-0.0012764,-0.31224,-0.058699,-9.7658,0,0,44.789,1,1,8008,4004
12888,6.2974e+07,0,-0.00072252,-0.00033821,-0.00027858,-0.31522,-0.057236,-9.7619,0,0,44.789,1,1,8008,4004
12892,6.2976e+07,0,-0.00098558,0.00025563,-8.7643e-05,-0.31693,-0.054995,-9.7605,0,0,44.789,1,1,8008,4004
12901,6.2979e+07,0,-0.0012026,0.0004338,-0.00013629,-0.31753,-0.052508,-9.7602,0,0,44.79,1,1,8008,4004
12904,6.2981e+07,0,-0.00094291,0.00064369,-0.00020967,-0.31881,-0.048888,-9.7595,0,0,44.79,1,1,8008,4004
12935,6.2984e+07,0,-0.00087651,0.0018389,-0.0012982,-0.31984,-0.047707,-9.7604,0,0,44.79,1,1,8008,4004
12939,6.2986e+07,0,-0.00058921,0.0018647,-0.0014164,-0.32037,-0.048511,-9.7595,0,0,44.79,1,1,8008,4004
12942,6.2988e+07,0,-3.4277e-05,0.0013522,-0.00094768,-0.32084,-0.048946,-9.7588,0,0,44.79,1,1,8008,4004
12945,6.2992e+07,0,0.00047859,0.00012213,-0.00073878,-0.32082,-0.04917,-9.7593,0,0,44.791,1,1,8008,4004
12976,6.2994e+07,0,0.00070296,-0.00055731,-0.0010819,-0.31911,-0.052238,-9.7605,0,0,44.791,1,1,8008,4004
12979,6.2997e+07,0,0.00072136,-0.00028972,-0.0016314,-0.31695,-0.055364,-9.7617,0,0,44.791,1,1,8008,4004
12982,6.2999e+07,0,0.0010948,0.00049135,-0.0018081,-0.31327,-0.056833,-9.7648,0,0,44.791,1,1,8008,4004
12985,6.3001e+07,0,0.00078152,0.00038479,-0.0022928,-0.31165,-0.057372,-9.7687,0,0,44.791,1,1,8008,4004
13016,6.3004e+07,0,-0.00021425,-0.00067826,-0.0017733,-0.31084,-0.058942,-9.7775,0,0,44.791,1,1,8008,4004
13020,6.3007e+07,0,-0.00018701,-0.00053442,-0.0012791,-0.3112,-0.058734,-9.7841,0,0,44.791,1,1,8008,4004
13023,6.3009e+07,0,0.00060533,0.0003509,-0.00032349,-0.311,-0.056509,-9.7903,0,0,44.792,1,1,8008,4004
13026,6.3011e+07,0,0.00082441,0.0010597,0.00030098,-0.31179,-0.053112,-9.791,0,0,44.792,1,1,8008,4004
13057,6.3014e+07,0,0.00093367,0.0010629,0.00099304,-0.3151,-0.049254,-9.7927,0,0,44.792,1,1,8008,4004
13060,6.3022e+07,0,0.00071188,0.00059566,-0.0019164,-0.32317,-0.0417,-9.7893,0,0,44.792,1,1,8008,4004
13091,6.3025e+07,0,0.00015884,0.00237,-0.0010419,-0.32463,-0.03784,-9.7844,0,0,44.792,1,1,8008,4004
13094,6.3027e+07,0,-0.00023664,0.001879,-0.00098036,-0.32475,-0.034897,-9.7817,0,0,44.793,1,1,8008,4004
13097,6.303e+07,0,0.000576,9.7226e-06,-0.0013034,-0.32455,-0.032819,-9.776,0,0,44.793,1,1,8008,4004
13100,6.3033e+07,0,0.00063671,-0.00071502,-0.0011661,-0.3242,-0.033091,-9.7721,0,0,44.793,1,1,8008,4004
13133,6.3036e+07,0,0.00075005,0.00010896,-0.0014946,-0.32553,-0.035375,-9.766,0,0,44.793,1,1,8008,4004
13136,6.3038e+07,0,-0.0002897,0.00075199,-0.001232,-0.32776,-0.038457,-9.7611,0,0,44.793,1,1,8008,4004
13139,6.3041e+07,0,-0.00048295,0.00014767,-0.0011806,-0.32775,-0.040347,-9.7605,0,0,44.793,1,1,8008,4004
13142,6.3043e+07,0,0.00096849,-0.0020243,-0.0011294,-0.32478,-0.042101,-9.7607,0,0,44.793,1,1,8008,4004
13173,6.3046e+07,0,0.0018833,-0.0028143,-0.00022659,-0.32255,-0.04403,-9.7613,0,0,44.794,1,1,8008,4004
13177,6.3049e+07,0,0.0012191,-0.0023559,0.00047931,-0.32146,-0.046816,-9.7623,0,0,44.794,1,1,8008,4004
13180,6.3051e+07,0,0.00057747,-0.00035992,0.00094465,-0.32127,-0.051381,-9.7622,0,0,44.794,1,1,8008,4004
13184,6.3053e+07,0,0.00080233,0.00059545,0.001034,-0.32281,-0.052952,-9.7613,0,0,44.794,1,1,8008,4004
13215,6.3056e+07,0,0.0011985,0.0013406,0.0005299,-0.32469,-0.054018,-9.7615,0,0,44.794,1,1,8008,4004
13219,6.3059e+07,0,0.0018922,0.0013313,0.00055562,-0.3242,-0.054193,-9.7621,0,0,44.794,1,1,8008,4004
13223,6.3061e+07,0,0.001829,0.0010476,0.00069838,-0.32254,-0.053956,-9.7651,0,0,44.794,1,1,8008,4004
13226,6.3063e+07,0,0.00039658,0.00041848,0.0006813,-0.32216,-0.053392,-9.7655,0,0,44.794,1,1,8008,4004
13257,6.3066e+07,0,-0.00097464,0.00021158,0.0014075,-0.32182,-0.053331,-9.7638,0,0,44.794,1,1,8008,4004
13260,6.3069e+07,0,-0.0011974,0.00067857,0.0014728,-0.32019,-0.052992,-9.7634,0,0,44.794,1,1,8008,4004
13263,6.3071e+07,0,-0.0022367,0.000777,0.0010685,-0.31627,-0.052308,-9.7655,0,0,44.794,1,1,8008,4004
13266,6.3073e+07,0,-0.0026242,7.6819e-05,0.001027,-0.315,-0.051528,-9.7671,0,0,44.794,1,1,8008,4004
13297,6.3076e+07,0,-0.001765,0.00012935,0.00042746,-0.31475,-0.050649,-9.7693,0,0,44.794,1,1,8008,4004
13301,6.3078e+07,0,-0.0013281,0.00038408,0.00068443,-0.31544,-0.049644,-9.7725,0,0,44.794,1,1,8008,4004
13308,6.3082e+07,0,-0.00088383,0.00036434,0.0013609,-0.3169,-0.049148,-9.7766,0,0,44.795,1,1,8008,4004
13311,6.3084e+07,0,-0.0011154,0.00086688,0.0013576,-0.31776,-0.049699,-9.7772,0,0,44.795,1,1,8008,4004
13342,6.3086e+07,0,-0.00084246,0.00046696,0.0012626,-0.31745,-0.049975,-9.7768,0,0,44.795,1,1,8008,4004
13345,6.3089e+07,0,-0.00066618,0.00042554,0.0010054,-0.31624,-0.050655,-9.7746,0,0,44.795,1,1,8008,4004
13348,6.3091e+07,0,-0.00046556,1.0898e-05,0.00077735,-0.31688,-0.051374,-9.7751,0,0,44.795,1,1,8008,4004
13351,6.3095e+07,0,0.00081261,-0.00019832,0.0012173,-0.31845,-0.053757,-9.7766,0,0,44.795,1,1,8008,4004
13382,6.3097e+07,0,0.0012899,0.0006477,0.0013849,-0.31951,-0.055105,-9.7776,0,0,44.795,1,1,8008,4004
13386,6.31e+07,0,0.00066568,0.0012003,0.0014161,-0.32021,-0.056009,-9.7781,0,0,44.795,1,1,8008,4004
13389,6.3102e+07,0,-0.00047429,0.00087259,0.001122,-0.31906,-0.055544,-9.7796,0,0,44.795,1,1,8008,4004
13392,6.3105e+07,0,-0.00074429,0.00020025,0.00085523,-0.31642,-0.05478,-9.7815,0,0,44.795,1,1,8008,4004
13423,6.3108e+07,0,-0.00055971,3.0581e-05,0.00091744,-0.31276,-0.053291,-9.7855,0,0,44.795,1,1,8008,4004
13426,6.311e+07,0,3.4661e-05,0.00049781,0.0011209,-0.31097,-0.052524,-9.7876,0,0,44.795,1,1,8008,4004
13429,6.3112e+07,0,-0.00093044,0.00072247,0.00058587,-0.30995,-0.054925,-9.7899,0,0,44.795,1,1,8008,4004
13433,6.3115e+07,0,-0.0016935,0.00065933,0.0010132,-0.31026,-0.057861,-9.7895,0,0,44.795,1,1,8008,4004
13464,6.3117e+07,0,-0.0019245,-4.0175e-05,0.0016424,-0.31217,-0.062033,-9.7869,0,0,44.795,1,1,8008,4004
13468,6.3125e+07,0,-0.00024821,0.00025943,0.001873,-0.31553,-0.062967,-9.7898,0,0,44.795,1,1,8008,4004
13499,6.3128e+07,0,0.00090235,0.0013837,0.0016916,-0.31772,-0.062201,-9.7886,0,0,44.795,1,1,8008,4004
13504,6.313e+07,0,0.0010321,0.0011871,0.00074505,-0.3176,-0.061673,-9.786,0,0,44.795,1,1,8008,4004
13507,6.3133e+07,0,0.00024413,0.0003681,-0.00074584,-0.31687,-0.06142,-9.7847,0,0,44.795,1,1,8008,4004
13510,6.3136e+07,0,-0.0010049,-3.238e-05,-0.0016081,-0.31747,-0.060997,-9.7877,0,0,44.795,1,1,8008,4004
13541,6.3138e+07,0,-0.0019161,-9.5494e-05,-0.0012875,-0.32021,-0.059475,-9.7938,0,0,44.795,1,1,8008,4004
13544,6.3141e+07,0,-0.0018491,-9.6933e-05,-0.00099371,-0.32105,-0.057206,-9.7957,0,0,44.795,1,1,8008,4004
13547,6.3144e+07,0,-0.0017712,-0.0002,-0.00033969,-0.31961,-0.052194,-9.7937,0,0,44.795,1,1,8008,4004
13550,6.3146e+07,0,-0.0017484,-0.00047466,-0.00010348,-0.31933,-0.04552,-9.7882,0,0,44.795,1,1,8008,4004
