LineNo,TimeUS,I,GyrX,GyrY,GyrZ,AccX,AccY,AccZ,EG,EA,T,GH,AH,GHz,AHz
186,118643360,2,-0.001949206,-0.002187066,-0.001205647,0.1245325,0.04463784,-9.843368999999999,0,0,38.73846,1,1,7744,3872
221,118646263,2,-0.001822472,-0.001069263,-0.001262277,0.122587,0.045575,-9.83967,0,0,38.73838,1,1,7744,3872
287,118671592,2,0.001297396,-0.00243886,-0.002351847,0.1050778,0.06109103,-9.817442,0,0,38.73729,1,1,7744,3872
403,118699875,2,0.001029841,0.001161783,0.00156789,0.1016368,0.05208069,-9.858676000000001,0,0,38.73605,1,1,7744,3872
518,118725357,2,0.0021368,0.0009174752999999999,0.0003424824,0.1097059,0.04033371,-9.866554000000001,0,0,38.73487,1,1,7744,3872
521,118727505,2,0.001897903,0.001112291,0.0003942658,0.112117,0.03831233,-9.863887,0,0,38.73478,1,1,7744,3872
556,118729949,2,0.0009133851,0.001537627,0.001042978,0.1124591,0.03634035,-9.859871,0,0,38.73462,1,1,7744,3872
626,118756567,2,-0.004219396,-0.002848559,0.002310445,0.1232078,0.02260814,-9.847455999999999,0,0,38.73359,1,1,7744,3872
741,118775344,2,-0.002376951,-0.004164222,0.0006578336,0.1154913,0.01819555,-9.849306,0,0,38.73267,1,1,7744,3872
856,118795075,2,-0.00405857,-0.002460968,-2.769306e-05,0.1115089,0.03721705,-9.852263000000001,0,0,38.73209,1,1,7744,3872
972,118834087,2,0.002958895,0.0004941162,0.001064714,0.1021648,0.0434074,-9.856235,0,0,38.73147,1,1,7744,3872
1007,118837271,2,0.002876003,0.0005814879,0.001507685,0.1004531,0.04186063,-9.849216999999999,0,0,38.73142,1,1,7744,3872
1081,118876381,2,0.002354742,0.0005151558000000001,0.0001666005,0.1091373,0.02619358,-9.839195,0,0,38.73178,1,1,7744,3872
1196,118975334,2,0.002652214,0.0008995272,-0.0006160221,0.08977032,0.06258693,-9.858662000000001,0,0,38.73336,1,1,7744,3872
1300,119044594,2,-0.0007083801,-0.001035839,0.001605912,0.08716819000000001,0.03327971,-9.872738,0,0,38.7337,1,1,7744,3872
1385,119056063,2,-0.001647449,0.0004787655,-0.0001726018,0.09590403,0.02282531,-9.861917999999999,0,0,38.73361,1,1,7744,3872
1480,119074989,2,-0.006270175,0.0004922656,0.0001054639,0.09873843,0.01876925,-9.873303,0,0,38.73383,1,1,7744,3872
1573,119089608,2,-0.004006829,0.002078675,0.001123951,0.08535324,0.0403333,-9.843176,0,0,38.73397,1,1,7744,3872
1598,119092199,2,-0.00233559,0.002452797,0.001321968,0.08584014,0.04473983,-9.840754,0,0,38.734,1,1,7744,3872
1633,119094873,2,-0.001891894,0.002280878,0.001828812,0.0867492,0.04712772,-9.840738,0,0,38.73401,1,1,7744,3872
1637,119097599,2,-0.003128021,0.001582541,0.001544108,0.08678763,0.04957024,-9.841232,0,0,38.73402,1,1,7744,3872
1640,119100258,2,-0.003862921,0.001120658,0.0008993199,0.08651192000000001,0.04991394,-9.841372,0,0,38.73402,1,1,7744,3872
1644,119102144,2,-0.003860305,0.0005632596,-0.0001443553,0.08634058999999999,0.05057111,-9.840261,0,0,38.73404,1,1,7744,3872
1679,119104880,2,-0.003385515,0.0001337085,7.850223e-05,0.08694555,0.05211323,-9.840088,0,0,38.73407,1,1,7744,3872
1682,119107344,2,-0.002240597,0.0004451406,0.00139338,0.08846065,0.0549619,-9.844144999999999,0,0,38.73407,1,1,7744,3872
1685,119110272,2,-0.001661724,0.0005769204,0.002003248,0.088669,0.0571408,-9.848660000000001,0,0,38.73406,1,1,7744,3872
1688,119112577,2,-0.001712653,0.0001341917,0.001433261,0.08818876,0.06102373,-9.853880999999999,0,0,38.73404,1,1,7744,3872
1723,119115115,2,-0.0006309884,-0.0007247429,0.001230688,0.0877511,0.06202349,-9.856873,0,0,38.73403,1,1,7744,3872
1726,119117266,2,-5.479797e-05,-0.000904025,3.467402e-05,0.08715399,0.06099884,-9.857303,0,0,38.73402,1,1,7744,3872
1729,119120022,2,0.0006149173,-0.0009636720000000001,-0.001359786,0.08652459,0.05945342,-9.858351000000001,0,0,38.73401,1,1,7744,3872
1733,119123309,2,0.001459595,-0.001355711,-0.001293887,0.08768523,0.05698881,-9.860467,0,0,38.73399,1,1,7744,3872
1768,119126858,2,0.0002791018,-0.001450552,-0.0001558569,0.09176873000000001,0.05476982,-9.859624999999999,0,0,38.73397,1,1,7744,3872
1771,119128534,2,-0.0003446363,-0.0003502812,0.00179632,0.09587872,0.05190798,-9.856778,0,0,38.73397,1,1,7744,3872
1774,119130698,2,0.0004717103,0.0004278558,0.003146641,0.09702234,0.05096239,-9.855930000000001,0,0,38.73399,1,1,7744,3872
1777,119133532,2,0.002791124,0.0004759076,0.003011435,0.09966353,0.04898446,-9.853410999999999,0,0,38.73401,1,1,7744,3872
1812,119136015,2,0.003194564,-0.0002751727,0.002040185,0.1019297,0.04820251,-9.852187000000001,0,0,38.73402,1,1,7744,3872
1815,119139325,2,0.003401541,-0.000860282,0.001486359,0.1038237,0.04809418,-9.85286,0,0,38.73402,1,1,7744,3872
1818,119140927,2,0.00331601,-0.001040705,0.0005954243,0.1060907,0.04713847,-9.852233999999999,0,0,38.73404,1,1,7744,3872
1822,119144019,2,0.003242578,-0.0003122457,0.0002423349,0.1066236,0.04837031,-9.850493,0,0,38.73406,1,1,7744,3872
1857,119146366,2,0.003352471,-0.0003319141,-0.0007578062,0.1060585,0.05140601,-9.850156999999999,0,0,38.73409,1,1,7744,3872
1864,119149715,2,0.003471896,-0.0007250587,-0.001346336,0.1024626,0.05232026,-9.850626999999999,0,0,38.73412,1,1,7744,3872
1867,119151920,2,0.00356213,-0.0006523255,-0.001671414,0.099245,0.05343468,-9.849212,0,0,38.73413,1,1,7744,3872
1871,119154283,2,0.004039217,-0.0006383919,-0.0009148566,0.09598951999999999,0.05337126,-9.852149000000001,0,0,38.73416,1,1,7744,3872
1906,119157330,2,0.004916082,-0.0002290548,4.834194e-05,0.09576582,0.05190448,-9.856157,0,0,38.73417,1,1,7744,3872
1909,119159306,2,0.005654389,-0.0001349103,-0.0005998026,0.09649009,0.05070078,-9.860877,0,0,38.7342,1,1,7744,3872
1912,119162041,2,0.005513143,0.0006126065,-0.0005074734,0.0963994,0.05043463,-9.8627,0,0,38.73423,1,1,7744,3872
1916,119163946,2,0.005776505,0.000797594,-0.0001382227,0.09570784,0.05009564,-9.863830999999999,0,0,38.73427,1,1,7744,3872
1951,119166439,2,0.006117833,0.000445308,0.000534766,0.09603082,0.05049761,-9.8643,0,0,38.73433,1,1,7744,3872
1954,119169851,2,0.006359564,0.001193038,0.001189179,0.09733593,0.04981753,-9.864081000000001,0,0,38.73439,1,1,7744,3872
1960,119171914,2,0.00630566,0.00131511,0.0008856985,0.09827172000000001,0.04763952,-9.863809,0,0,38.73443,1,1,7744,3872
1964,119174662,2,0.005719017,0.001728158,0.0003513572,0.1002742,0.04351376,-9.866628,0,0,38.73452,1,1,7744,3872
1999,119177248,2,0.004519654,0.002416019,7.406535e-06,0.103764,0.03923577,-9.868156000000001,0,0,38.7346,1,1,7744,3872
2002,119180532,2,0.003475356,0.002274906,-0.000857374,0.1058908,0.03726549,-9.869300000000001,0,0,38.73466,1,1,7744,3872
2005,119182122,2,0.002823554,0.001325745,-0.001247863,0.107549,0.03533978,-9.870310999999999,0,0,38.73475,1,1,7744,3872
2008,119185080,2,0.002942869,0.001388836,-0.0006212985,0.1078394,0.03379796,-9.869108000000001,0,0,38.73484,1,1,7744,3872
2043,119187366,2,0.002157623,0.0007898811,-0.000936496,0.1104574,0.03028125,-9.866436999999999,0,0,38.73496,1,1,7744,3872
2046,119190272,2,0.0004835629,0.0001127034,-0.001927596,0.1134507,0.02409776,-9.862830000000001,0,0,38.73508,1,1,7744,3872
2050,119193645,2,-0.0001428693,6.861084e-05,-0.002517155,0.1154153,0.01870892,-9.859730000000001,0,0,38.73518,1,1,7744,3872
2054,119195439,2,-0.0004321634,0.0006593008,-0.002515664,0.1169588,0.01367612,-9.856506,0,0,38.73533,1,1,7744,3872
2089,119199251,2,5.141808e-05,0.001228383,-0.001109285,0.120811,0.00887099,-9.852456999999999,0,0,38.73547,1,1,7744,3872
2092,119200532,2,0.0002065329,0.001763604,0.0008698292,0.1242602,0.007598872,-9.850884000000001,0,0,38.73557,1,1,7744,3872
2095,119203381,2,0.0001144673,0.002067985,0.001600383,0.1262045,0.006970978,-9.850804,0,0,38.73566,1,1,7744,3872
2098,119206087,2,-0.0001445174,0.001436248,0.0008700807,0.126015,0.007272376,-9.852283,0,0,38.7358,1,1,7744,3872
2133,119208331,2,0.0001721976,0.0004818906,0.000425781,0.1230815,0.01189866,-9.854134,0,0,38.73594,1,1,7744,3872
2136,119211585,2,-0.0004720758,0.001712836,0.0003093162,0.121038,0.01721969,-9.853726,0,0,38.73608,1,1,7744,3872
2139,119213629,2,-0.0003594166,0.002604274,0.0001477453,0.1197318,0.01998713,-9.854583,0,0,38.73617,1,1,7744,3872
2143,119216145,2,-0.0001814032,0.003519171,-6.05436e-05,0.1181677,0.0224085,-9.860741000000001,0,0,38.73631,1,1,7744,3872
2178,119219223,2,-0.0008448352,0.003466245,-0.0003238424,0.1168062,0.02399863,-9.865029,0,0,38.73639,1,1,7744,3872
2181,119221103,2,-0.001441077,0.002281733,-0.001343096,0.1158963,0.02536257,-9.871172,0,0,38.73653,1,1,7744,3872
2186,119224060,2,-0.002426686,0.001318602,-0.0008007329000000001,0.1154421,0.02630601,-9.873091000000001,0,0,38.73662,1,1,7744,3872
2189,119229068,2,-0.003953669,0.001113495,0.0006389169,0.1109465,0.026808,-9.871428999999999,0,0,38.73697,1,1,7744,3872
2224,119235041,2,-0.002973365,0.000988605,-0.0001192143,0.10561,0.02877055,-9.863276000000001,0,0,38.73721,1,1,7744,3872
2228,119237633,2,-0.003480118,0.000774464,-0.00141663,0.1053626,0.03147748,-9.858237000000001,0,0,38.73733,1,1,7744,3872
2232,119240405,2,-0.004604149,0.001206076,-0.001865848,0.1050336,0.03328816,-9.855066000000001,0,0,38.73742,1,1,7744,3872
2267,119243337,2,-0.00586196,0.001845845,-0.0006559568,0.1046807,0.03384268,-9.851742,0,0,38.73753,1,1,7744,3872
2270,119245487,2,-0.005362781,0.0009906559000000001,0.001487345,0.1059388,0.03187015,-9.846935999999999,0,0,38.73765,1,1,7744,3872
2273,119247867,2,-0.004420353,-0.0002590533,0.00156342,0.1067943,0.03144279,-9.841640999999999,0,0,38.73774,1,1,7744,3872
2276,119250378,2,-0.004529757,-0.001166044,0.0006975202,0.1081418,0.03157272,-9.83831,0,0,38.73785,1,1,7744,3872
2314,119253382,2,-0.004717364,-0.00112172,-0.0005180239,0.1101409,0.03175939,-9.840063000000001,0,0,38.73793,1,1,7744,3872
2317,119255936,2,-0.005458156,-0.0001636334,-0.0009749829,0.1129859,0.03247917,-9.843584999999999,0,0,38.73806,1,1,7744,3872
2322,119258350,2,-0.005436684,-0.0002123192,-0.0004261812,0.1158686,0.03445255,-9.846705999999999,0,0,38.73819,1,1,7744,3872
2325,119260575,2,-0.004708593,-0.001358699,-0.0005250129,0.1182735,0.03527635,-9.846019,0,0,38.73835,1,1,7744,3872
2360,119262945,2,-0.004301162,-0.002981712,-0.0005094651,0.1207546,0.03496036,-9.844925999999999,0,0,38.73846,1,1,7744,3872
2363,119265527,2,-0.004485104,-0.003909817,0.0003572319,0.1217175,0.03394171,-9.845844,0,0,38.73862,1,1,7744,3872
2367,119268560,2,-0.004216373,-0.003660419,0.00107489,0.1208107,0.03389889,-9.847087,0,0,38.73872,1,1,7744,3872
2370,119270786,2,-0.002037745,-0.002553651,0.0006645924,0.1180609,0.03497577,-9.850849,0,0,38.73887,1,1,7744,3872
2405,119273070,2,-0.000536508,-0.002176406,0.0005379384,0.112346,0.03478606,-9.855581000000001,0,0,38.73905,1,1,7744,3872
2408,119276058,2,-0.001047517,-0.002244808,0.000475678,0.1072955,0.03581341,-9.856757,0,0,38.73915,1,1,7744,3872
2411,119278366,2,-0.002949708,-0.002097031,-0.0003075036,0.09918899,0.04205036,-9.856788999999999,0,0,38.73934,1,1,7744,3872
2414,119281432,2,-0.003612202,-0.002142925,-0.0009685083,0.09413158000000001,0.04661268,-9.856873999999999,0,0,38.73943,1,1,7744,3872
2449,119284503,2,-0.002455533,-0.00322432,-0.00139829,0.09034961,0.0501599,-9.853332999999999,0,0,38.73954,1,1,7744,3872
2452,119286500,2,-0.0007623032000000001,-0.003615019,-0.002394633,0.08929457,0.05031572,-9.849579,0,0,38.73965,1,1,7744,3872
2456,119288921,2,-0.0008201356,-0.00402227,-0.002965628,0.08862791,0.05000807,-9.846083999999999,0,0,38.73972,1,1,7744,3872
2459,119291707,2,-0.00124459,-0.003596904,-0.002980403,0.08980522000000001,0.04984847,-9.840838,0,0,38.73981,1,1,7744,3872
2494,119294881,2,-0.000749949,-0.002771751,-0.001813585,0.09197015,0.04849799,-9.836888,0,0,38.73993,1,1,7744,3872
2497,119297099,2,0.0004697982,-0.002283843,-0.001685845,0.09348914,0.04618429,-9.835402999999999,0,0,38.73998,1,1,7744,3872
2500,119299078,2,0.001921896,-0.001353421,-0.0009498238,0.09464590000000001,0.044102,-9.835143,0,0,38.74004,1,1,7744,3872
2504,119301574,2,0.002846877,-0.0005149924,-0.0003914563,0.09563373,0.04069341,-9.838879,0,0,38.74015,1,1,7744,3872
2539,119304158,2,0.001773343,-0.0003150883,-0.0004271871,0.09698983,0.03785525,-9.839539,0,0,38.74024,1,1,7744,3872
2542,119307088,2,0.001050041,0.0003618256,0.0002136952,0.1014723,0.03410323,-9.835504999999999,0,0,38.74029,1,1,7744,3872
2546,119309590,2,0.00226843,0.0004061928,-0.0002736959,0.1041654,0.03247274,-9.834160000000001,0,0,38.74034,1,1,7744,3872
2549,119311425,2,0.003489763,-0.0001889204,-0.0002054392,0.1074099,0.03236951,-9.836994000000001,0,0,38.74041,1,1,7744,3872
2584,119313848,2,0.002622314,-0.0005075851,5.011192e-05,0.1081784,0.03386759,-9.838559,0,0,38.74049,1,1,7744,3872
2587,119316574,2,0.002403924,-0.0001922294,-0.0001836672,0.1081678,0.03510501,-9.838077,0,0,38.74053,1,1,7744,3872
2591,119319515,2,0.002748586,0.0003595119,-0.0003457274,0.1073976,0.03658273,-9.836845,0,0,38.74056,1,1,7744,3872
2594,119321500,2,0.002500832,-0.0005141054,4.880887e-06,0.1051541,0.03851222,-9.8375,0,0,38.74062,1,1,7744,3872
2629,119324861,2,0.002385159,-0.0003697653,0.0001139245,0.1029873,0.04007747,-9.840121,0,0,38.74067,1,1,7744,3872
2632,119326584,2,0.002061698,0.0002486021,0.0006359566,0.1013219,0.03990132,-9.845840000000001,0,0,38.74075,1,1,7744,3872
2636,119329489,2,0.001611905,0.0005649233,0.0002968601,0.09837572,0.0396411,-9.848228000000001,0,0,38.74081,1,1,7744,3872
2639,119331925,2,0.003249016,0.001361569,-0.001213869,0.09151339999999999,0.03841097,-9.848053999999999,0,0,38.74089,1,1,7744,3872
2674,119334376,2,0.004520394,0.001848891,-0.000950843,0.08797588000000001,0.03815896,-9.844562,0,0,38.74102,1,1,7744,3872
2677,119337555,2,0.00408029,0.002345219,-0.0006049379,0.08814158,0.03781653,-9.843638,0,0,38.7411,1,1,7744,3872
2681,119339491,2,0.00372061,0.00291812,0.000397643,0.09035301,0.03732375,-9.845414,0,0,38.74115,1,1,7744,3872
2684,119342046,2,0.003875169,0.002469273,0.00131644,0.09112255,0.03738495,-9.846128,0,0,38.74119,1,1,7744,3872
2719,119344990,2,0.002194985,0.001929049,0.001298012,0.09281569000000001,0.03797022,-9.846861000000001,0,0,38.74128,1,1,7744,3872
2722,119346592,2,0.001281047,0.001767678,0.0003922269,0.09480880999999999,0.03744849,-9.848188,0,0,38.74134,1,1,7744,3872
2725,119350044,2,0.001775922,0.001868604,5.084283e-05,0.09881608,0.03574547,-9.850514,0,0,38.74138,1,1,7744,3872
2728,119352116,2,0.002528254,0.001745482,-0.0001794982,0.09984446,0.03541911,-9.851495,0,0,38.74141,1,1,7744,3872
2766,119354634,2,0.00295954,0.001463366,-0.00078006,0.1014622,0.03329462,-9.854668,0,0,38.74147,1,1,7744,3872
2769,119357558,2,0.004034118,0.002093168,-0.000350714,0.1027728,0.03240407,-9.854445999999999,0,0,38.7415,1,1,7744,3872
2774,119359551,2,0.004211511,0.002464757,-0.001190761,0.1046678,0.03248199,-9.853989,0,0,38.74154,1,1,7744,3872
2777,119362516,2,0.003055416,0.002214593,-0.001341729,0.1053632,0.03214693,-9.855134,0,0,38.74158,1,1,7744,3872
2812,119364890,2,0.0009603205,0.002975528,-1.484135e-05,0.106314,0.03035383,-9.854376,0,0,38.74166,1,1,7744,3872
2815,119368227,2,0.001086786,0.002444427,0.002202664,0.1062107,0.02715145,-9.855188,0,0,38.74171,1,1,7744,3872
2818,119369950,2,0.0006986516,0.002022806,0.002408945,0.1055808,0.02571283,-9.858681000000001,0,0,38.74179,1,1,7744,3872
2821,119372924,2,0.0002958191,0.001751895,0.002632471,0.1062835,0.025821,-9.86171,0,0,38.74183,1,1,7744,3872
2856,119375816,2,0.000364063,0.002123692,0.002028311,0.1067093,0.02753233,-9.863025,0,0,38.7419,1,1,7744,3872
2859,119377937,2,0.0005738643,0.002572129,0.0016405,0.105101,0.02943109,-9.8606,0,0,38.74193,1,1,7744,3872
2863,119380864,2,-7.687158e-05,0.002610499,0.0007155942999999999,0.1025978,0.03281657,-9.858848,0,0,38.74197,1,1,7744,3872
2867,119382866,2,-0.001444088,0.001599897,0.001470936,0.1021456,0.03432032,-9.858102000000001,0,0,38.742,1,1,7744,3872
2902,119385072,2,-0.002013469,0.0006158524,0.002326681,0.1007622,0.03944398,-9.856101000000001,0,0,38.74202,1,1,7744,3872
2905,119387707,2,-0.001675209,0.0001801849,0.002523593,0.1004244,0.04242854,-9.857086000000001,0,0,38.74203,1,1,7744,3872
2908,119390885,2,-0.001487729,-0.001251021,0.002322258,0.1018784,0.04398118,-9.860822000000001,0,0,38.74207,1,1,7744,3872
2911,119393912,2,-0.001945108,-0.001283165,0.002426506,0.1039934,0.04390349,-9.863246,0,0,38.74209,1,1,7744,3872
2946,119396188,2,-0.002488975,-0.001013595,0.001495252,0.1076399,0.03920028,-9.865891,0,0,38.74216,1,1,7744,3872
2950,119399216,2,-0.003106282,-0.001588622,0.000518759,0.1083083,0.03647254,-9.864705000000001,0,0,38.74218,1,1,7744,3872
2954,119401455,2,-0.003252032,-0.00235128,-0.0006912642,0.1075499,0.03263917,-9.860552,0,0,38.7422,1,1,7744,3872
2957,119404568,2,-0.003290863,-0.002206145,-0.0001916647,0.1048125,0.02897524,-9.856643999999999,0,0,38.74221,1,1,7744,3872
2992,119407922,2,-0.004596785,-0.002456877,0.0004123199,0.09793734,0.02169044,-9.850301,0,0,38.7422,1,1,7744,3872
2997,119410059,2,-0.005374139,-0.002060595,0.0007136668,0.09573047,0.01866181,-9.849636,0,0,38.7422,1,1,7744,3872
3000,119412303,2,-0.004936662,-0.001150268,0.0003105005,0.09391491,0.01744203,-9.850802,0,0,38.74218,1,1,7744,3872
3003,119417863,2,-0.002916031,-0.00107188,0.001191267,0.09473825,0.02240459,-9.853138,0,0,38.74213,1,1,7744,3872
3038,119423902,2,-0.00464851,-0.001682116,-0.0003267892,0.09828737,0.03573618,-9.852199000000001,0,0,38.74209,1,1,7744,3872
3042,119426838,2,-0.003700037,-0.001652901,-0.0002625977,0.09868831,0.04041709,-9.848784,0,0,38.74206,1,1,7744,3872
3045,119428640,2,-0.002880416,-0.001775698,0.0006703824,0.1004122,0.04180687,-9.850123,0,0,38.74205,1,1,7744,3872
3082,119431453,2,-0.00331916,-0.0014761,0.001753303,0.1037589,0.04198878,-9.855416999999999,0,0,38.74205,1,1,7744,3872
3085,119434398,2,-0.004612362,-0.0007760244,0.001485264,0.1052118,0.0415492,-9.8599,0,0,38.74205,1,1,7744,3872
3089,119436145,2,-0.004939772,0.0005266832,0.001619875,0.1076865,0.04107003,-9.864262999999999,0,0,38.74206,1,1,7744,3872
3092,119438886,2,-0.004056971,0.001104415,0.001600499,0.108566,0.04129364,-9.863740999999999,0,0,38.74207,1,1,7744,3872
3127,119441975,2,-0.003391712,0.0001134718,0.0001698559,0.1083933,0.04434543,-9.860476,0,0,38.74212,1,1,7744,3872
3130,119444570,2,-0.004373139,-0.0005892532,-0.001342651,0.1079062,0.04813432,-9.858416,0,0,38.74215,1,1,7744,3872
3134,119446108,2,-0.005073925,-0.0007633173,-0.002214531,0.1072656,0.05241609,-9.85675,0,0,38.7422,1,1,7744,3872
3137,119448706,2,-0.005014762,-0.0007641793,-0.002276496,0.1068988,0.05508908,-9.85623,0,0,38.74223,1,1,7744,3872
3172,119451342,2,-0.003129818,0.0004546317,-0.001396365,0.1073145,0.05656999,-9.856503,0,0,38.74228,1,1,7744,3872
3175,119454087,2,-0.002036887,0.001012451,-0.0004848057,0.1088193,0.05650421,-9.856071,0,0,38.74234,1,1,7744,3872
3178,119456600,2,-0.000863871,0.00142481,-0.0009262659,0.1128384,0.05599321,-9.854941,0,0,38.74242,1,1,7744,3872
3184,119458950,2,-0.0001812127,0.001336148,-0.002076545,0.1152353,0.05491199,-9.85248,0,0,38.7425,1,1,7744,3872
3219,119461886,2,0.0005962973,0.0003405695,-0.002845249,0.1194505,0.05314008,-9.848037,0,0,38.74257,1,1,7744,3872
3223,119464250,2,0.0005030436,0.0002132755,-0.002782434,0.1221064,0.05250358,-9.844753000000001,0,0,38.74262,1,1,7744,3872
3227,119466911,2,-0.0006592702,0.0005019666000000001,-0.001587227,0.1239044,0.05196024,-9.843781,0,0,38.74269,1,1,7744,3872
3230,119468588,2,-0.001405807,0.000476962,-0.001065495,0.1229115,0.05212184,-9.846095999999999,0,0,38.74276,1,1,7744,3872
3265,119471129,2,-0.001254755,0.001220106,-0.0003825811,0.1192555,0.0538988,-9.851171000000001,0,0,38.74285,1,1,7744,3872
3269,119474086,2,-0.0005827882,0.001584186,0.0006128388,0.1160245,0.05414315,-9.854817000000001,0,0,38.74294,1,1,7744,3872
3272,119476493,2,5.948634e-05,0.001278877,0.0009936898999999999,0.1116989,0.05338293,-9.857113999999999,0,0,38.743,1,1,7744,3872
3275,119479320,2,5.752493e-05,0.001317771,0.001069939,0.1073284,0.05206259,-9.857837999999999,0,0,38.74303,1,1,7744,3872
3310,119481485,2,8.850790999999999e-05,0.001973139,0.0002845014,0.1044425,0.05149034,-9.855529000000001,0,0,38.74305,1,1,7744,3872
3313,119484390,2,0.00193341,0.002255172,0.0002211591,0.1053925,0.05108827,-9.851639,0,0,38.74309,1,1,7744,3872
3317,119487611,2,0.002714871,0.001014302,0.0006827104,0.1068829,0.05119345,-9.850827000000001,0,0,38.74311,1,1,7744,3872
3320,119489339,2,0.002923821,0.0002084392,0.001172425,0.1091886,0.05486235,-9.854134,0,0,38.74316,1,1,7744,3872
3355,119492405,2,0.002682916,0.0002154709,0.001370589,0.1104617,0.05875962,-9.857756999999999,0,0,38.74319,1,1,7744,3872
3358,119494168,2,0.002593713,6.076609e-05,0.001250197,0.1128005,0.06421424000000001,-9.856464000000001,0,0,38.74323,1,1,7744,3872
3362,119497290,2,0.001752933,-0.0006568454,0.001170665,0.1139455,0.06651290999999999,-9.853365,0,0,38.74326,1,1,7744,3872
3365,119499543,2,0.001566126,-0.0005074843,0.001803567,0.1157125,0.06599671,-9.851656,0,0,38.74328,1,1,7744,3872
3400,119501717,2,0.001667691,0.00044188,0.002309585,0.1171092,0.06183086,-9.854768999999999,0,0,38.7433,1,1,7744,3872
3404,119505401,2,0.001866926,0.00158949,0.002432755,0.1163344,0.05792204,-9.858530999999999,0,0,38.74331,1,1,7744,3872
3407,119506641,2,0.002564473,0.002110597,0.001261725,0.1156158,0.05590228,-9.86008,0,0,38.74331,1,1,7744,3872
3410,119509618,2,0.003124371,0.0007142206,-0.001261224,0.1143769,0.05045633,-9.862913000000001,0,0,38.74329,1,1,7744,3872
3445,119513273,2,0.003092582,-0.001471676,-0.001491307,0.1152466,0.04614043,-9.864758,0,0,38.74327,1,1,7744,3872
3448,119515286,2,0.002969773,-0.001921433,-0.001344407,0.1157502,0.04345864,-9.864288999999999,0,0,38.74325,1,1,7744,3872
3451,119517374,2,0.004206598,-0.002401771,-0.001359402,0.1154387,0.04101417,-9.859693999999999,0,0,38.74323,1,1,7744,3872
3454,119519646,2,0.0052477,-0.002366572,-0.001226401,0.1152747,0.0421003,-9.856309,0,0,38.74322,1,1,7744,3872
3489,119522795,2,0.004706797,-0.002333594,-0.0005123086,0.1151768,0.04578936,-9.851481,0,0,38.74318,1,1,7744,3872
3492,119524839,2,0.0033376,-0.002118621,-0.0009290588999999999,0.1151884,0.0476613,-9.846064999999999,0,0,38.74313,1,1,7744,3872
3496,119527829,2,0.001581395,-0.001261506,-0.0008557665000000001,0.1132616,0.04834661,-9.837368,0,0,38.74311,1,1,7744,3872
3500,119529909,2,0.00185071,-0.0009143207,-0.0006148922,0.1108169,0.04793535,-9.832532,0,0,38.74309,1,1,7744,3872
3535,119532566,2,0.001979766,-0.0009917507,0.0002763429,0.1057992,0.04591617,-9.828901,0,0,38.74308,1,1,7744,3872
3539,119535323,2,0.001575136,-0.001503025,0.0002509372,0.1027534,0.04511387,-9.831212000000001,0,0,38.74309,1,1,7744,3872
3543,119537345,2,0.001390815,-0.001538724,-0.0002248715,0.09963524,0.04339225,-9.840464000000001,0,0,38.74311,1,1,7744,3872
3546,119540394,2,0.002249511,-0.001250439,-0.0004220486,0.09941795,0.04268803,-9.844541,0,0,38.74312,1,1,7744,3872
3581,119543032,2,0.003513384,-0.001632167,-0.0009472325,0.1002756,0.03800611,-9.857471,0,0,38.74313,1,1,7744,3872
3584,119545519,2,0.004434233,-0.001869729,-0.0006574537,0.1039697,0.03156396,-9.867679000000001,0,0,38.74313,1,1,7744,3872
3587,119548330,2,0.00275648,-0.001790517,-0.0006419698,0.1063931,0.02705103,-9.871026000000001,0,0,38.74313,1,1,7744,3872
3590,119550897,2,-5.351811e-06,-0.001019411,-0.0007393496,0.108069,0.02424873,-9.872073,0,0,38.74314,1,1,7744,3872
3625,119553248,2,0.0005812264,-0.0005484649,9.333369e-05,0.1069282,0.02485385,-9.869619,0,0,38.74314,1,1,7744,3872
3628,119556007,2,0.0006867284,-0.0008417334,0.002226232,0.1048507,0.02605202,-9.865220000000001,0,0,38.74317,1,1,7744,3872
3632,119558510,2,0.0002962278,-0.0008494663,0.003552721,0.1026062,0.02732602,-9.856958000000001,0,0,38.74322,1,1,7744,3872
3638,119561453,2,0.0002022781,-0.0009923785999999999,0.003383038,0.1019395,0.02702376,-9.851566,0,0,38.74325,1,1,7744,3872
3673,119564280,2,0.0005861935,-0.0006766835,0.001057654,0.1020286,0.02658676,-9.843324000000001,0,0,38.74331,1,1,7744,3872
3677,119566623,2,0.0005713159,0.0004897772,-0.0008751887,0.1030013,0.02696021,-9.842751,0,0,38.74334,1,1,7744,3872
3680,119568952,2,0.0005306207,0.0001607841,-0.001226571,0.104725,0.02697569,-9.844998,0,0,38.74337,1,1,7744,3872
3683,119571488,2,7.298125e-06,-0.0003859502,-0.002546096,0.1059269,0.02773465,-9.847307000000001,0,0,38.74342,1,1,7744,3872
3718,119574409,2,0.000318488,-0.0005600472,-0.002456399,0.1059101,0.02903538,-9.851448,0,0,38.74348,1,1,7744,3872
3721,119577049,2,7.009968e-05,-0.0007491635,-0.001957235,0.1059714,0.02971921,-9.852993,0,0,38.74352,1,1,7744,3872
3725,119579133,2,-0.0004645626,-0.0005927822,-0.0009372947,0.1061268,0.02992663,-9.854478,0,0,38.74354,1,1,7744,3872
3728,119581467,2,-0.001473468,-0.001084069,-2.721314e-05,0.1053856,0.02940691,-9.853540000000001,0,0,38.74359,1,1,7744,3872
3763,119583816,2,-0.001700754,-0.0005903097,-0.0006697253,0.1038665,0.02956711,-9.849322000000001,0,0,38.74361,1,1,7744,3872
3766,119586827,2,-0.001265058,-0.0001328146,-0.000541483,0.1023088,0.03027644,-9.847583999999999,0,0,38.74363,1,1,7744,3872
3771,119589609,2,-0.0008045767,-0.0001185032,-0.000774256,0.1000462,0.03075433,-9.84896,0,0,38.74365,1,1,7744,3872
3774,119591537,2,-0.0006463268,-7.955763e-07,-0.0007554010000000001,0.09720471999999999,0.03150459,-9.854697,0,0,38.74368,1,1,7744,3872
3809,119593856,2,-0.001199421,-0.0001003568,-0.0004312985,0.09503365,0.0332781,-9.857464999999999,0,0,38.7437,1,1,7744,3872
3812,119596414,2,-0.001233696,0.0001844959,0.0002593558,0.09395903,0.03397812,-9.857497,0,0,38.74371,1,1,7744,3872
3815,119599870,2,-0.001284285,0.0003340137,0.0005875999,0.09346858,0.03442456,-9.859118,0,0,38.74372,1,1,7744,3872
3818,119602049,2,-0.0009468594,0.000297557,0.00032921,0.09389071,0.03720756,-9.860713000000001,0,0,38.74374,1,1,7744,3872
3853,119604578,2,-6.622145999999999e-05,-0.0002161077,-0.0002615792,0.09583957,0.03905101,-9.860378000000001,0,0,38.74375,1,1,7744,3872
3856,119607013,2,-6.719443e-05,-0.0004686984,-0.0003165967,0.09815127,0.04182968,-9.860528,0,0,38.74374,1,1,7744,3872
3860,119610544,2,-0.0009340569,-0.0007751978,-0.0005979697,0.09853176,0.04396823,-9.860004999999999,0,0,38.74374,1,1,7744,3872
3863,119612951,2,-0.002241899,-0.0002979752,-0.0002842911,0.09828684,0.04664503,-9.857862000000001,0,0,38.74373,1,1,7744,3872
3868,119614935,2,-0.002453596,0.0002242511,-0.0002046817,0.09853545,0.04676261,-9.856811,0,0,38.74371,1,1,7744,3872
3903,119617395,2,-0.003428455,0.0004340916,5.843102e-05,0.09793631999999999,0.04363523,-9.857391,0,0,38.74371,1,1,7744,3872
3906,119620236,2,-0.003244366,0.000436521,0.0008760762,0.09732743000000001,0.04056962,-9.858036999999999,0,0,38.74371,1,1,7744,3872
3909,119628550,2,-0.0004095238,-0.0002608386,0.0005342863999999999,0.1005051,0.03764094,-9.861742,0,0,38.74375,1,1,7744,3872
3945,119631514,2,-0.0003759049,-0.001326978,-0.0005827944,0.1003744,0.03718299,-9.861661,0,0,38.74376,1,1,7744,3872
3950,119633955,2,0.0002552737,-0.001840308,-0.00108344,0.102129,0.03573063,-9.859829,0,0,38.74377,1,1,7744,3872
3953,119636793,2,0.001146405,-0.001313704,-0.0004789941,0.1041311,0.03532333,-9.856353,0,0,38.74375,1,1,7744,3872
3956,119638678,2,0.00220627,-0.0005163756,0.0003145486,0.1058547,0.03558538,-9.852543000000001,0,0,38.74372,1,1,7744,3872
3992,119641307,2,0.004428187,4.38537e-05,0.0005700701,0.1087174,0.03613596,-9.849931,0,0,38.74364,1,1,7744,3872
3996,119644038,2,0.00434206,-1.766648e-05,0.0006073292000000001,0.1109971,0.03752187,-9.849494999999999,0,0,38.74356,1,1,7744,3872
3999,119646480,2,0.002578985,-0.001244611,0.00114618,0.1127368,0.04174305,-9.850546,0,0,38.74346,1,1,7744,3872
4002,119649028,2,0.001878132,-0.001841522,0.001283503,0.112569,0.04415945,-9.851706,0,0,38.74342,1,1,7744,3872
4038,119652220,2,0.002230953,-0.002126428,0.0008248026,0.111179,0.04574052,-9.855226,0,0,38.74334,1,1,7744,3872
4041,119654047,2,0.002143183,-0.002003974,0.0002980792,0.1097218,0.04707957,-9.857545,0,0,38.74329,1,1,7744,3872
4044,119656064,2,0.002274252,-0.001880773,-0.0001865041,0.1059471,0.04841057,-9.85943,0,0,38.7432,1,1,7744,3872
4047,119659400,2,0.002535359,-0.001324781,0.0005381022,0.1043227,0.0483372,-9.859379000000001,0,0,38.74313,1,1,7744,3872
4082,119662144,2,0.002913114,0.0002200757,0.001130507,0.1053002,0.0493484,-9.856439999999999,0,0,38.74298,1,1,7744,3872
4090,119664612,2,0.00313383,-8.892079e-05,0.0007639987,0.1063015,0.05038391,-9.853979000000001,0,0,38.74281,1,1,7744,3872
4093,119666690,2,0.003058486,-0.0003719628,0.0003266849,0.1058975,0.05280646,-9.852143,0,0,38.74272,1,1,7744,3872
4097,119669942,2,0.003319155,-0.0005097169,0.0003351105,0.1045293,0.05617819,-9.849691,0,0,38.74254,1,1,7744,3872
4132,119672637,2,0.003559641,0.0002112123,0.0004550365,0.1049359,0.05480096,-9.848452,0,0,38.74241,1,1,7744,3872
4135,119675598,2,0.003700232,0.0001098846,0.001179092,0.1064609,0.05343629,-9.847087,0,0,38.74226,1,1,7744,3872
4138,119677499,2,0.003262237,-0.0001127677,0.002104414,0.1086652,0.05365814,-9.843685000000001,0,0,38.74209,1,1,7744,3872
4141,119679927,2,0.003340756,-0.0001378867,0.001522828,0.1089513,0.05424482,-9.841837999999999,0,0,38.742,1,1,7744,3872
4176,119682852,2,0.003647901,0.0006555018,0.0007415974,0.1072274,0.05508351,-9.839957999999999,0,0,38.74187,1,1,7744,3872
4179,119684870,2,0.003808539,0.001171966,-5.488349e-05,0.1051873,0.0554237,-9.839575,0,0,38.74175,1,1,7744,3872
4182,119687853,2,0.00475562,0.0009484642,7.262804e-05,0.1036112,0.05441935,-9.844158,0,0,38.74164,1,1,7744,3872
4186,119689935,2,0.004786671,0.001235042,-0.0005062947,0.1036184,0.05217925,-9.846742000000001,0,0,38.74157,1,1,7744,3872
4221,119693020,2,0.004126802,0.0008550729,-0.001625865,0.1047342,0.04777481,-9.85139,0,0,38.74149,1,1,7744,3872
4224,119694933,2,0.003664273,0.0002921498,-0.00131781,0.1048932,0.04608759,-9.853490000000001,0,0,38.74141,1,1,7744,3872
4227,119697878,2,0.002964044,0.0005910552,-7.534528e-05,0.1065955,0.04102716,-9.8569,0,0,38.74133,1,1,7744,3872
4230,119700029,2,0.003181565,0.0007881147,0.0004063013,0.10768,0.03796038,-9.857136000000001,0,0,38.74126,1,1,7744,3872
4265,119702949,2,0.002414461,0.001159994,0.002041414,0.1077549,0.03399491,-9.857018,0,0,38.74117,1,1,7744,3872
4269,119706067,2,0.0009289836,0.001044568,0.001574637,0.1079731,0.03306783,-9.858044,0,0,38.74109,1,1,7744,3872
4272,119707346,2,-0.0002077523,0.0008529518,0.0006377228,0.1072834,0.03395677,-9.861535999999999,0,0,38.741,1,1,7744,3872
4275,119709886,2,-0.0001779225,0.0006389045,-0.0001645687,0.1062036,0.03528865,-9.863982999999999,0,0,38.74092,1,1,7744,3872
4310,119712627,2,0.0006130931,-0.0001173993,-0.0001657619,0.1046422,0.03702505,-9.865168000000001,0,0,38.74084,1,1,7744,3872
4314,119714971,2,0.001108938,-0.0007384107999999999,0.0005671107,0.1041677,0.03842695,-9.865192,0,0,38.74078,1,1,7744,3872
4317,119717548,2,0.0007946456,-0.0007997734,0.0006171537,0.1056829,0.03969237,-9.867096,0,0,38.7407,1,1,7744,3872
4320,119720259,2,0.0005430545,-8.731056e-05,0.0007979111,0.1072579,0.04026311,-9.867589000000001,0,0,38.74066,1,1,7744,3872
4355,119723093,2,-0.000446169,0.000262537,-1.968254e-05,0.1095794,0.041938,-9.866096000000001,0,0,38.7406,1,1,7744,3872
4358,119726097,2,-0.001032423,0.0002701987,9.377122e-05,0.109087,0.04326349,-9.864981999999999,0,0,38.74053,1,1,7744,3872
4361,119727340,2,-0.0005746122,0.0003089489,0.0005815488,0.1077363,0.04318152,-9.863614,0,0,38.74046,1,1,7744,3872
4364,119729938,2,-0.0006072503,0.0001934233,0.0007035453,0.1058159,0.04182997,-9.861907,0,0,38.74041,1,1,7744,3872
4399,119732539,2,-0.000736333,0.0006057177,0.0006328583,0.1032496,0.03917515,-9.861253,0,0,38.74033,1,1,7744,3872
4403,119735410,2,-0.0005534926,0.001593579,0.000880386,0.1030851,0.03665859,-9.860306,0,0,38.74025,1,1,7744,3872
4406,119737921,2,-0.001592875,0.00224216,0.001676219,0.1031053,0.03326632,-9.857001,0,0,38.74015,1,1,7744,3872
4409,119739997,2,-0.002313078,0.001851913,0.00161743,0.1028441,0.03296601,-9.853757999999999,0,0,38.74008,1,1,7744,3872
4444,119742553,2,-0.002107852,0.0002861586,0.001115144,0.1024411,0.0336309,-9.851660000000001,0,0,38.73999,1,1,7744,3872
4448,119745373,2,-0.001766968,-1.931649e-05,0.002054536,0.1014394,0.03508398,-9.852207,0,0,38.7399,1,1,7744,3872
4451,119747701,2,-0.002424676,0.0001117555,0.001808667,0.09853312,0.03906561,-9.849634,0,0,38.73978,1,1,7744,3872
4454,119750523,2,-0.003135411,-0.0005251986,0.0006659683,0.09725419,0.04218958,-9.845084,0,0,38.73969,1,1,7744,3872
4489,119753077,2,-0.003247143,-0.002245407,-0.001420113,0.09640480999999999,0.0463955,-9.834199,0,0,38.73957,1,1,7744,3872
4493,119755543,2,-0.00392027,-0.002179315,-0.001646801,0.09656084,0.04886722,-9.825373000000001,0,0,38.73945,1,1,7744,3872
4496,119757956,2,-0.003415298,-0.001441964,-0.001098856,0.09776039,0.04960473,-9.822979,0,0,38.73937,1,1,7744,3872
4499,119760543,2,-0.002754193,2.118385e-05,-0.000273926,0.09906938999999999,0.04941241,-9.823409,0,0,38.73925,1,1,7744,3872
4534,119763700,2,-0.002706852,0.0002969094,-3.826135e-05,0.1001561,0.04799034,-9.826385999999999,0,0,38.73914,1,1,7744,3872
4540,119766058,2,-0.002668199,9.628938e-05,-0.000556856,0.1028179,0.04652792,-9.831303999999999,0,0,38.73904,1,1,7744,3872
4543,119767931,2,-0.002840446,-0.0003840566,-0.001412177,0.1041251,0.04607854,-9.832788000000001,0,0,38.739,1,1,7744,3872
4547,119770575,2,-0.003845762,-0.000716717,-0.0006274549,0.1050282,0.0434459,-9.834056,0,0,38.73894,1,1,7744,3872
4582,119772942,2,-0.00452459,-0.0007281785,0.0004589748,0.1055306,0.04157472,-9.835356000000001,0,0,38.73891,1,1,7744,3872
4586,119775747,2,-0.003930551,-0.00105403,0.00105861,0.104987,0.04088668,-9.838074000000001,0,0,38.73885,1,1,7744,3872
4589,119778476,2,-0.003194059,-0.001469881,0.001049801,0.1047113,0.04030463,-9.839608999999999,0,0,38.73882,1,1,7744,3872
4592,119780829,2,-0.00364895,-0.001663914,0.0008793126,0.1048108,0.03988708,-9.843092,0,0,38.7388,1,1,7744,3872
4627,119783301,2,-0.003970805,-0.00147287,-0.000475933,0.1045305,0.04077241,-9.848635,0,0,38.73877,1,1,7744,3872
4630,119786101,2,-0.003474042,-0.0008594125,-0.001551455,0.1038904,0.041366,-9.853119,0,0,38.73875,1,1,7744,3872
4633,119788953,2,-0.002514408,-0.0003893628,-0.001515168,0.1034034,0.04324111,-9.859052,0,0,38.73873,1,1,7744,3872
4636,119791385,2,-0.002306541,-0.0002243342,7.840108999999999e-06,0.1033444,0.04394155,-9.860360999999999,0,0,38.73871,1,1,7744,3872
4671,119793552,2,-0.001507154,-9.293841e-05,0.001505181,0.1024788,0.04674346,-9.861096,0,0,38.73869,1,1,7744,3872
4675,119796847,2,-0.0006109728,0.0005321347,0.001310132,0.1010347,0.05044697,-9.861713999999999,0,0,38.73866,1,1,7744,3872
4678,119799252,2,0.0001463668,0.0009157816,0.001061491,0.09924291,0.05225886,-9.864584000000001,0,0,38.73866,1,1,7744,3872
4681,119801918,2,0.001096002,0.002037547,2.513453e-05,0.09738511,0.05257457,-9.871902,0,0,38.73864,1,1,7744,3872
4716,119804917,2,0.002124372,0.003422586,-0.002562318,0.09657153,0.05146104,-9.878078,0,0,38.73862,1,1,7744,3872
4720,119806603,2,0.001393319,0.002898755,-0.003275225,0.09671868,0.05098195,-9.881677,0,0,38.73861,1,1,7744,3872
4723,119809503,2,-0.000126924,0.001687298,-0.002452158,0.09709138,0.05053285,-9.884233,0,0,38.73862,1,1,7744,3872
4727,119812075,2,-0.0003645004,0.001012642,-0.001665391,0.09844749,0.04982404,-9.883194,0,0,38.73862,1,1,7744,3872
4762,119814949,2,0.0007106616,0.001450744,-4.401071e-05,0.1014384,0.04938209,-9.879511000000001,0,0,38.73864,1,1,7744,3872
4765,119817343,2,0.001485241,0.001470539,0.0009588291000000001,0.1029141,0.04826476,-9.877337000000001,0,0,38.73865,1,1,7744,3872
4770,119819715,2,0.001442128,0.001604416,0.001873611,0.1040861,0.04691024,-9.874798,0,0,38.73866,1,1,7744,3872
4773,119821722,2,0.001744072,0.001890219,0.001608737,0.1046369,0.04550866,-9.871650000000001,0,0,38.73866,1,1,7744,3872
4808,119824331,2,0.001968954,0.001641589,0.001026885,0.1047473,0.04552647,-9.867748000000001,0,0,38.73869,1,1,7744,3872
4812,119834108,2,0.00168511,-0.0004406192,0.001086764,0.09656824999999999,0.04829442,-9.865259,0,0,38.73881,1,1,7744,3872
4847,119836718,2,0.002667591,-0.001766067,0.0009683277,0.09461361,0.04834826,-9.867672000000001,0,0,38.73882,1,1,7744,3872
4851,119839757,2,0.003430546,-0.002385205,0.000537762,0.09139868,0.05044567,-9.872646,0,0,38.73884,1,1,7744,3872
4854,119841693,2,0.003707737,-0.001463092,0.0007255154,0.0888742,0.05050989,-9.875928,0,0,38.73884,1,1,7744,3872
4857,119844278,2,0.004371099,-0.0009746272,0.0006783841,0.08587569,0.04981167,-9.878655999999999,0,0,38.73885,1,1,7744,3872
4892,119847364,2,0.004372405,-0.0009406232,-0.000169594,0.08218046,0.04924404,-9.881460000000001,0,0,38.73886,1,1,7744,3872
4896,119848963,2,0.003683016,-0.001025728,0.0002943779,0.08059862,0.04987272,-9.882203000000001,0,0,38.73886,1,1,7744,3872
4899,119852299,2,0.002324312,-0.001196229,0.001010403,0.08038188,0.04961625,-9.883190000000001,0,0,38.73887,1,1,7744,3872
4902,119854291,2,0.001860979,-0.00113888,0.001423732,0.08058663000000001,0.04730811,-9.884423999999999,0,0,38.73886,1,1,7744,3872
4937,119856937,2,0.002725344,-0.0008721472000000001,0.001110467,0.08184331,0.04461071,-9.881655,0,0,38.73885,1,1,7744,3872
4942,119859703,2,0.003807122,-0.0001832973,-2.171777e-05,0.0851735,0.04252618,-9.875814,0,0,38.73882,1,1,7744,3872
4945,119861506,2,0.00340016,5.389875e-05,-0.0005622506,0.08602463,0.04262723,-9.872655,0,0,38.7388,1,1,7744,3872
4948,119864702,2,0.002341744,7.66357e-05,-0.0003542322,0.08716267,0.04302123,-9.868233999999999,0,0,38.73878,1,1,7744,3872
4983,119866869,2,0.001051509,-0.001064144,0.0007066327,0.09012964,0.0465464,-9.863148000000001,0,0,38.73874,1,1,7744,3872
4989,119870347,2,0.001191769,-0.001187453,0.001902397,0.09096292,0.04845384,-9.859795,0,0,38.73871,1,1,7744,3872
4992,119872343,2,0.001519348,-0.001405071,0.002804239,0.09294163,0.04955138,-9.852785000000001,0,0,38.73869,1,1,7744,3872
4996,119875369,2,0.002089795,-0.001155473,0.003717899,0.09377128999999999,0.04854488,-9.847201,0,0,38.73867,1,1,7744,3872
5031,119878153,2,0.0006556246,-0.00088302,0.004284999,0.09633957999999999,0.04619391,-9.840683,0,0,38.73861,1,1,7744,3872
5035,119880525,2,0.0002463263,-0.0003641322,0.004104361,0.09968749,0.04514559,-9.839489,0,0,38.73858,1,1,7744,3872
5038,119883485,2,0.0003801357,-1.310408e-05,0.003127762,0.100087,0.04432039,-9.839544,0,0,38.73855,1,1,7744,3872
5041,119885579,2,0.001702206,-0.0004827204,0.001138268,0.09983929,0.04065244,-9.839924999999999,0,0,38.73849,1,1,7744,3872
5076,119888488,2,0.001004101,-0.0009324821,-0.0008672969,0.0992898,0.03727119,-9.843073,0,0,38.73841,1,1,7744,3872
5079,119890559,2,0.000640596,-0.0007445234,-0.00106085,0.09866276,0.03502357,-9.845257999999999,0,0,38.73838,1,1,7744,3872
5082,119892921,2,0.0001058603,-0.0002406493,-0.0009850086999999999,0.09893215,0.03339811,-9.845083000000001,0,0,38.73835,1,1,7744,3872
5085,119896035,2,0.0008334370999999999,0.0004881276,-7.555543999999999e-05,0.1005256,0.03115267,-9.844977999999999,0,0,38.73833,1,1,7744,3872
5120,119899307,2,0.000749888,-2.614955e-05,0.0006246382,0.09959809,0.0286742,-9.850398999999999,0,0,38.73837,1,1,7744,3872
5124,119900954,2,-0.0002577983,-0.0004558309,0.001950943,0.09827780999999999,0.02852149,-9.856909999999999,0,0,38.73841,1,1,7744,3872
5127,119903716,2,3.20195e-05,0.0001026213,0.002029372,0.09783363,0.02947454,-9.861108,0,0,38.73846,1,1,7744,3872
5131,119906714,2,0.001579022,0.0004877863,0.002215483,0.09662901,0.03072364,-9.868072,0,0,38.73854,1,1,7744,3872
5166,119909101,2,0.002011114,0.0002630858,0.00202513,0.09573062,0.03133404,-9.873469999999999,0,0,38.73862,1,1,7744,3872
5169,119912801,2,0.0006038788,0.0007941122,0.003001983,0.09603827,0.03202245,-9.875493000000001,0,0,38.73868,1,1,7744,3872
5172,119914102,2,-0.001371348,0.002132911,0.003028052,0.09686982,0.03300796,-9.875254999999999,0,0,38.7388,1,1,7744,3872
5175,119916793,2,-0.001441387,0.0021833,0.00197424,0.09700251,0.03405676,-9.875184000000001,0,0,38.73884,1,1,7744,3872
5210,119920037,2,-0.001286739,0.001851468,0.0005391248,0.09705582,0.03615342,-9.875793,0,0,38.73893,1,1,7744,3872
5214,119921912,2,-0.00117697,0.001772417,0.0001200394,0.09715767,0.0375537,-9.873462999999999,0,0,38.73897,1,1,7744,3872
5217,119924802,2,-0.001490626,0.003472588,0.001041236,0.09716871000000001,0.03956149,-9.866508,0,0,38.73907,1,1,7744,3872
5220,119926614,2,-0.001846769,0.004122256,0.001535098,0.09796328,0.04100319,-9.861788000000001,0,0,38.73912,1,1,7744,3872
5257,119929339,2,-0.0009972672999999999,0.004601176,-0.0005740303,0.09978273,0.04317873,-9.858779999999999,0,0,38.73921,1,1,7744,3872
5261,119932481,2,-0.000151225,0.003739811,-0.001834602,0.1007849,0.04260105,-9.857996,0,0,38.73927,1,1,7744,3872
5264,119933927,2,0.0006756409,0.002064421,-0.002626435,0.1010613,0.04023888,-9.861084999999999,0,0,38.7394,1,1,7744,3872
5267,119937145,2,0.0009797669000000001,0.001851164,-0.002005724,0.100828,0.0391205,-9.865154,0,0,38.73946,1,1,7744,3872
5302,119939815,2,0.001212449,0.002012373,-0.001366007,0.1028865,0.03814132,-9.869809,0,0,38.73961,1,1,7744,3872
5305,119942160,2,0.0009588455,0.002667057,-0.0007594345,0.108069,0.03636385,-9.872455,0,0,38.73973,1,1,7744,3872
5308,119945320,2,-6.127715e-06,0.003106785,-0.0004673977,0.1119487,0.03370073,-9.874798,0,0,38.73983,1,1,7744,3872
5311,119947347,2,-0.002085793,0.003314934,-0.001304237,0.1157374,0.03092242,-9.875674999999999,0,0,38.73994,1,1,7744,3872
5346,119950206,2,-0.002576379,0.003399903,-0.002109385,0.1180503,0.02916568,-9.875161,0,0,38.73999,1,1,7744,3872
5350,119952350,2,-0.002253073,0.002830201,-0.002780456,0.1204466,0.0282213,-9.872598999999999,0,0,38.74006,1,1,7744,3872
5353,119954598,2,-0.001701742,0.001617375,-0.00279667,0.1222337,0.02825375,-9.868619000000001,0,0,38.74013,1,1,7744,3872
5356,119957816,2,-0.001749556,-0.00026421,-0.0004496243,0.1255447,0.03181162,-9.860293,0,0,38.74019,1,1,7744,3872
5391,119960809,2,-0.002447195,-0.000234798,0.0006309263,0.1272934,0.03524211,-9.855968000000001,0,0,38.74023,1,1,7744,3872
5394,119962950,2,-0.002325087,6.6367e-05,0.0005303698,0.126717,0.03728564,-9.853787000000001,0,0,38.74025,1,1,7744,3872
5397,119965488,2,-0.001632821,0.0003438553,0.000362677,0.1244455,0.03977384,-9.850602,0,0,38.74026,1,1,7744,3872
5400,119967979,2,-0.002299679,-0.0004183687,0.0008037839,0.1226004,0.04300349,-9.850452000000001,0,0,38.74025,1,1,7744,3872
5435,119970942,2,-0.00358096,-0.001555916,0.0006888687000000001,0.1206257,0.04880597,-9.849525999999999,0,0,38.74022,1,1,7744,3872
5442,119973702,2,-0.002825227,-0.00168899,0.0007972108,0.1189874,0.05179574,-9.847147,0,0,38.74019,1,1,7744,3872
5445,119975382,2,-0.0004603047,-0.002163207,0.001717737,0.1153573,0.0530335,-9.843750999999999,0,0,38.74015,1,1,7744,3872
5449,119978236,2,0.0009946242,-0.002374668,0.001940139,0.1134582,0.05194112,-9.842599,0,0,38.74011,1,1,7744,3872
5484,119981065,2,0.001475505,-0.002258875,0.001097395,0.1132127,0.050163,-9.842999000000001,0,0,38.74005,1,1,7744,3872
5487,119983042,2,0.0003561504,-0.001590336,0.000604312,0.1135275,0.04758494,-9.843584,0,0,38.74002,1,1,7744,3872
5492,119986024,2,0.0001088915,-0.001303211,-0.0001810002,0.1157333,0.04275288,-9.841837,0,0,38.74,1,1,7744,3872
5495,119987860,2,0.001307863,-0.001959411,-0.001879364,0.1186352,0.04024704,-9.840043,0,0,38.74,1,1,7744,3872
5530,119990600,2,0.002355905,-0.002826675,-0.002737125,0.1212885,0.03907274,-9.837025000000001,0,0,38.74001,1,1,7744,3872
5534,119992891,2,0.00165169,-0.002214718,-0.001770891,0.1200874,0.03856211,-9.83568,0,0,38.74004,1,1,7744,3872
5537,119995701,2,0.0005745869,-0.00178782,0.0007197547,0.1155226,0.03844285,-9.833518,0,0,38.74009,1,1,7744,3872
5540,119998353,2,0.0006632227,-0.001591426,0.001366092,0.1123734,0.03918321,-9.832184,0,0,38.74015,1,1,7744,3872
5575,120001309,2,0.002183801,-0.0007688646,0.001741406,0.109846,0.04025134,-9.833607000000001,0,0,38.74021,1,1,7744,3872
5579,120003688,2,0.001999031,-0.0007006267,0.000971298,0.1080187,0.04192081,-9.841696000000001,0,0,38.74024,1,1,7744,3872
5584,120006325,2,0.001165659,-0.0002170111,0.0003265181,0.1065994,0.0433325,-9.845955999999999,0,0,38.74025,1,1,7744,3872
5587,120008694,2,0.0006391404,-0.0005356512,-0.0003152768,0.1042949,0.046303,-9.848694999999999,0,0,38.74026,1,1,7744,3872
5622,120017486,2,0.003550161,0.0004218323,0.0009182115,0.09891843,0.05507159,-9.857540999999999,0,0,38.74034,1,1,7744,3872
5625,120019879,2,0.003166516,0.0002744363,0.001747762,0.09953345,0.05353899,-9.860547,0,0,38.74036,1,1,7744,3872
5660,120023580,2,0.00255213,0.0002042163,0.001445088,0.1006853,0.04870094,-9.865555000000001,0,0,38.74041,1,1,7744,3872
5663,120026240,2,0.002748406,-0.000354072,0.0002353789,0.1026906,0.04289601,-9.869292,0,0,38.74046,1,1,7744,3872
5666,120027812,2,0.003065609,-0.0002333532,0.0001914625,0.1036281,0.04044709,-9.869821999999999,0,0,38.74049,1,1,7744,3872
5670,120030218,2,0.00340485,0.0002927647,0.0007733254,0.1039558,0.03869997,-9.866859,0,0,38.74053,1,1,7744,3872
5705,120032888,2,0.003113937,0.0009747146,0.001539952,0.1040637,0.03921647,-9.865076999999999,0,0,38.74056,1,1,7744,3872
5708,120035797,2,0.002337345,0.001334358,0.002452267,0.1014985,0.04164945,-9.864687999999999,0,0,38.74059,1,1,7744,3872
5711,120038210,2,0.002256681,0.001054248,0.002752891,0.09905717,0.04380712,-9.864568,0,0,38.7406,1,1,7744,3872
5715,120039915,2,0.001981059,0.0008367447,0.001377757,0.09723413,0.0478335,-9.86448,0,0,38.74062,1,1,7744,3872
5750,120042831,2,0.001707848,0.0005732937,0.001017869,0.09566389,0.05309571,-9.863434,0,0,38.74063,1,1,7744,3872
5753,120045332,2,0.001879887,-0.0006364769,0.0004580915,0.09374878,0.05934548,-9.861934,0,0,38.74065,1,1,7744,3872
5756,120047824,2,0.002012965,-0.0009051521,0.0002966126,0.09302814,0.06078945,-9.862066,0,0,38.74067,1,1,7744,3872
5759,120050414,2,0.002427172,0.0003304764,0.000519451,0.09211082,0.0582409,-9.861713999999999,0,0,38.74071,1,1,7744,3872
5794,120053366,2,0.002627567,0.001600768,0.000994235,0.09130768,0.05431559,-9.859908000000001,0,0,38.74073,1,1,7744,3872
5797,120055273,2,0.002706121,0.003170186,0.002587318,0.09159362,0.04757637,-9.858116000000001,0,0,38.74075,1,1,7744,3872
5800,120058336,2,0.002408921,0.003782839,0.002893078,0.0934507,0.04248065,-9.857664,0,0,38.74074,1,1,7744,3872
5804,120060391,2,0.001089719,0.002834019,0.003600769,0.09977540999999999,0.03538848,-9.856121,0,0,38.74074,1,1,7744,3872
5839,120063081,2,0.0007068298,0.0009200641,0.003972425,0.1044003,0.03131599,-9.853562999999999,0,0,38.74074,1,1,7744,3872
5842,120066063,2,0.0001423852,-0.001151131,0.003737404,0.1091731,0.02694657,-9.849812999999999,0,0,38.74076,1,1,7744,3872
5845,120067965,2,-0.0004939197,-0.002176157,0.003150554,0.1117205,0.02465166,-9.849346000000001,0,0,38.74077,1,1,7744,3872
5848,120070994,2,-0.00121891,-0.003267001,0.002740155,0.1122218,0.02426093,-9.84958,0,0,38.74078,1,1,7744,3872
5883,120073363,2,-0.001485869,-0.0042214,0.00367616,0.110688,0.0254038,-9.847742,0,0,38.74079,1,1,7744,3872
5889,120076234,2,-0.002345096,-0.004353431,0.002951209,0.1097186,0.02648242,-9.846399999999999,0,0,38.74079,1,1,7744,3872
5892,120079104,2,-0.003558554,-0.003715528,0.001766653,0.1054538,0.03088645,-9.843086,0,0,38.74078,1,1,7744,3872
5896,120081513,2,-0.004442532,-0.002285079,0.0004784326,0.1019008,0.03546501,-9.840498999999999,0,0,38.74075,1,1,7744,3872
5931,120084612,2,-0.003291624,-0.001028806,-0.0004501195,0.0986558,0.04010989,-9.836156000000001,0,0,38.7407,1,1,7744,3872
5935,120086720,2,-0.002962854,-0.001031874,-0.000415235,0.09747643,0.04306268,-9.835279999999999,0,0,38.74065,1,1,7744,3872
5938,120089350,2,-0.003309131,-0.00142805,-0.0003719548,0.0977316,0.0456611,-9.835127999999999,0,0,38.74059,1,1,7744,3872
5942,120092119,2,-0.003535759,-0.001401031,-0.0006112486,0.09904626,0.04470523,-9.834388000000001,0,0,38.74057,1,1,7744,3872
5977,120095306,2,-0.003695245,-0.0001990538,-0.000840224,0.1040513,0.04070669,-9.832782,0,0,38.74055,1,1,7744,3872
5980,120097157,2,-0.003180674,-0.0006060037000000001,-0.001175793,0.1078022,0.03564657,-9.832072999999999,0,0,38.74053,1,1,7744,3872
5983,120099597,2,-0.003576877,-0.0009595915,-0.001408848,0.1075858,0.03405752,-9.833052,0,0,38.74051,1,1,7744,3872
5986,120102249,2,-0.005256261,-0.001329483,-0.001196866,0.1062312,0.03444896,-9.836069999999999,0,0,38.74047,1,1,7744,3872
6021,120105414,2,-0.005476729,-0.001435961,-0.0013701,0.1039305,0.03541358,-9.840104,0,0,38.74044,1,1,7744,3872
6024,120107710,2,-0.005440505,-0.001961637,-0.001460985,0.1004019,0.03769648,-9.849397,0,0,38.7404,1,1,7744,3872
6027,120109827,2,-0.00472023,-0.001883657,-0.0006213869,0.09712173,0.04065537,-9.856852,0,0,38.74038,1,1,7744,3872
6031,120112293,2,-0.00381734,-0.0007981232,0.001132217,0.09014221,0.04526298,-9.86754,0,0,38.74034,1,1,7744,3872
6066,120114855,2,-0.003370941,-0.000241724,0.001971292,0.08463078,0.0475699,-9.872134000000001,0,0,38.7403,1,1,7744,3872
6069,120117707,2,-0.002397774,0.0007810259,0.001869815,0.07851302,0.05100272,-9.874639999999999,0,0,38.74025,1,1,7744,3872
6072,120120094,2,-0.001767174,0.001557684,0.001335546,0.0763649,0.05415944,-9.87618,0,0,38.74022,1,1,7744,3872
6075,120122290,2,-0.001199042,0.001830331,0.0005756111,0.07607902,0.05726868,-9.880342000000001,0,0,38.74014,1,1,7744,3872
6110,120124849,2,-0.001436375,0.001959688,0.0003157109,0.07819988,0.05740998,-9.882880999999999,0,0,38.74006,1,1,7744,3872
6113,120127380,2,-0.00165037,0.001969945,-0.001258705,0.0823831,0.05354001,-9.882206999999999,0,0,38.73996,1,1,7744,3872
6116,120130821,2,-0.001463022,0.001780698,-0.002371276,0.08528185000000001,0.04951473,-9.878147,0,0,38.73986,1,1,7744,3872
6120,120133375,2,0.0001676017,0.0009587084,-0.00224985,0.09101539,0.04423146,-9.869144,0,0,38.73978,1,1,7744,3872
6155,120135800,2,-0.001109324,0.0008035139,-0.002074919,0.09484581,0.04111898,-9.863726,0,0,38.73968,1,1,7744,3872
6158,120138528,2,-0.001403292,0.001137257,-0.002280977,0.0981899,0.03739856,-9.855822,0,0,38.73963,1,1,7744,3872
6161,120141439,2,-0.0005844237,0.001428016,-0.003208442,0.09859286,0.03724606,-9.852898,0,0,38.7396,1,1,7744,3872
6164,120143516,2,0.0006267203,0.001880546,-0.003077549,0.09717275,0.04012249,-9.854504,0,0,38.73955,1,1,7744,3872
6199,120146562,2,0.0008516590000000001,0.002244705,-0.001762269,0.09450089,0.04383164,-9.858207,0,0,38.73951,1,1,7744,3872
6202,120148654,2,0.001662206,0.002150618,-0.0005654769,0.09259894,0.0456234,-9.860268,0,0,38.73948,1,1,7744,3872
6205,120150918,2,0.002761621,0.001816011,0.000320887,0.09119453,0.04776922,-9.858893,0,0,38.73947,1,1,7744,3872
6209,120153850,2,0.00365069,0.001465074,0.000190867,0.09120631999999999,0.05025015,-9.854768,0,0,38.73947,1,1,7744,3872
6244,120156513,2,0.002869511,0.001508456,-0.0004818007,0.09443446,0.04939791,-9.850472999999999,0,0,38.73949,1,1,7744,3872
6248,120159076,2,0.002025213,0.00215999,-0.0009947604000000001,0.09812806,0.04669606,-9.848264,0,0,38.73952,1,1,7744,3872
6251,120161332,2,0.002256897,0.003450899,-0.0008426208,0.1046635,0.04332744,-9.845401000000001,0,0,38.73956,1,1,7744,3872
6255,120164646,2,0.00285259,0.003771525,-0.0005732892,0.1092927,0.04211736,-9.843591,0,0,38.73959,1,1,7744,3872
6290,120167191,2,0.003134334,0.002963336,0.0002567116,0.1131474,0.04169199,-9.841265,0,0,38.73967,1,1,7744,3872
6293,120170094,2,0.002123172,0.001544035,0.001974492,0.1160939,0.03990255,-9.839131999999999,0,0,38.7397,1,1,7744,3872
6296,120172282,2,0.002257581,0.001455006,0.002088333,0.1160586,0.03703043,-9.836618,0,0,38.73974,1,1,7744,3872
6299,120175028,2,0.003088821,0.001256183,0.001274543,0.1115137,0.0306759,-9.838984,0,0,38.73985,1,1,7744,3872
6334,120177525,2,0.0006095454,0.002239028,0.0003955227,0.1087331,0.03027153,-9.838181000000001,0,0,38.73998,1,1,7744,3872
6341,120180344,2,0.002505742,0.000522282,-0.0009354534,0.1067547,0.03294633,-9.833759000000001,0,0,38.74002,1,1,7744,3872
6344,120182657,2,0.00408732,-0.0007331761,-0.003375986,0.1027532,0.0341701,-9.839026,0,0,38.7401,1,1,7744,3872
6349,120185601,2,0.001451443,0.001363045,-0.004103611,0.1010962,0.03552886,-9.843783999999999,0,0,38.74018,1,1,7744,3872
6384,120188865,2,0.0002197351,0.002478526,-0.003896689,0.09984952,0.03412588,-9.849936,0,0,38.74028,1,1,7744,3872
6387,120190396,2,0.003175647,0.001269928,-0.003944686,0.1023573,0.03095408,-9.845860999999999,0,0,38.74033,1,1,7744,3872
6390,120193151,2,0.00609422,-5.011248e-06,-0.004353365,0.1056923,0.02594843,-9.844131000000001,0,0,38.74038,1,1,7744,3872
6393,120195838,2,0.001570752,-0.001005146,-0.007174925,0.1106827,0.01928893,-9.848405,0,0,38.74047,1,1,7744,3872
6428,120198801,2,-0.001724129,-0.0002228869,-0.01005437,0.1190635,0.01256685,-9.851322,0,0,38.74058,1,1,7744,3872
6431,120201029,2,0.0006176456,9.370085000000001e-05,-0.01227884,0.1252068,0.01097468,-9.846188,0,0,38.74067,1,1,7744,3872
6435,120203380,2,0.00510161,-0.0006684099,-0.01332637,0.130157,0.01173195,-9.847448,0,0,38.74076,1,1,7744,3872
6439,120205664,2,0.001730938,-0.001086419,-0.01157468,0.1297693,0.01711827,-9.870126000000001,0,0,38.74081,1,1,7744,3872
6474,120208257,2,-0.006173302,0.002211546,-0.0100331,0.1276338,0.02685205,-9.876452,0,0,38.74085,1,1,7744,3872
6478,120211461,2,0.001468165,0.001064579,-0.01023244,0.125789,0.03166005,-9.867442,0,0,38.74087,1,1,7744,3872
6483,120213648,2,0.01300582,-0.002348388,-0.01067873,0.1210308,0.03553165,-9.867236999999999,0,0,38.74092,1,1,7744,3872
6486,120216059,2,0.005627848,-0.004722682,-0.007860041999999999,0.1071895,0.04638501,-9.893241,0,0,38.74102,1,1,7744,3872
6521,120225571,2,0.02014389,-0.004244252,0.01429064,0.07087784,0.06489035,-9.873866,0,0,38.74131,1,1,7744,3872
6525,120227808,2,-0.005426188,-0.003227254,0.01619447,0.06998966,0.06039125,-9.877704,0,0,38.74137,1,1,7744,3872
6560,120230636,2,-0.02335494,0.0007104016,0.01671912,0.07428267,0.05490421,-9.861635,0,0,38.74146,1,1,7744,3872
6563,120233087,2,0.003569561,-0.002943898,0.01431169,0.08598492000000001,0.04613741,-9.834408,0,0,38.74154,1,1,7744,3872
6566,120236016,2,0.02298674,-0.009813326000000001,0.01323354,0.09812837000000001,0.03570605,-9.840643,0,0,38.74165,1,1,7744,3872
6570,120238348,2,0.01235278,-0.008656015,0.01575208,0.09989742,0.03929821,-9.875752,0,0,38.74171,1,1,7744,3872
6605,120240832,2,-0.01827678,0.007494174,0.02300962,0.1109103,0.04717937,-9.877946,0,0,38.74181,1,1,7744,3872
6608,120243355,2,-0.0005304474,0.002897165,0.02335849,0.1166527,0.03857734,-9.844811,0,0,38.74191,1,1,7744,3872
6611,120245930,2,0.01289099,-0.007543004,0.0198784,0.112475,0.03204481,-9.859776,0,0,38.74197,1,1,7744,3872
6614,120248587,2,-0.001469345,-0.008927523999999999,0.01602974,0.1126798,0.03457657,-9.893489000000001,0,0,38.74209,1,1,7744,3872
6649,120251687,2,-0.01100104,-0.004468371,0.01308603,0.1174776,0.03694303,-9.889859,0,0,38.74223,1,1,7744,3872
6652,120254588,2,-0.0006558225,-0.003538121,0.01125059,0.1194307,0.03525826,-9.884487999999999,0,0,38.74234,1,1,7744,3872
6655,120256523,2,0.004430335,0.0003161433,0.009853816,0.1169953,0.03780048,-9.891498,0,0,38.74249,1,1,7744,3872
6659,120259242,2,-5.711335e-05,0.003756857,0.01017348,0.1147398,0.04001982,-9.894966999999999,0,0,38.74257,1,1,7744,3872
6694,120262090,2,-0.006622047,0.01261606,0.01047149,0.1140024,0.03995131,-9.875484,0,0,38.74271,1,1,7744,3872
6697,120264296,2,0.005921572,-0.0006178504,0.007526788,0.1097307,0.03634164,-9.837885999999999,0,0,38.74287,1,1,7744,3872
6700,120267371,2,0.0111036,-0.01324872,0.005346239,0.1028593,0.03933847,-9.849796,0,0,38.74294,1,1,7744,3872
6703,120269301,2,-0.007671646,-0.008131672,0.005514783,0.1068711,0.05179877,-9.869160000000001,0,0,38.74307,1,1,7744,3872
6738,120271983,2,-0.0121404,0.003486832,0.004975137,0.1192849,0.05844346,-9.854540999999999,0,0,38.7432,1,1,7744,3872
6741,120274849,2,0.005948525,0.01168677,0.0008522388,0.1302916,0.06024544,-9.836841,0,0,38.74331,1,1,7744,3872
6744,120276571,2,0.01104898,0.009316536,-0.001128369,0.1219702,0.06594201,-9.851671,0,0,38.74341,1,1,7744,3872
6748,120279845,2,-0.006962115,0.006098213,-7.169242999999999e-05,0.1073363,0.07294608,-9.871161000000001,0,0,38.74357,1,1,7744,3872
6783,120282412,2,-0.01101007,0.0003726114,0.0006221748,0.1012814,0.07153423,-9.842252,0,0,38.74363,1,1,7744,3872
6789,120285636,2,0.005314001,-0.006852246,-0.0001916675,0.1023156,0.06395281,-9.820527,0,0,38.7437,1,1,7744,3872
6792,120287124,2,0.008308637000000001,-0.006707355,-0.0003308383,0.09480663,0.06020298,-9.837032000000001,0,0,38.74379,1,1,7744,3872
6796,120290144,2,-0.003648853,0.005784152,0.001061066,0.08891295,0.0613267,-9.853648,0,0,38.74384,1,1,7744,3872
6831,120293268,2,-0.00646365,0.01975809,-0.0004615042,0.08600531,0.05824967,-9.848184,0,0,38.74388,1,1,7744,3872
6834,120295914,2,0.005998773,0.01377804,-0.005504393,0.08245663,0.04621382,-9.819886,0,0,38.74393,1,1,7744,3872
6837,120298063,2,0.009942207,0.001268835,-0.01087423,0.08002272000000001,0.04372552,-9.824807,0,0,38.74396,1,1,7744,3872
6841,120300652,2,-0.006087384,-0.006189438,-0.01266459,0.07753388999999999,0.04959032,-9.849159,0,0,38.74404,1,1,7744,3872
6876,120303319,2,-0.009886604,0.003533516,-0.007218049,0.08257006,0.05370421,-9.853196000000001,0,0,38.74413,1,1,7744,3872
6879,120306382,2,0.005156461,0.008427172,-0.006465577,0.09434534,0.05150159,-9.840260000000001,0,0,38.74416,1,1,7744,3872
6882,120308870,2,0.0182114,0.001862998,-0.01014128,0.1019307,0.04652881,-9.859070000000001,0,0,38.74424,1,1,7744,3872
6886,120310859,2,0.002368789,0.001105634,-0.01218706,0.1000557,0.04483153,-9.892571,0,0,38.74428,1,1,7744,3872
6921,120313443,2,-0.01579978,0.01265676,-0.01386557,0.0996049,0.0440686,-9.901398,0,0,38.74437,1,1,7744,3872
6924,120315883,2,-0.00230552,0.01198324,-0.01554295,0.1078473,0.04152736,-9.871991,0,0,38.74445,1,1,7744,3872
6929,120319279,2,0.02508347,-0.01009584,-0.01910935,0.1118846,0.0404898,-9.848454,0,0,38.74453,1,1,7744,3872
6932,120321585,2,0.0174444,-0.01465821,-0.01739697,0.1013668,0.04689296,-9.879303,0,0,38.74463,1,1,7744,3872
6967,120324215,2,-0.02061862,0.01418669,-0.007743801,0.09938602000000001,0.05020286,-9.90178,0,0,38.74483,1,1,7744,3872
6970,120326840,2,-0.01796221,0.01729012,-0.007716022,0.1038043,0.04199018,-9.87604,0,0,38.74492,1,1,7744,3872
6973,120329337,2,0.01260391,0.002847577,-0.01407573,0.1006279,0.02881245,-9.834168,0,0,38.74509,1,1,7744,3872
6977,120331956,2,0.0272894,-0.008772102,-0.01745306,0.0920364,0.02870119,-9.837536,0,0,38.74517,1,1,7744,3872
7012,120335709,2,0.009894382,-0.00329507,-0.01568474,0.08994773,0.03608616,-9.868081,0,0,38.74533,1,1,7744,3872
7015,120337824,2,-0.01905785,0.002308895,-0.01258989,0.1012567,0.03980169,-9.859163000000001,0,0,38.74548,1,1,7744,3872
7018,120339924,2,-0.01072132,-0.005762008,-0.01133164,0.1045529,0.03837305,-9.838143000000001,0,0,38.74557,1,1,7744,3872
7021,120342546,2,0.01964203,-0.01185856,-0.008835587000000001,0.1054542,0.03587678,-9.845024,0,0,38.74566,1,1,7744,3872
7056,120344899,2,0.01495658,0.001790214,-0.003612211,0.1146381,0.03580762,-9.876906999999999,0,0,38.74577,1,1,7744,3872
7059,120348025,2,-0.004166099,0.004382907,-0.002219816,0.1194527,0.03018462,-9.881496,0,0,38.74582,1,1,7744,3872
7062,120350941,2,-0.01677621,-0.001827371,-0.003769898,0.1182464,0.01921658,-9.876075999999999,0,0,38.7459,1,1,7744,3872
7066,120352564,2,-0.00773755,-0.01217792,-0.007540782,0.1155601,0.01011956,-9.870433,0,0,38.746,1,1,7744,3872
7101,120355107,2,-0.0009508446,-0.01368529,-0.00763408,0.1133014,0.007999253,-9.871608999999999,0,0,38.74609,1,1,7744,3872
7104,120357929,2,0.006314266,-0.01217148,-0.003246862,0.1027594,0.01266699,-9.895690999999999,0,0,38.74616,1,1,7744,3872
7107,120359895,2,-0.00405701,-0.008476799,0.002037165,0.09350462,0.01676271,-9.909997000000001,0,0,38.74623,1,1,7744,3872
7112,120362398,2,-0.01769307,-0.004810094,0.009106037000000001,0.08497369,0.01847804,-9.909637999999999,0,0,38.74632,1,1,7744,3872
7147,120365521,2,-0.01324039,-0.004041467,0.009872712000000001,0.08148443,0.01635491,-9.905525000000001,0,0,38.7464,1,1,7744,3872
7150,120367595,2,0.002675802,-0.00394396,0.005268716,0.07512813,0.01953327,-9.915972999999999,0,0,38.74647,1,1,7744,3872
7153,120370273,2,0.00628435,-0.002473968,0.002292732,0.07130586999999999,0.02607,-9.923863000000001,0,0,38.74655,1,1,7744,3872
7156,120372410,2,-0.004123333,-0.0006830452,0.003703672,0.07379258,0.03842231,-9.905666999999999,0,0,38.74661,1,1,7744,3872
7191,120375041,2,-0.00964052,-0.003581862,0.006822465,0.07701732999999999,0.04667722,-9.883481,0,0,38.74665,1,1,7744,3872
7194,120378033,2,-0.003313734,-0.004841801,0.01204706,0.07992191999999999,0.05898159,-9.875341000000001,0,0,38.74668,1,1,7744,3872
7197,120380026,2,0.004569511,0.001413892,0.01491282,0.08303111000000001,0.06670745,-9.881513999999999,0,0,38.74671,1,1,7744,3872
7201,120382851,2,0.009321417,0.01122455,0.01706725,0.08777704,0.07206271,-9.877659,0,0,38.74674,1,1,7744,3872
7236,120385328,2,0.002504943,0.004444176,0.01379107,0.09307492000000001,0.07127367,-9.857011999999999,0,0,38.74677,1,1,7744,3872
7242,120387929,2,-0.00318472,-0.002511899,0.009994698999999999,0.09192367,0.06713618,-9.855631000000001,0,0,38.7468,1,1,7744,3872
7245,120390641,2,-0.002910809,-0.002895685,0.008478121999999999,0.09084339,0.06026568,-9.859925,0,0,38.74681,1,1,7744,3872
7249,120393054,2,0.004791199,0.0008715501,0.009684577,0.09565914,0.05525786,-9.839426,0,0,38.74681,1,1,7744,3872
7285,120396077,2,0.0137926,0.0003443296,0.0131772,0.1046605,0.04577187,-9.799776,0,0,38.7468,1,1,7744,3872
7288,120398552,2,2.611622e-05,0.0009801266,0.01472411,0.1056302,0.03926694,-9.800827,0,0,38.7468,1,1,7744,3872
7291,120400586,2,-0.01032469,0.005730271,0.01451998,0.1092691,0.03700333,-9.810349,0,0,38.74678,1,1,7744,3872
7295,120403292,2,-0.008388217999999999,0.00584689,0.01266529,0.1125394,0.03435857,-9.81907,0,0,38.74677,1,1,7744,3872
7330,120405584,2,0.007061291,-0.006009846,0.007083232,0.1072911,0.03222531,-9.844232999999999,0,0,38.74672,1,1,7744,3872
7333,120408554,2,0.004137459,-0.009240217,0.006073041,0.1004476,0.03949454,-9.86523,0,0,38.7467,1,1,7744,3872
7336,120410926,2,-0.006033982,-0.002476499,0.00867149,0.1011457,0.04609214,-9.855560000000001,0,0,38.74669,1,1,7744,3872
7339,120413403,2,-0.006075083,0.007603719,0.01194212,0.1006451,0.05033755,-9.835016,0,0,38.7467,1,1,7744,3872
7374,120416406,2,0.004150346,0.01004947,0.01104389,0.09091891000000001,0.05435086,-9.828692999999999,0,0,38.7467,1,1,7744,3872
7377,120418280,2,0.01055771,0.01172764,0.009042003999999999,0.06288123,0.06350509,-9.873378000000001,0,0,38.74673,1,1,7744,3872
7382,120421342,2,0.007604739,0.01353138,0.007540151,0.04523173,0.06982617000000001,-9.909167999999999,0,0,38.74674,1,1,7744,3872
7386,120423248,2,0.0005632592000000001,0.01267045,0.005347717,0.03360058,0.07490905,-9.918472,0,0,38.74677,1,1,7744,3872
7423,120425965,2,0.005838793,0.004338861,0.001953908,0.02582145,0.08252391000000001,-9.893387000000001,0,0,38.7468,1,1,7744,3872
7426,120431168,2,0.02113406,0.009190949,0.005556388,0.05460555,0.1082425,-9.88574,0,0,38.74679,1,1,7744,3872
7430,120433999,2,0.0174026,0.01077591,0.006300106,0.08085691,0.1060151,-9.858824,0,0,38.74681,1,1,7744,3872
7465,120440622,2,0.0039802,-0.0003629864,-0.000823067,0.1640672,0.04039937,-9.839714000000001,0,0,38.74688,1,1,7744,3872
7468,120442852,2,0.001567435,-0.00285469,-0.001231549,0.1808,0.01072342,-9.873082,0,0,38.74688,1,1,7744,3872
7472,120445074,2,0.002035551,-0.009929864,0.001109797,0.1959576,-0.03377021,-9.922526,0,0,38.74686,1,1,7744,3872
7507,120447704,2,-0.0002290425,-0.01125606,0.002829383,0.2003709,-0.04693571,-9.931355,0,0,38.74683,1,1,7744,3872
7510,120450880,2,-0.005428175,-0.01173535,0.002500953,0.2131939,-0.07503157000000001,-9.924029000000001,0,0,38.74678,1,1,7744,3872
7513,120453936,2,-0.01098156,-0.01269347,0.0005781063,0.2071034,-0.07896443,-9.916798,0,0,38.74673,1,1,7744,3872
7517,120455617,2,-0.01263164,-0.004038001,-0.00136214,0.16461,-0.05447158,-9.931608000000001,0,0,38.74668,1,1,7744,3872
7552,120458397,2,0.003420187,0.007578101,-0.003175367,0.1055342,-0.002107064,-9.949289,0,0,38.74666,1,1,7744,3872
7556,120461384,2,0.01397507,0.005915993,-0.004637568,0.06011797,0.03649602,-9.958589999999999,0,0,38.74665,1,1,7744,3872
7559,120463539,2,0.005730335,0.0006968096,-0.006173359,-0.004722478,0.09486770999999999,-9.968596,0,0,38.74667,1,1,7744,3872
7562,120466379,2,0.0002436216,-0.0002518722,-0.006354441,-0.026864,0.1290628,-9.937787,0,0,38.74668,1,1,7744,3872
7597,120469083,2,0.02334438,-0.007105412,-0.009377955,-0.0238086,0.1559696,-9.842126,0,0,38.7467,1,1,7744,3872
7600,120472099,2,0.03793477,-0.01343975,-0.0121017,0.005641679,0.1566921,-9.794434000000001,0,0,38.74671,1,1,7744,3872
7603,120473942,2,0.0213717,-0.009466624999999999,-0.01108395,0.03721485,0.1440483,-9.808657,0,0,38.74672,1,1,7744,3872
7607,120477035,2,-0.01061884,0.002103074,-0.007663866,0.1017972,0.09498528000000001,-9.850495,0,0,38.74673,1,1,7744,3872
7642,120479937,2,-0.006010339,0.00115592,-0.01068963,0.1468916,0.04596158,-9.876561000000001,0,0,38.74672,1,1,7744,3872
7645,120482305,2,0.009149479,-0.005028524,-0.01463691,0.1853166,-0.003949477,-9.905538999999999,0,0,38.74673,1,1,7744,3872
7648,120485034,2,0.01232624,-0.01279643,-0.01760673,0.2252949,-0.05912287,-9.942036,0,0,38.74677,1,1,7744,3872
7652,120486942,2,0.006860708,-0.01383255,-0.01724827,0.2369368,-0.07527998,-9.946903000000001,0,0,38.7468,1,1,7744,3872
7687,120490077,2,-0.01320445,-0.008649557,-0.01210657,0.2179083,-0.0725208,-9.934996999999999,0,0,38.74684,1,1,7744,3872
7693,120492291,2,-0.02130032,0.00422668,-0.007743462,0.1830225,-0.05828009,-9.912302,0,0,38.74687,1,1,7744,3872
7696,120494329,2,-0.01669196,0.0180501,-0.005929012,0.1134098,-0.0241193,-9.824937,0,0,38.74689,1,1,7744,3872
7700,120497866,2,-5.934964e-06,0.0141255,-0.008794728999999999,0.05527413,0.005965938,-9.757509000000001,0,0,38.7469,1,1,7744,3872
7735,120500902,2,0.02193184,0.0004113815,-0.01290407,-0.0544178,0.07549886,-9.750857999999999,0,0,38.7469,1,1,7744,3872
7738,120503064,2,0.005924504,-0.006695217,-0.0104511,-0.08090965,0.1054656,-9.790077,0,0,38.74689,1,1,7744,3872
7741,120505669,2,-0.01744335,-0.01840779,-0.003574309,-0.07089727999999999,0.1192194,-9.835430000000001,0,0,38.74686,1,1,7744,3872
7745,120508382,2,-0.009940045999999999,-0.01727371,-0.0003954619,-0.03212218,0.1065612,-9.848924999999999,0,0,38.74685,1,1,7744,3872
7780,120510575,2,0.02155828,0.002046342,0.003636681,0.02946763,0.08356361,-9.854601000000001,0,0,38.74682,1,1,7744,3872
7783,120513620,2,0.02326928,0.01811273,0.005158311,0.1389372,0.04400618,-9.87041,0,0,38.74682,1,1,7744,3872
7786,120515902,2,0.01455346,0.01851225,0.004204084,0.1994919,0.01839231,-9.893984,0,0,38.74682,1,1,7744,3872
7789,120518923,2,-0.01989141,0.01129486,0.0006371292,0.2546976,-0.01344786,-9.933674999999999,0,0,38.74683,1,1,7744,3872
7824,120521279,2,-0.02697488,9.242115e-05,4.816912e-05,0.2691598,-0.02419051,-9.898342,0,0,38.74684,1,1,7744,3872
7827,120524071,2,-0.003823878,-0.008010991,0.0009089346,0.2502012,-0.02194778,-9.841191,0,0,38.74684,1,1,7744,3872
7830,120526887,2,0.01666254,-0.006223689,0.004674082,0.1740566,-0.006415674,-9.807827,0,0,38.74683,1,1,7744,3872
7834,120528988,2,-0.006336704,0.009145614,0.009751077,0.1032576,0.01177225,-9.829575,0,0,38.7468,1,1,7744,3872
7870,120532778,2,-0.04097893,0.02086578,0.01106602,-0.0003054806,0.0413404,-9.843574,0,0,38.74675,1,1,7744,3872
7873,120534409,2,-0.001993955,0.001636362,0.001872926,-0.08240720999999999,0.06527776,-9.853751000000001,0,0,38.74668,1,1,7744,3872
7876,120537968,2,0.02971177,-0.005632199,-0.003950898,-0.1066263,0.08115145999999999,-9.878238,0,0,38.74667,1,1,7744,3872
7879,120539503,2,0.01900731,0.009456974999999999,-0.003518737,-0.09466252,0.09902289,-9.893041999999999,0,0,38.74666,1,1,7744,3872
7914,120542084,2,-0.01177564,0.02360808,0.002058805,-0.02310863,0.117851,-9.870728,0,0,38.74667,1,1,7744,3872
7917,120545110,2,-0.01091577,0.02272619,0.003896667,0.04152411,0.1215589,-9.845102000000001,0,0,38.74669,1,1,7744,3872
7920,120546872,2,0.007403694,0.01416483,0.006490406,0.1100682,0.1237546,-9.836527,0,0,38.74672,1,1,7744,3872
7925,120549719,2,0.02985127,0.002608611,0.01085783,0.2083084,0.1282994,-9.865800999999999,0,0,38.74673,1,1,7744,3872
7960,120552562,2,0.00367644,0.002492644,0.01778553,0.2820125,0.1194081,-9.89105,0,0,38.74675,1,1,7744,3872
7963,120555102,2,-0.01786093,-0.0008781413,0.01943104,0.3055869,0.1017478,-9.877394000000001,0,0,38.74676,1,1,7744,3872
7966,120557087,2,-0.008910507,-0.01697439,0.01925888,0.2889219,0.06219034,-9.854011,0,0,38.74677,1,1,7744,3872
7971,120559809,2,0.008022342999999999,-0.01906278,0.02082189,0.2449738,0.02925302,-9.861261000000001,0,0,38.74678,1,1,7744,3872
8006,120562707,2,-0.0003554827,0.002821499,0.02424517,0.1541189,-0.02055512,-9.852378,0,0,38.74679,1,1,7744,3872
8009,120564876,2,-0.01414885,0.01652233,0.02112517,0.08900176999999999,-0.04666303,-9.798985,0,0,38.74679,1,1,7744,3872
8012,120567835,2,-0.004138133,0.0151746,0.008854954999999999,-0.008090936,-0.06157849,-9.721416,0,0,38.74677,1,1,7744,3872
8015,120569852,2,0.009459874,0.007232883,0.000559066,-0.05819258,-0.0410272,-9.728721999999999,0,0,38.74672,1,1,7744,3872
8050,120572492,2,0.009167438999999999,-0.004855293,-0.002752907,-0.08405714,0.004146928,-9.778064000000001,0,0,38.74669,1,1,7744,3872
8053,120575273,2,-0.0001058338,-0.01398515,0.0002365841,-0.07876126999999999,0.05706241,-9.840268,0,0,38.74664,1,1,7744,3872
8056,120577368,2,-0.005411892,-0.02314658,0.003369567,-0.004742957,0.1165253,-9.889957000000001,0,0,38.74659,1,1,7744,3872
8060,120580095,2,-0.00111731,-0.02894083,0.007306911,0.08151891999999999,0.1360229,-9.877974999999999,0,0,38.74655,1,1,7744,3872
8095,120582587,2,0.01161945,-0.01868401,0.01304999,0.2228146,0.124419,-9.841442000000001,0,0,38.74648,1,1,7744,3872
8098,120585338,2,0.005340477,0.01175153,0.01252142,0.3293811,0.07749068000000001,-9.805770000000001,0,0,38.74637,1,1,7744,3872
8101,120588180,2,0.0002485164,0.01933281,0.006854275,0.3629889,0.04382679,-9.762905,0,0,38.74633,1,1,7744,3872
8104,120590349,2,0.005235114,-0.001656511,-0.003872514,0.3405187,0.002585055,-9.713695,0,0,38.74621,1,1,7744,3872
8139,120593395,2,0.004938049,-0.01971082,-0.006804304,0.2847135,-0.005877031,-9.727306,0,0,38.74615,1,1,7744,3872
8145,120595298,2,-0.0005208573,-0.03057074,-0.001495944,0.1664794,0.01479744,-9.820415000000001,0,0,38.74608,1,1,7744,3872
8148,120597588,2,-0.002107025,-0.0221415,0.005864581,0.08279546,0.03373083,-9.891632,0,0,38.74606,1,1,7744,3872
8153,120600844,2,0.003125479,-0.008912474,0.01393065,-0.009510489,0.04593965,-9.920885,0,0,38.74602,1,1,7744,3872
8188,120603281,2,0.009399012,-0.01171566,0.0117176,-0.04933397,0.02569977,-9.880613,0,0,38.74596,1,1,7744,3872
8191,120606394,2,0.003795614,-0.008487791,0.004814968,-0.05427411,-0.001085681,-9.860476999999999,0,0,38.74593,1,1,7744,3872
8196,120608596,2,-0.008118271,0.006180417,-0.002960382,-0.04342169,-0.02660762,-9.850595999999999,0,0,38.74588,1,1,7744,3872
8199,120613864,2,0.003854335,0.01109274,-0.01613939,0.03575427,-0.04206593,-9.824621,0,0,38.74583,1,1,7744,3872
8234,120619640,2,-0.001049287,-0.0126386,-0.005923945,0.1497713,0.05382959,-9.973160999999999,0,0,38.74585,1,1,7744,3872
8239,120622227,2,-0.01097411,-0.003465102,-0.001308025,0.1963318,0.08171982,-9.959275,0,0,38.74587,1,1,7744,3872
8242,120624647,2,-0.001089315,-0.009897932999999999,-0.006060301,0.2371993,0.08697502999999999,-9.895408,0,0,38.74586,1,1,7744,3872
8277,120627597,2,0.003700559,-0.008459546,-0.01340634,0.2244864,0.06370056,-9.897639,0,0,38.74587,1,1,7744,3872
8280,120630010,2,-0.01089909,0.01397264,-0.01369056,0.1962277,0.03372038,-9.912198999999999,0,0,38.74588,1,1,7744,3872
8283,120632114,2,-0.02355243,0.03734111,-0.01378913,0.1626504,-0.008899794000000001,-9.886400999999999,0,0,38.7459,1,1,7744,3872
8286,120634527,2,-0.005744679,0.02671626,-0.01901134,0.1006652,-0.07450896999999999,-9.817750999999999,0,0,38.74593,1,1,7744,3872
8321,120637209,2,0.01336115,-0.01004482,-0.02260586,0.07543921000000001,-0.08855658,-9.821356,0,0,38.74594,1,1,7744,3872
8324,120640602,2,0.007573506,-0.01342634,-0.0207205,0.008782554,-0.09154333000000001,-9.927664,0,0,38.74594,1,1,7744,3872
8328,120643340,2,-0.02448145,-0.0034221,-0.008100611000000001,0.0003757873,-0.05796326,-9.994681999999999,0,0,38.74593,1,1,7744,3872
8331,120644894,2,-0.02807103,-0.005468693,-0.001707818,0.02126951,-0.03953464,-9.958550000000001,0,0,38.74593,1,1,7744,3872
8366,120647343,2,-0.005995501,-0.009975011000000001,0.0006460693,0.05566797,-0.01968134,-9.908871,0,0,38.74592,1,1,7744,3872
8370,120650378,2,-0.004451436,0.01445841,0.0001053932,0.07990729000000001,-0.008876337999999999,-9.909373,0,0,38.74591,1,1,7744,3872
8375,120653050,2,-0.02400932,0.06078318,-0.006455907,0.1179299,-0.004717289,-9.854625,0,0,38.74591,1,1,7744,3872
8378,120655640,2,-0.01163698,0.03811938,-0.0237145,0.1237705,-0.008058925999999999,-9.744712,0,0,38.7459,1,1,7744,3872
8413,120658133,2,0.0081352,-0.01326272,-0.03368867,0.0983044,0.02210253,-9.738156,0,0,38.74593,1,1,7744,3872
8416,120660827,2,0.002925974,-0.02101102,-0.02632455,0.08712594,0.06300530999999999,-9.791219999999999,0,0,38.74595,1,1,7744,3872
8419,120663290,2,-0.01401589,-0.007510136,-0.005675005,0.08646935,0.1171733,-9.855378999999999,0,0,38.74599,1,1,7744,3872
8423,120666299,2,-0.01021417,-0.00163244,0.00370873,0.08826083,0.1355713,-9.86983,0,0,38.74601,1,1,7744,3872
8460,120669037,2,0.01099927,0.01265728,0.005783959,0.09541783,0.1363353,-9.869293000000001,0,0,38.74602,1,1,7744,3872
8463,120672048,2,0.01376343,0.03077594,-0.0003031124,0.1189063,0.1052191,-9.838168,0,0,38.74603,1,1,7744,3872
8467,120673630,2,0.003670418,0.0407338,-0.01072254,0.1295447,0.06703329,-9.793255,0,0,38.74603,1,1,7744,3872
8471,120676746,2,-0.01469203,0.02212391,-0.0253403,0.1152154,0.009370358000000001,-9.730568999999999,0,0,38.74603,1,1,7744,3872
8506,120679720,2,-0.01669277,-0.005179934,-0.02008038,0.07661435,-0.01547208,-9.744165000000001,0,0,38.74602,1,1,7744,3872
8509,120681844,2,-0.007315628,-0.01186759,-0.005602564,0.05664256,-0.01391535,-9.807402,0,0,38.74601,1,1,7744,3872
8512,120683611,2,0.0004924714,-0.01517462,0.01096196,0.04596765,-0.005824366,-9.890841999999999,0,0,38.746,1,1,7744,3872
8515,120686214,2,-0.0005401200000000001,-0.01794898,0.02483053,0.05327464,0.01672955,-9.965795999999999,0,0,38.74596,1,1,7744,3872
8550,120688974,2,0.0003854312,-0.01201341,0.02354767,0.08093628999999999,0.03317967,-9.939647000000001,0,0,38.74593,1,1,7744,3872
8553,120691906,2,0.009332714000000001,0.002229269,0.008270635,0.1351269,0.04996241,-9.826459,0,0,38.74588,1,1,7744,3872
8557,120694321,2,0.006914811,0.008645697000000001,-0.004434232,0.1518709,0.0598958,-9.774443,0,0,38.74584,1,1,7744,3872
8561,120696180,2,-0.01638211,0.01564536,-0.01263939,0.1342381,0.08340823999999999,-9.757004999999999,0,0,38.7458,1,1,7744,3872
8599,120699076,2,-0.01929805,0.01243434,-0.007995857,0.1087991,0.09998981999999999,-9.754631,0,0,38.74578,1,1,7744,3872
8602,120701629,2,0.01458785,-0.01355001,0.00497719,0.08412008999999999,0.1093878,-9.769015,0,0,38.74574,1,1,7744,3872
8606,120704612,2,0.03003325,-0.03349983,0.01177396,0.06123262,0.113332,-9.832974,0,0,38.7457,1,1,7744,3872
8609,120706630,2,0.01940213,-0.03789441,0.01648189,0.04644229,0.1177924,-9.972115000000001,0,0,38.74565,1,1,7744,3872
8644,120709194,2,-0.006104202,-0.02127944,0.01601306,0.08214702,0.1064348,-9.967044,0,0,38.7456,1,1,7744,3872
8647,120711329,2,0.004961423,-0.01114413,0.01001346,0.1159254,0.09015064,-9.872966,0,0,38.74557,1,1,7744,3872
8652,120713856,2,0.03226321,-0.004511494,0.002502855,0.1370365,0.07347946,-9.787509,0,0,38.74552,1,1,7744,3872
8655,120717049,2,0.02981931,0.01110733,-0.002823108,0.1409365,0.05809835,-9.753714,0,0,38.74548,1,1,7744,3872
8690,120720019,2,-0.02512789,0.01553174,0.004388648,0.1172419,0.05324495,-9.75929,0,0,38.74541,1,1,7744,3872
8693,120722271,2,-0.02943923,0.001102508,0.01133811,0.08681177,0.04760668,-9.782239000000001,0,0,38.74536,1,1,7744,3872
8697,120724674,2,0.01875528,-0.02664097,0.01808776,0.0399423,0.03296326,-9.907914999999999,0,0,38.74531,1,1,7744,3872
8700,120727542,2,0.03392666,-0.03686915,0.02298256,0.03179838,0.02879761,-10.0016,0,0,38.74529,1,1,7744,3872
8735,120730352,2,0.01120884,-0.03857288,0.02646759,0.04222054,0.03111737,-10.03071,0,0,38.74527,1,1,7744,3872
8738,120732651,2,0.005155284,-0.02519103,0.02371326,0.08024724,0.03753627,-9.92337,0,0,38.74524,1,1,7744,3872
8741,120735048,2,0.02985363,0.01065432,0.01424248,0.1110648,0.04427452,-9.829663999999999,0,0,38.74521,1,1,7744,3872
8744,120738611,2,0.02827404,0.03254049,0.007161456,0.1297812,0.06688326,-9.795413999999999,0,0,38.74517,1,1,7744,3872
8747,120740365,2,-0.01305282,0.03511591,0.001718793,0.1042224,0.09683741,-9.819736000000001,0,0,38.74514,1,1,7744,3872
8782,120743267,2,-0.01393516,0.010765,0.0007487559,0.078541,0.1082148,-9.827859,0,0,38.74511,1,1,7744,3872
8786,120745581,2,0.03039159,-0.03241176,0.002141885,0.04963019,0.1052331,-9.899046,0,0,38.74506,1,1,7744,3872
8789,120748619,2,0.03304231,-0.04104901,0.00731217,0.05193575,0.09653754000000001,-9.966481999999999,0,0,38.74503,1,1,7744,3872
8792,120751053,2,-0.00458113,-0.02247981,0.01609721,0.08281579999999999,0.07430305,-9.976758999999999,0,0,38.745,1,1,7744,3872
8827,120753517,2,0.01046142,0.01770486,0.01323548,0.1259665,0.03179415,-9.866275,0,0,38.74498,1,1,7744,3872
8830,120756227,2,0.0433817,0.04011558,0.00363377,0.1492204,0.004790913,-9.809456000000001,0,0,38.74497,1,1,7744,3872
8833,120758626,2,0.02344838,0.04163501,-0.01078993,0.1551123,-0.01117584,-9.801728000000001,0,0,38.74494,1,1,7744,3872
8836,120761279,2,-0.04058908,0.01361157,-0.01395138,0.1389357,-0.008337178000000001,-9.797257,0,0,38.7449,1,1,7744,3872
8871,120764095,2,-0.03023047,-0.006501851,-0.009452656,0.1190545,-0.006714162,-9.780716,0,0,38.74486,1,1,7744,3872
8875,120766349,2,0.008081235000000001,-0.0218602,-0.0009577714,0.1029845,-0.01143451,-9.804721000000001,0,0,38.74482,1,1,7744,3872
8878,120769560,2,0.02170621,-0.02643136,0.01000333,0.08498506,-0.01438494,-9.947105000000001,0,0,38.74474,1,1,7744,3872
8881,120771269,2,-0.008300477000000001,-0.004876832,0.02335511,0.08627487,-0.005907036,-10.00488,0,0,38.74467,1,1,7744,3872
8916,120773565,2,-0.006524273,0.01825121,0.02102938,0.1050201,-0.01057958,-9.923513,0,0,38.7446,1,1,7744,3872
8919,120776705,2,0.03165374,0.03796111,-0.002743965,0.1273596,-0.01400215,-9.788119999999999,0,0,38.74453,1,1,7744,3872
8922,120779214,2,0.02146187,0.04144354,-0.01822177,0.1151583,0.009028883999999999,-9.764212000000001,0,0,38.7445,1,1,7744,3872
8925,120781053,2,-0.03565925,0.03508284,-0.02520246,0.07792741,0.06939376,-9.726910999999999,0,0,38.74446,1,1,7744,3872
8960,120783513,2,-0.03108042,0.01235154,-0.02204819,0.05971285,0.1013714,-9.690583,0,0,38.74443,1,1,7744,3872
8964,120785975,2,0.009260335,-0.01938926,-0.01578761,0.04354219,0.1193341,-9.726998,0,0,38.74441,1,1,7744,3872
8969,120789334,2,0.02562346,-0.03029762,0.0005586502,0.0386386,0.1349432,-9.919185000000001,0,0,38.74438,1,1,7744,3872
8972,120791488,2,-0.01117928,0.01079149,0.01266135,0.06800779999999999,0.1320086,-9.986288999999999,0,0,38.74434,1,1,7744,3872
9007,120794477,2,0.01457526,0.03770215,0.001187682,0.1393798,0.08358396,-9.895625000000001,0,0,38.74428,1,1,7744,3872
9011,120796595,2,0.03071549,0.03808655,-0.007187973,0.177018,0.03965998,-9.811251,0,0,38.74426,1,1,7744,3872
9014,120799023,2,0.03699318,0.03062856,-0.0235901,0.1973603,0.009590839,-9.770768,0,0,38.74423,1,1,7744,3872
9020,120802251,2,-0.02700229,0.01233104,-0.03247439,0.1975866,-0.004954895,-9.730054000000001,0,0,38.7442,1,1,7744,3872
9055,120805102,2,-0.04479787,-0.008619234,-0.02007989,0.1717457,-0.01515576,-9.683355000000001,0,0,38.74417,1,1,7744,3872
9059,120807307,2,0.008041853,-0.03030084,-0.0004621284,0.1252914,-0.02490218,-9.808714,0,0,38.74416,1,1,7744,3872
9062,120809874,2,0.01055092,-0.03127699,0.01214034,0.09630439,-0.0180103,-9.962517,0,0,38.74416,1,1,7744,3872
9065,120812350,2,-0.01764781,-0.006309568,0.02274672,0.08186939,-0.01027897,-10.03821,0,0,38.74414,1,1,7744,3872
9102,120815551,2,-0.003848888,0.01228579,0.01552002,0.09596407,-0.02004995,-9.947234999999999,0,0,38.74414,1,1,7744,3872
9105,120820630,2,-0.02011901,0.008412960000000001,-0.0303689,0.1057408,0.009878173000000001,-9.744877000000001,0,0,38.74412,1,1,7744,3872
9109,120823054,2,-0.04580575,0.003016896,-0.02078874,0.09313376,0.05679692,-9.688959000000001,0,0,38.74408,1,1,7744,3872
9144,120829030,2,0.02414208,-0.04774613,-0.002318264,0.08501135,0.07753404,-9.859940999999999,0,0,38.74397,1,1,7744,3872
9147,120831262,2,0.0004331364,-0.04491575,0.01278682,0.1129202,0.08902425,-10.06087,0,0,38.74393,1,1,7744,3872
9151,120833706,2,-0.011204,-0.01479,0.01603341,0.1558098,0.07300065999999999,-10.06394,0,0,38.74389,1,1,7744,3872
9186,120836092,2,0.02469326,0.0189074,-0.001394041,0.2215532,0.01981503,-9.929238,0,0,38.74385,1,1,7744,3872
9189,120839342,2,0.03389456,0.0141467,-0.01841084,0.2375487,-0.005511497,-9.851418000000001,0,0,38.74383,1,1,7744,3872
9192,120841853,2,-0.02697592,-0.004161786,-0.02506271,0.2110365,-0.01383437,-9.771825,0,0,38.74379,1,1,7744,3872
9195,120843816,2,-0.05510624,-0.009926117,-0.01513935,0.1800923,-0.01546301,-9.713676,0,0,38.74377,1,1,7744,3872
9230,120846053,2,-0.01186778,-0.03355681,0.003376709,0.1203747,-0.02075732,-9.764554,0,0,38.74376,1,1,7744,3872
9233,120848572,2,0.01330352,-0.05005512,0.01518302,0.07069295,-0.009293897000000001,-9.942491,0,0,38.74374,1,1,7744,3872
9236,120852596,2,-0.004866617,-0.02821966,0.03128258,0.02120284,0.02641444,-10.18206,0,0,38.74373,1,1,7744,3872
9239,120855056,2,-0.005502647,0.008235762000000001,0.03098353,0.03186884,0.03544585,-10.15816,0,0,38.74371,1,1,7744,3872
9243,120856879,2,0.03424969,0.01525495,0.004606623,0.06742199,0.03118853,-10.01027,0,0,38.7437,1,1,7744,3872
9278,120859549,2,0.02822764,-0.004819934,-0.01530875,0.09391497,0.04492627,-9.805315,0,0,38.74369,1,1,7744,3872
9281,120862233,2,-0.01511567,-0.002657987,-0.02078847,0.09214501999999999,0.07773894000000001,-9.732906,0,0,38.74368,1,1,7744,3872
9284,120864545,2,-0.03718689,0.01775401,-0.007382562,0.1092973,0.1097182,-9.647835000000001,0,0,38.74366,1,1,7744,3872
9288,120867116,2,0.0002597909,-0.006075653,0.000581702,0.1078994,0.1085654,-9.709944999999999,0,0,38.74365,1,1,7744,3872
9323,120869511,2,0.02518992,-0.0468403,0.01233246,0.07657354,0.1111974,-10.00837,0,0,38.74364,1,1,7744,3872
9327,120872315,2,0.01283359,-0.002669241,0.02473286,0.09880401,0.100925,-10.1634,0,0,38.74363,1,1,7744,3872
9330,120875304,2,0.0273496,0.03368827,0.01946724,0.1476068,0.06127918,-10.07498,0,0,38.74363,1,1,7744,3872
9333,120877812,2,0.0368944,0.02466101,-0.006466499,0.1755392,-0.0009339857,-9.881516,0,0,38.74366,1,1,7744,3872
9368,120880405,2,-0.0264723,0.01152486,-0.01459493,0.139619,-0.01400695,-9.765333,0,0,38.74369,1,1,7744,3872
9371,120883306,2,-0.04722281,0.01775451,-0.006223176,0.1232858,-0.02076397,-9.696991000000001,0,0,38.74371,1,1,7744,3872
9375,120886008,2,-0.007478563,-0.01454349,0.008676122,0.075907,-0.04042599,-9.762600000000001,0,0,38.74374,1,1,7744,3872
9379,120887895,2,0.009756549,-0.0413058,0.01936304,0.04690901,-0.03774632,-9.851633,0,0,38.74376,1,1,7744,3872
9414,120890671,2,0.01230434,0.00522827,0.03688411,-0.02831304,0.005352134,-10.1358,0,0,38.74378,1,1,7744,3872
9417,120892880,2,0.01988637,0.03460157,0.03854087,-0.0192308,0.02794623,-10.15316,0,0,38.74379,1,1,7744,3872
9420,120895610,2,0.04763554,0.05757869,0.01703113,0.04198181,0.02826311,-9.913078000000001,0,0,38.74381,1,1,7744,3872
9423,120898486,2,0.02647789,0.02186711,-0.006728871,0.04668989,0.04312611,-9.761075999999999,0,0,38.74383,1,1,7744,3872
9458,120901339,2,-0.04199002,0.01944641,-0.02012335,0.05124281,0.09386263,-9.603253,0,0,38.74385,1,1,7744,3872
9461,120903691,2,-0.01454317,0.01051794,-0.01432771,0.1002066,0.1124749,-9.548412000000001,0,0,38.74386,1,1,7744,3872
9467,120906231,2,0.01854956,-0.02506636,-0.005384086,0.0924075,0.1217849,-9.704257999999999,0,0,38.74387,1,1,7744,3872
9471,120908616,2,0.03459999,-0.01268462,0.02015222,0.05914665,0.1528812,-10.03735,0,0,38.7439,1,1,7744,3872
9507,120911702,2,0.06238773,0.06919681,0.03423322,0.1298199,0.1180265,-10.04356,0,0,38.74395,1,1,7744,3872
9510,120913416,2,0.06120327,0.06452655,0.02118924,0.1769247,0.0614002,-9.911472,0,0,38.744,1,1,7744,3872
9514,120916797,2,0.01519412,0.02402456,0.0005310039,0.1792964,0.03820707,-9.849736999999999,0,0,38.74403,1,1,7744,3872
9517,120918531,2,-0.04718139,-0.001055508,-0.01642782,0.1496758,0.005370178,-9.685197000000001,0,0,38.74409,1,1,7744,3872
9554,120921694,2,-0.02650363,-0.01623485,-0.01480837,0.1599884,-0.02531789,-9.57823,0,0,38.74413,1,1,7744,3872
9557,120923953,2,0.008156978,-0.05225725,-0.00526241,0.1354595,-0.03366974,-9.673973999999999,0,0,38.74416,1,1,7744,3872
9560,120926946,2,0.02881129,-0.04313146,0.0237329,0.05228871,0.0130938,-9.948642,0,0,38.74417,1,1,7744,3872
9564,120928912,2,0.04566868,0.02305462,0.03957884,0.05170465,0.03724883,-10.00771,0,0,38.74419,1,1,7744,3872
9599,120931326,2,0.05044668,0.06575823,0.02502544,0.09700764000000001,0.03040011,-9.905476,0,0,38.74422,1,1,7744,3872
9602,120934595,2,0.008481908999999999,0.03765825,-0.003202126,0.08749634000000001,0.04242041,-9.824236000000001,0,0,38.74427,1,1,7744,3872
9605,120936409,2,-0.03640982,-0.00528083,-0.0374956,0.07689429,0.08639757000000001,-9.693018,0,0,38.74431,1,1,7744,3872
9609,120939391,2,-0.01162974,-0.04207398,-0.04450567,0.1017413,0.1023806,-9.671106,0,0,38.74434,1,1,7744,3872
9644,120941868,2,0.02704325,-0.08757912,-0.02173327,0.10188,0.1421833,-9.846031,0,0,38.74438,1,1,7744,3872
9647,120945601,2,0.0492814,-0.01806248,0.02627883,0.1096609,0.1750321,-9.980559,0,0,38.74441,1,1,7744,3872
9650,120947109,2,0.05834496,0.05469917,0.04243814,0.1684847,0.106381,-9.952237999999999,0,0,38.74438,1,1,7744,3872
9653,120949709,2,0.01518814,0.04926948,0.02687503,0.1732447,0.07290486,-9.946201,0,0,38.74435,1,1,7744,3872
9688,120952541,2,-0.03785308,0.02247071,0.001855181,0.1294884,-0.00432961,-9.930311,0,0,38.74431,1,1,7744,3872
9691,120954599,2,-0.04117991,-0.01678315,-0.02120032,0.09815044000000001,-0.04342204,-9.901934000000001,0,0,38.74425,1,1,7744,3872
9695,120958091,2,0.000494741,-0.06870449000000001,-0.03280133,0.0704245,-0.07474155,-9.916867,0,0,38.74422,1,1,7744,3872
9699,120960892,2,0.04040228,-0.09784883,-0.01472249,0.01269223,-0.06229048,-10.02199,0,0,38.74418,1,1,7744,3872
9702,120962708,2,0.02747588,-0.02374945,0.02440662,0.008761100000000001,-0.02393897,-10.02522,0,0,38.74414,1,1,7744,3872
9737,120965495,2,-0.007560199,0.03620171,0.03102452,0.05396906,-0.04921747,-10.00412,0,0,38.74409,1,1,7744,3872
9741,120968400,2,-0.04372522,0.03444653,0.01056732,0.07145315000000001,-0.06393266,-10.01653,0,0,38.74406,1,1,7744,3872
9744,120970656,2,-0.03151607,-0.008433604000000001,-0.03201763,0.09005496,-0.04316015,-10.03131,0,0,38.74405,1,1,7744,3872
9747,120973226,2,0.01421989,-0.04165589,-0.04798897,0.09418178000000001,-0.01531499,-10.10726,0,0,38.74404,1,1,7744,3872
9782,120976389,2,0.02973592,-0.04690292,-0.03388802,0.1043349,0.05571492,-10.19857,0,0,38.74405,1,1,7744,3872
9785,120979309,2,-0.006699856,-0.02172916,0.008938731,0.1307551,0.112939,-10.16164,0,0,38.74408,1,1,7744,3872
9789,120980915,2,-0.02919918,-0.002361907,0.03250673,0.1427629,0.1102433,-10.14126,0,0,38.74409,1,1,7744,3872
9792,120983564,2,-0.03556199,0.00332828,0.03682053,0.1662031,0.05921489,-10.11775,0,0,38.7441,1,1,7744,3872
9827,120986390,2,-0.005697858,-0.00665853,0.02116262,0.150921,0.01214716,-10.137,0,0,38.74409,1,1,7744,3872
9830,120989548,2,0.0311783,-0.01129938,0.001345261,0.120372,-0.01146686,-10.14505,0,0,38.74408,1,1,7744,3872
9833,120992201,2,0.02980723,-0.01173886,-0.0221217,0.0952467,-0.01918566,-10.03787,0,0,38.74405,1,1,7744,3872
9836,120993898,2,0.002601772,-0.02395812,-0.02974691,0.08872336,-0.013869,-9.953438,0,0,38.74404,1,1,7744,3872
9871,120996911,2,-0.07236499,-0.0240305,-0.02233242,0.07104067999999999,-0.01712702,-9.963851,0,0,38.744,1,1,7744,3872
9874,120999256,2,-0.09282147,-0.001109669,-0.007505605,0.06983826999999999,-0.006407289,-9.972137999999999,0,0,38.74396,1,1,7744,3872
9878,121001637,2,0.0127433,0.03330821,0.01005874,0.08414658,0.002871695,-9.895200000000001,0,0,38.74393,1,1,7744,3872
9881,121004538,2,0.07365888,0.04403385,0.01251763,0.1021664,-0.006212869,-9.784860999999999,0,0,38.74392,1,1,7744,3872
9916,121007701,2,0.009937624000000001,0.009047701999999999,0.003695892,0.1374026,-0.008480399,-9.621665,0,0,38.74388,1,1,7744,3872
9922,121009721,2,-0.130765,-0.02932318,-0.006291281,0.1449849,-0.02425865,-9.612216999999999,0,0,38.74388,1,1,7744,3872
9925,121012287,2,-0.148322,-0.02142661,-0.005657,0.1413361,-0.02552188,-9.620407999999999,0,0,38.74388,1,1,7744,3872
9929,121015241,2,0.02032467,0.01166986,0.001811431,0.1266258,0.009475769,-9.610125999999999,0,0,38.74386,1,1,7744,3872
9964,121018595,2,0.1192517,0.03048166,0.006869347,0.1021254,0.06654351,-9.587903000000001,0,0,38.74384,1,1,7744,3872
9967,121020669,2,0.03239303,0.02546862,0.008396182,0.1015177,0.1050795,-9.571441999999999,0,0,38.74383,1,1,7744,3872
9973,121023401,2,-0.1100721,0.008763131,0.001800873,0.09445771,0.1062527,-9.600196,0,0,38.74382,1,1,7744,3872
9976,121031898,2,0.1427156,-0.01327143,-0.005042566,0.07817059,0.06385877,-9.653226999999999,0,0,38.74378,1,1,7744,3872
10011,121034651,2,-0.1308865,-0.02203405,0.03049556,0.07631794,0.05817544,-9.889552,0,0,38.74376,1,1,7744,3872
10014,121037583,2,-0.2287491,0.01219795,0.0437837,0.0814338,0.03793527,-9.929861000000001,0,0,38.74374,1,1,7744,3872
10017,121039881,2,-0.003548313,0.05295825,0.01930531,0.1307671,-0.003689299,-9.755341,0,0,38.74371,1,1,7744,3872
10020,121042509,2,0.1960304,0.02389554,-0.01547918,0.1634163,-0.006189638,-9.682902,0,0,38.74369,1,1,7744,3872
10055,121045295,2,0.09326369,-0.06000715,-0.04470488,0.1887933,0.02167709,-9.786685,0,0,38.74367,1,1,7744,3872
10059,121048704,2,-0.1591484,-0.0778209,-0.03373416,0.2026545,0.09625161,-10.03995,0,0,38.74364,1,1,7744,3872
10062,121050630,2,-0.2380575,0.02071751,0.004011814,0.2069923,0.1549159,-10.02254,0,0,38.74364,1,1,7744,3872
10067,121053172,2,0.02245351,0.08053809000000001,0.01508051,0.2328536,0.1718651,-9.851338,0,0,38.74366,1,1,7744,3872
10102,121056361,2,0.3213004,0.01489475,0.009510798000000001,0.2061054,0.1651334,-9.926888,0,0,38.74371,1,1,7744,3872
10105,121058370,2,-0.02871284,-0.06486585,0.01636728,0.1069779,0.1767432,-10.33949,0,0,38.74374,1,1,7744,3872
10108,121061068,2,-0.2906329,-0.04006366,0.02700506,0.0755502,0.1976303,-10.32555,0,0,38.74376,1,1,7744,3872
10111,121064013,2,-0.05971289,0.007215302,0.01239057,0.1225676,0.1766279,-9.859381000000001,0,0,38.74378,1,1,7744,3872
10146,121067636,2,0.3639415,-0.06077699,-0.03102586,0.1482676,0.1119584,-9.833911000000001,0,0,38.7438,1,1,7744,3872
10149,121069594,2,0.07881665,-0.04675553,-0.02585146,0.1052301,0.09852864,-10.36566,0,0,38.74381,1,1,7744,3872
10152,121072031,2,-0.2595161,0.05163734,0.01083785,0.09825618,0.09985613,-10.44448,0,0,38.74382,1,1,7744,3872
10155,121074820,2,-0.1606893,0.09752956,0.03896833,0.1200353,0.01270393,-9.994323,0,0,38.74385,1,1,7744,3872
10190,121077541,2,0.1798486,-0.007257394,0.01869417,0.08552422,-0.09855591,-9.878795999999999,0,0,38.74388,1,1,7744,3872
10194,121079928,2,0.3269845,-0.09823419,-0.006450506,0.02022282,-0.1397433,-10.07043,0,0,38.74392,1,1,7744,3872
10197,121083236,2,0.04749863,-0.05705817,-0.004775089,-1.25859e-05,-0.03910286,-10.36552,0,0,38.744,1,1,7744,3872
10200,121085596,2,-0.1770785,-0.00436066,0.007326611,0.06585352999999999,0.02676765,-10.23319,0,0,38.74408,1,1,7744,3872
10235,121088101,2,-0.01090516,-0.03161663,-0.007985314,0.07046669999999999,0.06386181,-9.966002,0,0,38.74419,1,1,7744,3872
10238,121090846,2,0.1824883,0.01729312,-0.0117607,0.0390484,0.104655,-10.02825,0,0,38.74423,1,1,7744,3872
10241,121093544,2,0.2495736,0.0776009,-0.003515663,0.04444161,0.1486471,-10.07112,0,0,38.74429,1,1,7744,3872
10244,121096493,2,0.04695375,0.03116237,0.01019357,0.03343064,0.1570716,-9.973794,0,0,38.74442,1,1,7744,3872
10279,121099562,2,-0.1341706,-0.06509690999999999,0.01359626,-0.01843954,0.1452559,-9.792541999999999,0,0,38.74456,1,1,7744,3872
10283,121101641,2,0.06267908,-0.0405795,0.008517113,0.04311021,0.135774,-9.585668999999999,0,0,38.74468,1,1,7744,3872
10286,121104497,2,0.2339503,-0.0190712,0.0003317391,0.07581755,0.09995440999999999,-9.571669,0,0,38.74475,1,1,7744,3872
10289,121106856,2,0.1303773,0.02689399,0.00285615,0.06685638000000001,0.0423964,-9.687682000000001,0,0,38.74487,1,1,7744,3872
10324,121109845,2,-0.1635145,0.02611474,0.01941254,0.08576506,-0.03632855,-9.813470000000001,0,0,38.745,1,1,7744,3872
10328,121112518,2,-0.1720862,0.01221736,0.02119563,0.107716,-0.1048832,-9.694610000000001,0,0,38.74509,1,1,7744,3872
10332,121114555,2,0.05454075,-0.007569278,0.009859319,0.08827101,-0.230195,-9.531332000000001,0,0,38.74525,1,1,7744,3872
10338,121117286,2,0.2050291,0.02237835,0.0004813416,0.07294942,-0.2333014,-9.544346000000001,0,0,38.74533,1,1,7744,3872
10373,121120276,2,0.1257129,0.009983184000000001,-0.0005679351999999999,0.08881079,-0.1691623,-9.661395000000001,0,0,38.74549,1,1,7744,3872
10377,121122548,2,-0.153038,-0.07085086,0.001532022,0.09141022,-0.1415996,-9.652049,0,0,38.74561,1,1,7744,3872
10380,121125504,2,-0.2115338,-0.06542806,0.009944309,0.09278993000000001,-0.1050096,-9.631558,0,0,38.74567,1,1,7744,3872
10383,121127643,2,0.07606607999999999,0.001009665,0.02598987,0.1230691,-0.01785391,-9.481354,0,0,38.74579,1,1,7744,3872
10418,121130307,2,0.266579,0.04219005,0.02752308,0.09492440000000001,0.01041007,-9.455297,0,0,38.74585,1,1,7744,3872
10422,121133362,2,0.09796421,0.05857674,0.02636168,0.09315344,0.03753232,-9.386889999999999,0,0,38.74589,1,1,7744,3872
10425,121135922,2,-0.2316464,-0.01942039,0.02067434,0.09187178999999999,0.06132942,-9.31447,0,0,38.74595,1,1,7744,3872
10428,121137823,2,-0.2164979,-0.05490294,0.007551386,0.05628943,0.05731563,-9.287826000000001,0,0,38.74598,1,1,7744,3872
10463,121140353,2,0.003051521,-0.04073323,-0.00436858,0.01243881,-0.01017941,-9.285151000000001,0,0,38.74601,1,1,7744,3872
10466,121143515,2,0.195494,-0.001192873,-0.002634333,0.01134037,-0.05431762,-9.352879,0,0,38.74603,1,1,7744,3872
10469,121146020,2,0.1187698,-0.006405263,0.02256376,0.03584862,-0.09725568,-9.474619000000001,0,0,38.74605,1,1,7744,3872
10472,121149036,2,-0.1749508,-0.05271855,0.03533899,0.1040612,-0.1328941,-9.463789,0,0,38.74607,1,1,7744,3872
10507,121152124,2,-0.1341362,-0.04396578,0.02442699,0.199541,-0.1572331,-9.427277999999999,0,0,38.74606,1,1,7744,3872
10511,121154576,2,0.01384073,-0.003961904,0.0111163,0.220945,-0.1261205,-9.495414999999999,0,0,38.74605,1,1,7744,3872
10515,121156929,2,0.1276499,0.05055626,-0.006389844,0.1901941,-0.104224,-9.780187,0,0,38.74604,1,1,7744,3872
10518,121160570,2,-0.1052438,-0.01332127,-0.002238521,0.1569452,-0.1157715,-9.914998000000001,0,0,38.74601,1,1,7744,3872
10521,121161996,2,-0.2538115,-0.06310944,0.02826832,0.05615273,-0.108016,-10.02323,0,0,38.74598,1,1,7744,3872
10557,121165329,2,-0.1013615,-0.01003786,0.04175012,0.04891536,-0.0906547,-9.932529000000001,0,0,38.74597,1,1,7744,3872
10560,121167137,2,0.1461219,0.01141753,0.03659132,0.08243855999999999,-0.1048737,-9.877526,0,0,38.74595,1,1,7744,3872
10563,121170460,2,0.1330914,-0.02549593,0.01068164,0.08756398999999999,-0.1099852,-9.985398999999999,0,0,38.74594,1,1,7744,3872
10566,121172397,2,-0.2446403,-0.002246901,-0.003316399,0.04967613,-0.06752316,-10.2135,0,0,38.74594,1,1,7744,3872
10601,121175322,2,-0.2858761,-0.002141526,-0.01004373,0.1136065,-0.04635409,-10.08725,0,0,38.74594,1,1,7744,3872
10604,121177794,2,-0.08406209000000001,-0.04123931,-0.01854741,0.1260133,-0.07292016,-10.03862,0,0,38.74595,1,1,7744,3872
10607,121181381,2,0.1069084,-0.02832535,-0.01792424,0.06320381,-0.05852006,-10.20645,0,0,38.74597,1,1,7744,3872
10610,121183544,2,0.122002,0.1020967,0.006681076,0.07674707,0.04359221,-10.27655,0,0,38.74601,1,1,7744,3872
10645,121186287,2,-0.1842801,-0.05001757,0.01382765,0.1649542,0.04622001,-10.14988,0,0,38.74605,1,1,7744,3872
10649,121188615,2,-0.2692703,-0.07615624,0.009098937,0.1063431,0.05757075,-10.22973,0,0,38.74607,1,1,7744,3872
10652,121191669,2,0.02021495,0.04600503,0.009562651,0.1630234,0.1231468,-9.982163999999999,0,0,38.74609,1,1,7744,3872
10655,121194530,2,0.2506081,0.03260743,0.002937472,0.2007438,0.1032767,-9.868323,0,0,38.74611,1,1,7744,3872
10690,121197330,2,0.05012714,-0.02515955,-0.006621591,0.07751655,0.1063157,-10.02698,0,0,38.74614,1,1,7744,3872
10694,121199712,2,-0.2893881,0.05691607,0.0006304572,0.04707246,0.1711587,-10.03124,0,0,38.74617,1,1,7744,3872
10697,121202608,2,-0.1812373,0.03192255,-0.009517111999999999,0.1043547,0.2008114,-9.829473,0,0,38.74619,1,1,7744,3872
10700,121205274,2,0.04407901,-0.01532231,-0.02943741,0.0609687,0.1238539,-9.861751,0,0,38.74623,1,1,7744,3872
10735,121207919,2,0.1569086,0.07214168,-0.03435711,-0.007992229999999999,0.1085246,-10.03962,0,0,38.74627,1,1,7744,3872
10738,121210517,2,-0.002626475,0.03803486,-0.01162846,0.09175161,0.1061715,-9.815125999999999,0,0,38.74632,1,1,7744,3872
10741,121213344,2,-0.1416288,-0.07091992,-0.005156543,0.06671386999999999,0.05236914,-9.797319999999999,0,0,38.74634,1,1,7744,3872
10744,121216405,2,-0.1596056,0.0035972,0.0002544051,0.0391302,0.04146783,-9.903911000000001,0,0,38.74639,1,1,7744,3872
10747,121218408,2,0.04738246,0.07181928,-0.003493723,0.1386906,0.06137879,-9.820114999999999,0,0,38.74641,1,1,7744,3872
10782,121221140,2,0.09823228000000001,-0.0364523,-0.03105192,0.1431014,0.0131235,-10.16224,0,0,38.74647,1,1,7744,3872
10789,121223810,2,-0.153238,-0.02131906,-0.02208261,0.1294073,0.02881434,-10.25554,0,0,38.7465,1,1,7744,3872
10792,121226844,2,-0.263864,0.00701626,-0.005553076,0.1896348,0.02490492,-10.02774,0,0,38.74654,1,1,7744,3872
10796,121229304,2,-0.03288276,-0.0329383,-0.006153249,0.1736721,-0.04123735,-9.719269000000001,0,0,38.74659,1,1,7744,3872
10831,121231883,2,0.1965839,0.04375551,-0.01763454,0.08962236,-0.04302755,-9.781632999999999,0,0,38.74664,1,1,7744,3872
10834,121234636,2,0.0353228,0.05187036,-0.02399499,0.05899788,0.005059298,-9.89981,0,0,38.74672,1,1,7744,3872
10839,121237942,2,-0.09227051999999999,0.008063501000000001,-0.02753077,0.0366339,0.009063636999999999,-9.932494,0,0,38.74676,1,1,7744,3872
10842,121243353,2,0.1789996,0.01688956,0.003382252,-0.03078764,0.139664,-9.516173999999999,0,0,38.74698,1,1,7744,3872
10878,121246164,2,0.2103876,0.003592789,0.00777367,-0.03260351,0.2392686,-9.436608,0,0,38.74704,1,1,7744,3872
10882,121248561,2,-0.0005277715,0.00714334,0.0130343,-0.03801332,0.3282399,-9.53537,0,0,38.74709,1,1,7744,3872
10886,121251343,2,-0.1830206,0.01886588,0.0145563,-0.005455185,0.360891,-9.582395,0,0,38.74713,1,1,7744,3872
10890,121256650,2,0.2424512,-0.007012854,-0.0144275,0.03056596,0.4356377,-9.661305,0,0,38.74723,1,1,7744,3872
10925,121259559,2,0.2791056,0.02935241,-0.002532908,0.08868484,0.3871374,-9.683327999999999,0,0,38.74727,1,1,7744,3872
10929,121263274,2,-0.01713818,0.002805824,0.005815015,0.1186374,0.3661691,-9.645061,0,0,38.7473,1,1,7744,3872
10932,121265342,2,-0.2303783,-0.04180374,0.01287717,0.1185143,0.3403804,-9.634444999999999,0,0,38.74737,1,1,7744,3872
10935,121267350,2,-0.05392976,0.01923965,0.01573613,0.09044189,0.2156533,-9.725083,0,0,38.74744,1,1,7744,3872
10970,121269914,2,0.1746805,0.03798986,0.005535002,0.1047155,0.1224647,-9.76397,0,0,38.74748,1,1,7744,3872
10974,121272381,2,0.27028,-0.02229441,-0.0009120139,0.09414907,0.07233886,-9.959853000000001,0,0,38.74753,1,1,7744,3872
10977,121275286,2,0.1123721,-0.04327174,0.005684368,0.07898208,0.04390354,-10.07216,0,0,38.74759,1,1,7744,3872
10980,121280404,2,-0.01181281,-0.005951375,0.003056547,0.1390489,0.04176616,-9.764586,0,0,38.74774,1,1,7744,3872
11015,121283415,2,0.2606699,0.06205665,-0.003079137,0.06274221000000001,0.05215745,-9.973526,0,0,38.74784,1,1,7744,3872
11019,121286383,2,0.1871449,0.06669294000000001,0.003473438,0.04823451,0.07698482,-10.04997,0,0,38.74789,1,1,7744,3872
11022,121288884,2,-0.0765589,-0.0121906,0.02111961,-0.002127977,0.1152897,-10.13028,0,0,38.74801,1,1,7744,3872
11025,121290929,2,-0.1073683,-0.007043425,0.02716267,-0.02024001,0.1128701,-10.06021,0,0,38.74806,1,1,7744,3872
11060,121293591,2,0.1170397,0.02348048,0.01997297,0.01808666,0.09486843,-9.862151000000001,0,0,38.74821,1,1,7744,3872
11063,121295949,2,0.1930652,0.03338346,0.01536179,0.01261284,0.09783667,-9.893018,0,0,38.74827,1,1,7744,3872
11066,121299307,2,0.1750194,0.09126684,0.006546516,-0.0435424,0.1022214,-10.1957,0,0,38.74838,1,1,7744,3872
11069,121301289,2,-0.005983287,0.09834894,0.01012008,-0.03074733,0.08621872,-10.23399,0,0,38.74844,1,1,7744,3872
11104,121304415,2,-0.1356309,-0.009413365,0.01645034,-0.005778558,0.0167154,-10.09952,0,0,38.74854,1,1,7744,3872
11107,121306496,2,0.1050564,-0.01171747,0.01668165,0.05365958,0.02072308,-9.898870000000001,0,0,38.7486,1,1,7744,3872
11110,121309520,2,0.2960994,0.008572176000000001,0.01756631,0.150146,0.007678942,-9.820463,0,0,38.74862,1,1,7744,3872
11113,121311684,2,0.1016203,0.01463607,0.02100576,0.2020591,-0.05925568,-10.04414,0,0,38.74867,1,1,7744,3872
11148,121314612,2,-0.3126781,0.06952994999999999,0.02444322,0.1951079,-0.09808305,-10.18014,0,0,38.74873,1,1,7744,3872
11152,121317496,2,-0.1980098,0.06087362,0.01726236,0.2299599,-0.1846171,-9.990473,0,0,38.74877,1,1,7744,3872
11155,121319562,2,0.1843733,-0.009928833999999999,-0.00978099,0.2063913,-0.3187581,-9.828313,0,0,38.74887,1,1,7744,3872
11158,121322835,2,0.2731242,-0.005283722,-0.01834034,0.197913,-0.2990968,-9.795738999999999,0,0,38.74892,1,1,7744,3872
11193,121325306,2,-0.1041794,-0.04390109,0.008148884,0.2269924,-0.2517878,-9.854005000000001,0,0,38.74907,1,1,7744,3872
11197,121327923,2,-0.2611852,-0.05326109,0.01688274,0.1780832,-0.2770762,-10.06574,0,0,38.74912,1,1,7744,3872
11203,121330867,2,-0.3465755,0.02625539,0.03253041,0.09525139000000001,-0.2220385,-10.19591,0,0,38.74921,1,1,7744,3872
11206,121333336,2,0.03770698,0.05836712,0.02516248,0.11188,-0.2151447,-10.10691,0,0,38.74924,1,1,7744,3872
11242,121336137,2,0.3336689,-0.008578844,-0.007835386999999999,0.1047964,-0.2368166,-10.15819,0,0,38.74931,1,1,7744,3872
11246,121338493,2,-0.06666394,-0.05321151,-0.0177419,0.1169658,-0.1109347,-10.17655,0,0,38.74936,1,1,7744,3872
11249,121341662,2,-0.2956214,-0.05874582,-0.006151905,0.1311805,-0.06907946,-10.11127,0,0,38.74939,1,1,7744,3872
11252,121344038,2,-0.2650368,-0.006271237,0.01019949,0.07255958,-0.09606737999999999,-10.02937,0,0,38.74943,1,1,7744,3872
11287,121346844,2,0.1513868,0.06958830000000001,0.0111644,0.04406309,-0.1048887,-9.82199,0,0,38.74948,1,1,7744,3872
11291,121349515,2,0.1997966,-0.007704595,5.248451e-05,0.02277217,-0.116764,-9.794007000000001,0,0,38.74955,1,1,7744,3872
11294,121352370,2,-0.1002314,-0.06482444,-0.005740536,0.005220432,-0.09451485,-9.837218999999999,0,0,38.7496,1,1,7744,3872
11297,121354552,2,-0.3430618,-0.05842153,-0.007432118,0.00689181,-0.05823203,-9.812640999999999,0,0,38.74972,1,1,7744,3872
11332,121357618,2,-0.06034059,-0.002186225,-0.003586595,0.01088039,-0.04972337,-9.748671999999999,0,0,38.74979,1,1,7744,3872
11335,121359632,2,0.07432804,0.0173141,-0.001736971,0.007015622,-0.04830571,-9.70679,0,0,38.74983,1,1,7744,3872
11338,121362395,2,0.2016949,0.04138189,0.002948683,0.004751853,-0.02722793,-9.72709,0,0,38.74987,1,1,7744,3872
11341,121365333,2,-0.001545714,0.008295482,0.01024455,0.06187686,0.04882523,-9.653307,0,0,38.74993,1,1,7744,3872
11376,121369164,2,-0.2329039,-0.06178979,0.01116157,0.09776079999999999,0.07859772,-9.618805,0,0,38.75001,1,1,7744,3872
11379,121370880,2,-0.1235459,-0.01138176,0.002258572,0.1092864,0.0787057,-9.733788000000001,0,0,38.75007,1,1,7744,3872
11383,121373413,2,0.1508386,0.0449459,-0.004953703,0.1393097,0.08398999,-9.859375,0,0,38.75016,1,1,7744,3872
11386,121376057,2,0.1311376,0.03703304,-0.01013094,0.120261,0.07471897,-9.984081,0,0,38.75027,1,1,7744,3872
11421,121379097,2,-0.09924534,0.004097583,-0.01452945,0.1155687,0.1429344,-9.949700999999999,0,0,38.75046,1,1,7744,3872
11424,121382478,2,-0.1007656,-0.05018359,-0.01200736,0.1129665,0.1897359,-9.873915999999999,0,0,38.75061,1,1,7744,3872
11428,121384266,2,-0.0002982731,-0.03132048,-0.005195327,0.07852742,0.2082755,-9.957926,0,0,38.75072,1,1,7744,3872
11431,121386407,2,0.1478493,0.0351546,0.01170522,0.0816944,0.2638408,-10.04481,0,0,38.75087,1,1,7744,3872
11466,121388949,2,0.1287498,0.02645208,0.01445775,0.08290177999999999,0.2647842,-10.08351,0,0,38.75096,1,1,7744,3872
11469,121391863,2,0.01721479,0.008943194999999999,0.00390351,0.07341515,0.2956771,-10.04102,0,0,38.75109,1,1,7744,3872
11472,121394077,2,0.01273001,-0.02863504,-0.0172917,0.06971887,0.3373665,-9.977888999999999,0,0,38.75123,1,1,7744,3872
11475,121396198,2,0.07822005,-0.01783478,-0.02575292,0.06484942,0.3199458,-10.08096,0,0,38.75135,1,1,7744,3872
11510,121398893,2,0.1044056,0.0118095,-0.02324647,0.05033644,0.3088614,-10.26647,0,0,38.75143,1,1,7744,3872
11513,121401322,2,0.121789,0.044342,-0.001711702,0.04773896,0.2626964,-10.45159,0,0,38.75152,1,1,7744,3872
11516,121404530,2,0.06140373,0.05437399,0.007758875,0.05226327,0.2042724,-10.38463,0,0,38.75163,1,1,7744,3872
11521,121407516,2,0.06053916,0.03240754,0.005198803,0.07741571999999999,0.1358232,-10.10089,0,0,38.7518,1,1,7744,3872
11524,121409376,2,0.09223388,0.001736933,-0.005683756,0.07277324,0.0004977466,-10.04182,0,0,38.75193,1,1,7744,3872
11561,121412026,2,0.03826887,0.005505795,-0.008162878,0.0637751,-0.08625007,-10.13134,0,0,38.75201,1,1,7744,3872
11565,121414710,2,-0.002808423,0.03729047,-0.001584032,0.08260613999999999,-0.1900688,-10.20257,0,0,38.75213,1,1,7744,3872
11568,121423485,2,-0.004798879,-0.01433121,-0.009474898000000001,0.1036784,-0.1904262,-9.901975999999999,0,0,38.75249,1,1,7744,3872
11605,121426347,2,-0.06461902,-0.007185693,-0.001358187,0.1320071,-0.1190048,-9.908481,0,0,38.75259,1,1,7744,3872
11609,121429392,2,-0.04770748,0.009100011999999999,0.005156263,0.1691387,-0.05344418,-9.823930000000001,0,0,38.75266,1,1,7744,3872
11612,121431996,2,0.1011882,0.005334534,0.002264527,0.2148953,0.04343671,-9.632129000000001,0,0,38.75279,1,1,7744,3872
11615,121433935,2,0.1336783,-0.005133628,-0.000418747,0.1906519,0.09039402000000001,-9.689696,0,0,38.75285,1,1,7744,3872
11653,121437323,2,-0.0373165,-1.131804e-05,0.002578357,0.180219,0.1114053,-9.75258,0,0,38.75295,1,1,7744,3872
11657,121439043,2,-0.1227926,0.01918725,0.007061137,0.137811,0.07535188,-9.833742000000001,0,0,38.75303,1,1,7744,3872
11661,121441708,2,-0.03264039,0.03826725,0.003112471,0.1359676,0.05224261,-9.739458000000001,0,0,38.75307,1,1,7744,3872
11664,121444537,2,0.114906,0.01724198,-0.006224899,0.1046837,0.02235676,-9.720271,0,0,38.75312,1,1,7744,3872
11699,121447835,2,0.01297462,0.005628252,-0.0003989243,-0.01043371,-0.03500082,-10.01826,0,0,38.75328,1,1,7744,3872
11703,121450066,2,-0.150144,-0.008738314,0.005855977,-0.0158974,-0.07643969,-10.07216,0,0,38.75337,1,1,7744,3872
11706,121452479,2,-0.1407947,-0.006958648,0.008770119,-0.03334047,-0.1228754,-10.07965,0,0,38.75351,1,1,7744,3872
11709,121455390,2,0.03256994,0.002011132,0.003616288,-0.004427034,-0.1272037,-9.922682999999999,0,0,38.75359,1,1,7744,3872
11744,121458539,2,0.1182052,0.01594461,0.0008659707,-0.01694436,-0.1140328,-9.997949999999999,0,0,38.7537,1,1,7744,3872
11747,121460938,2,-0.01976354,0.0484397,0.004663966,-0.008297987999999999,-0.1148801,-10.03963,0,0,38.75377,1,1,7744,3872
11750,121463096,2,-0.1857236,0.02400197,0.003888391,0.01449301,-0.1433444,-9.996349,0,0,38.75383,1,1,7744,3872
11753,121466134,2,-0.1855481,-0.01919055,-0.001543681,0.02361099,-0.1429128,-9.878959,0,0,38.75392,1,1,7744,3872
11788,121468977,2,0.07809445,-0.0610548,0.0008294973,0.03569989,-0.1400739,-9.971209999999999,0,0,38.75404,1,1,7744,3872
11792,121471981,2,0.04299193,0.01741377,0.02249762,0.02246697,-0.1439785,-10.33878,0,0,38.75412,1,1,7744,3872
11795,121473903,2,-0.1375745,0.03722503,0.0268017,0.06549598,-0.1829572,-10.41241,0,0,38.75417,1,1,7744,3872
11798,121476539,2,-0.2932933,-0.001055832,0.01073236,0.09754539,-0.2081259,-10.34332,0,0,38.75419,1,1,7744,3872
11833,121480330,2,-0.04632194,-0.05466867,-0.007016285,0.1391648,-0.2106064,-10.13688,0,0,38.75423,1,1,7744,3872
11836,121482023,2,0.05732478,-0.0003920479,-0.0003000789,0.1147652,-0.1995961,-10.19459,0,0,38.75426,1,1,7744,3872
11839,121485611,2,0.01006205,0.07934774,0.01435391,0.08580695000000001,-0.1457446,-10.33936,0,0,38.75432,1,1,7744,3872
11842,121487290,2,-0.2533664,0.05756062,0.01972562,0.06403863,-0.08185323,-10.20883,0,0,38.75437,1,1,7744,3872
11877,121490478,2,-0.2771951,-0.01842955,0.01179021,0.03002696,-0.004175585,-10.02468,0,0,38.75439,1,1,7744,3872
11881,121492528,2,-0.04716254,-0.05623679,0.004182462,-0.06483439000000001,0.1485859,-9.976205999999999,0,0,38.75441,1,1,7744,3872
11884,121495049,2,0.09255285000000001,0.04167467,0.01147581,-0.09217046,0.284454,-9.999962,0,0,38.75445,1,1,7744,3872
11887,121498325,2,0.01772044,0.09229344,0.01532592,-0.07175428,0.4545005,-9.860042999999999,0,0,38.75449,1,1,7744,3872
11922,121501324,2,-0.1549221,-0.01349915,0.005624112,-0.03836825,0.6203479,-9.60155,0,0,38.75453,1,1,7744,3872
11926,121503618,2,-0.04517416,-0.07429790999999999,0.004960502,-0.03429925,0.7440152,-9.580342,0,0,38.75457,1,1,7744,3872
11930,121505920,2,0.1211438,0.02569064,0.01638378,0.004320879,0.7924017,-9.689733,0,0,38.75461,1,1,7744,3872
11933,121508541,2,0.1790505,0.0892194,0.01910623,0.100454,0.7837229,-9.691686000000001,0,0,38.75467,1,1,7744,3872
11968,121511980,2,0.01392725,-0.01638662,0.005819431,0.1413974,0.7378694,-9.688454999999999,0,0,38.75476,1,1,7744,3872
11971,121514354,2,-0.08575892,-0.06760379,0.004529583,0.1435494,0.6018656,-9.783191,0,0,38.75483,1,1,7744,3872
11974,121516380,2,-0.03205576,-0.004803833,0.01301729,0.1510172,0.4948885,-9.865016000000001,0,0,38.75491,1,1,7744,3872
11977,121519091,2,0.1238688,0.07582915,0.01879725,0.1944868,0.3490718,-9.800528,0,0,38.75496,1,1,7744,3872
12012,121522251,2,0.2424931,0.02562319,0.004672939,0.2340024,0.1679213,-9.653442999999999,0,0,38.75504,1,1,7744,3872
12016,121524543,2,0.02057304,-0.09654662,0.001768274,0.178504,0.04713722,-9.846088999999999,0,0,38.75515,1,1,7744,3872
12019,121527360,2,-0.1179725,-0.06988616,0.01439394,0.1573517,0.02750591,-9.990366,0,0,38.75522,1,1,7744,3872
12022,121529281,2,-0.001805571,0.02726569,0.02322321,0.1862024,-0.02125681,-10.01189,0,0,38.75531,1,1,7744,3872
12057,121531692,2,0.1808783,0.01379396,0.008383541,0.1654702,-0.02370009,-10.08136,0,0,38.75536,1,1,7744,3872
12061,121534871,2,0.174136,-0.02444781,-0.002870269,0.02618047,0.009253720999999999,-10.50884,0,0,38.75547,1,1,7744,3872
12064,121536811,2,-0.004453067,0.04698713,0.008956842,-0.06051489,0.06405187,-10.70592,0,0,38.75553,1,1,7744,3872
12067,121539862,2,-0.1119676,0.1495303,0.02233264,-0.1140602,0.07481793,-10.48535,0,0,38.7556,1,1,7744,3872
12105,121542601,2,0.1270687,0.02826399,-0.004082401,-0.2156136,0.04500273,-10.2394,0,0,38.75569,1,1,7744,3872
12108,121545109,2,0.1993053,-0.02631621,-0.01165569,-0.2783608,0.03399135,-10.27638,0,0,38.75574,1,1,7744,3872
12112,121548198,2,0.1253624,0.03284542,0.004980674,-0.3954143,0.04208328,-10.4739,0,0,38.75583,1,1,7744,3872
12115,121550409,2,-0.01430713,0.1241031,0.02960201,-0.3879583,0.03093982,-10.47648,0,0,38.75587,1,1,7744,3872
12150,121553109,2,-0.04702815,0.08317865000000001,0.03159378,-0.2950174,-0.01621834,-10.14412,0,0,38.75594,1,1,7744,3872
12153,121555786,2,0.07487087000000001,-0.03481977,0.007944183,-0.2796186,-0.05057469,-10.19353,0,0,38.75593,1,1,7744,3872
12156,121558591,2,0.1034351,0.02238364,0.008597617,-0.2127765,-0.03367732,-10.3891,0,0,38.75593,1,1,7744,3872
12159,121561261,2,0.005252088,0.1530791,0.02292822,-0.01363408,-0.002504226,-10.35355,0,0,38.75592,1,1,7744,3872
12194,121564094,2,-0.0318413,0.01078858,0.01077861,0.1069081,0.0153482,-10.21098,0,0,38.75592,1,1,7744,3872
12198,121566531,2,0.000438398,-0.0333462,0.01129907,0.1706374,0.08779131,-10.22539,0,0,38.75592,1,1,7744,3872
12201,121569358,2,0.04035749,0.03513422,0.02551739,0.2484643,0.1588738,-10.34152,0,0,38.75592,1,1,7744,3872
12204,121571950,2,0.07772373,0.0652104,0.03009625,0.3931154,0.2309764,-10.32497,0,0,38.7559,1,1,7744,3872
12239,121574989,2,0.04271558,-0.0727008,0.01166816,0.3304162,0.270703,-10.52777,0,0,38.7559,1,1,7744,3872
12243,121577302,2,-0.01808795,-0.05093766,0.01670506,0.3192642,0.2880541,-10.58918,0,0,38.75591,1,1,7744,3872
12247,121579830,2,-0.01994067,0.02358774,0.02922069,0.3570942,0.3283209,-10.58203,0,0,38.75592,1,1,7744,3872
12250,121583281,2,0.05176303,0.04769441,0.0332693,0.4266797,0.3035761,-10.34193,0,0,38.75592,1,1,7744,3872
12253,121584897,2,0.1546457,-0.09011046,0.01615119,0.3327047,0.2330355,-10.29695,0,0,38.75591,1,1,7744,3872
12288,121589022,2,0.04130038,-0.05740483,0.02419797,0.2608494,0.217155,-10.44198,0,0,38.75591,1,1,7744,3872
12291,121590903,2,-0.02091195,0.01345184,0.04480642,0.3252514,0.1940314,-10.32265,0,0,38.75591,1,1,7744,3872
12294,121593368,2,0.04759373,-0.08995467,0.03978736,0.3061917,0.1710342,-10.31993,0,0,38.75591,1,1,7744,3872
12297,121595803,2,0.1311098,-0.1310924,0.03331252,0.256461,0.174564,-10.52402,0,0,38.75591,1,1,7744,3872
12333,121598951,2,0.0589866,-0.03385728,0.04841831,0.3102702,0.2420489,-10.73423,0,0,38.75591,1,1,7744,3872
12336,121601499,2,0.002342027,-0.0218054,0.05718201,0.3770755,0.261744,-10.71353,0,0,38.75591,1,1,7744,3872
12339,121603620,2,0.04564888,-0.09113514,0.05368824,0.3424479,0.248687,-10.75108,0,0,38.75591,1,1,7744,3872
12342,121605940,2,0.05965597,-0.06444212000000001,0.05409947,0.3305366,0.2674589,-10.84979,0,0,38.75592,1,1,7744,3872
12377,121608518,2,0.09257992,0.01469739,0.06060412,0.3523076,0.2798755,-10.91831,0,0,38.75594,1,1,7744,3872
12380,121611074,2,0.08866778,-0.0415719,0.05496639,0.3680251,0.2565607,-10.94883,0,0,38.75595,1,1,7744,3872
12383,121614073,2,0.0444232,-0.07665814,0.04632395,0.2528879,0.1866888,-11.08521,0,0,38.75599,1,1,7744,3872
12386,121616159,2,0.01390083,-0.0767444,0.04707107,0.1987994,0.1856568,-11.15473,0,0,38.756,1,1,7744,3872
12424,121619616,2,0.04339296,-0.04825374,0.05688396,0.1923798,0.1970316,-11.07191,0,0,38.75603,1,1,7744,3872
12427,121621503,2,0.1155033,-0.09797868999999999,0.0636906,0.08990647,0.1805944,-11.108,0,0,38.75606,1,1,7744,3872
12430,121623935,2,0.09372460000000001,-0.06458368,0.07287841,0.03695755,0.1914742,-11.1797,0,0,38.75607,1,1,7744,3872
12433,121633075,2,0.08822639,-0.03557562,0.06567734,-0.02595261,0.1556056,-11.77978,0,0,38.75607,1,1,7744,3872
12468,121635944,2,0.05775625,-0.02298245,0.05336281,0.06196125,0.1670116,-11.92426,0,0,38.75602,1,1,7744,3872
12472,121639138,2,0.03654117,-0.06840409,0.06052929,0.09257343,0.1727319,-11.94631,0,0,38.75595,1,1,7744,3872
12475,121641490,2,0.04035252,-0.05351651,0.06648728,0.1003233,0.1780618,-12.00431,0,0,38.7559,1,1,7744,3872
12478,121643570,2,0.02074424,-0.02673226,0.08712660999999999,0.1732413,0.2437294,-11.9945,0,0,38.75582,1,1,7744,3872
12513,121646336,2,0.07427847,-0.0604104,0.09861051,0.2206601,0.3027525,-11.89045,0,0,38.75572,1,1,7744,3872
12521,121649148,2,0.09449498000000001,-0.07330202,0.09730912999999999,0.1755044,0.3170501,-12.0014,0,0,38.75564,1,1,7744,3872
12524,121652045,2,0.03823138,-0.02830607,0.08568241,0.1229685,0.3622957,-12.1443,0,0,38.7555,1,1,7744,3872
12529,121654071,2,0.01352936,-0.03003886,0.07805919,0.07700557,0.3905291,-12.18679,0,0,38.75539,1,1,7744,3872
12564,121657485,2,0.06176053,-0.07002968,0.07099748,-0.06939723,0.3507035,-12.30996,0,0,38.75524,1,1,7744,3872
12568,121659713,2,0.06705568000000001,-0.02328222,0.07294630000000001,-0.1556874,0.3009163,-12.4837,0,0,38.75512,1,1,7744,3872
12571,121662569,2,0.02882541,-0.02087187,0.08116421,-0.180566,0.2903814,-12.56861,0,0,38.75505,1,1,7744,3872
12574,121664492,2,0.04895622,-0.0565435,0.09648558,-0.2145336,0.242062,-12.58997,0,0,38.75493,1,1,7744,3872
12609,121667710,2,0.06499816999999999,-0.02428201,0.1070876,-0.1821132,0.214565,-12.61534,0,0,38.75486,1,1,7744,3872
12613,121669950,2,0.05764564,-0.02448956,0.1161451,-0.1043211,0.2210288,-12.62287,0,0,38.75479,1,1,7744,3872
12616,121672888,2,0.09418216,-0.04695855,0.1177889,0.01738706,0.2748962,-12.58331,0,0,38.75469,1,1,7744,3872
12619,121675571,2,0.100791,-0.05346216,0.1200278,0.06995145,0.3004521,-12.65043,0,0,38.75463,1,1,7744,3872
12654,121678523,2,0.05421891,-0.0143263,0.1206744,0.2338382,0.4283616,-12.60081,0,0,38.75451,1,1,7744,3872
12657,121681015,2,0.0912068,-0.03534817,0.1214587,0.2601192,0.4997739,-12.5246,0,0,38.75448,1,1,7744,3872
12660,121683391,2,0.1196422,-0.02127977,0.1253119,0.2380355,0.5590317,-12.60097,0,0,38.75444,1,1,7744,3872
12663,121686913,2,0.1060339,0.004737833,0.1251392,0.246357,0.5936413,-12.62406,0,0,38.75444,1,1,7744,3872
12698,121689877,2,0.1290208,-0.04488109,0.1204288,0.1564281,0.6107196,-12.71004,0,0,38.7545,1,1,7744,3872
12702,121692075,2,0.119937,-0.03204404,0.1223834,0.1082467,0.5843222,-12.83973,0,0,38.75453,1,1,7744,3872
12705,121694392,2,0.09667914,-0.01726681,0.1281134,0.1010933,0.5423455,-12.91611,0,0,38.75459,1,1,7744,3872
12708,121697841,2,0.1113615,-0.03476173,0.1311287,0.08086081000000001,0.4955164,-12.89148,0,0,38.75461,1,1,7744,3872
12743,121700722,2,0.1029176,0.006324101,0.1377403,0.0650178,0.3798025,-12.90893,0,0,38.75466,1,1,7744,3872
12746,121703351,2,0.08890595,-0.01603053,0.1395069,0.1244162,0.3296954,-12.82195,0,0,38.75466,1,1,7744,3872
12749,121706038,2,0.1025805,-0.06394248,0.1389443,0.1641707,0.2757332,-12.75626,0,0,38.75465,1,1,7744,3872
12752,121708556,2,0.1143486,-0.06775479,0.1391702,0.1645831,0.2363427,-12.88547,0,0,38.75465,1,1,7744,3872
12787,121711415,2,0.0871997,-0.03498696,0.1410143,0.2405294,0.2636816,-13.15461,0,0,38.75463,1,1,7744,3872
12791,121713870,2,0.1119407,-0.05873528,0.1404766,0.2192522,0.2932218,-13.25366,0,0,38.75459,1,1,7744,3872
12794,121716497,2,0.102628,-0.01896657,0.1445939,0.1596,0.3465942,-13.46699,0,0,38.75455,1,1,7744,3872
12797,121719576,2,0.08859383,0.002938726,0.1523703,0.1602896,0.4208904,-13.46921,0,0,38.7545,1,1,7744,3872
12832,121722387,2,0.1600509,-0.05579638,0.1629911,0.04549553,0.5315086999999999,-13.38778,0,0,38.75441,1,1,7744,3872
12838,121724911,2,0.1538355,-0.02899797,0.1694733,0.0103162,0.5854684,-13.38077,0,0,38.75438,1,1,7744,3872
12841,121728327,2,0.1564841,-0.04998072,0.1752226,0.028052,0.6392803,-13.31118,0,0,38.75433,1,1,7744,3872
12844,121730484,2,0.1698283,-0.08329377,0.1705007,0.007674617,0.6634297,-13.27064,0,0,38.75428,1,1,7744,3872
12879,121733374,2,0.1465579,-0.02973432,0.1654199,-0.00911348,0.657546,-13.38897,0,0,38.75421,1,1,7744,3872
12882,121735930,2,0.1660721,-0.02046718,0.1658351,0.08723354,0.6764315,-13.44983,0,0,38.75414,1,1,7744,3872
12885,121738392,2,0.2398739,-0.08095294,0.1634406,0.1317118,0.6169801,-13.53324,0,0,38.75403,1,1,7744,3872
12888,121741104,2,0.2129736,-0.06150622,0.163912,0.1509886,0.5520939,-13.65682,0,0,38.75394,1,1,7744,3872
12923,121744590,2,0.1421813,-0.03092676,0.17295,0.2667182,0.4844341,-13.58421,0,0,38.75385,1,1,7744,3872
12927,121746517,2,0.1823621,-0.07106903000000001,0.1767221,0.2600428,0.3225697,-13.56811,0,0,38.75373,1,1,7744,3872
12931,121748919,2,0.152591,-0.02598465,0.1772619,0.223736,0.2131032,-13.69064,0,0,38.75362,1,1,7744,3872
12934,121751338,2,0.1143513,0.006711798,0.1782877,0.2351099,0.1313364,-13.68819,0,0,38.75356,1,1,7744,3872
12969,121754629,2,0.1539332,-0.04996415,0.1749626,0.1919085,0.05548334,-13.68328,0,0,38.75352,1,1,7744,3872
12975,121757264,2,0.08953962,-0.06303903,0.168478,0.1173149,-0.02536088,-13.78543,0,0,38.75351,1,1,7744,3872
12978,121759306,2,0.04598536,-0.07420644,0.1722355,0.1599243,0.01897694,-13.68533,0,0,38.75349,1,1,7744,3872
12982,121762089,2,0.1342531,-0.1134053,0.1752183,0.1951642,0.07846526,-13.52965,0,0,38.75344,1,1,7744,3872
13017,121765268,2,0.1165076,-0.07567655,0.1787344,0.198508,0.100973,-13.55513,0,0,38.75339,1,1,7744,3872
13021,121767884,2,0.05808559,-0.04471351,0.1820581,0.2928372,0.2635849,-13.48458,0,0,38.75335,1,1,7744,3872
13024,121769916,2,0.09478974,-0.08106969,0.1838183,0.326804,0.3610431,-13.39312,0,0,38.75331,1,1,7744,3872
13027,121772550,2,0.1264252,-0.08266244,0.1793009,0.2984929,0.386244,-13.50464,0,0,38.75326,1,1,7744,3872
13062,121775496,2,0.04588543,-0.05263126,0.1828175,0.3247579,0.493224,-13.52802,0,0,38.75321,1,1,7744,3872
13066,121778266,2,0.1119334,-0.0915141,0.186658,0.2984062,0.5237931,-13.52102,0,0,38.7532,1,1,7744,3872
13069,121780828,2,0.1459442,-0.07952426999999999,0.1882472,0.2071277,0.4345616,-13.63496,0,0,38.7532,1,1,7744,3872
13072,121783381,2,0.04863724,-0.04926099,0.1936648,0.1896963,0.4323196,-13.59819,0,0,38.75321,1,1,7744,3872
13107,121786236,2,0.07700703,-0.08532277000000001,0.2027752,0.1343784,0.4120089,-13.35701,0,0,38.75324,1,1,7744,3872
