LineNo,TimeUS,I,GyrX,GyrY,GyrZ,AccX,AccY,AccZ,EG,EA,T,GH,AH,GHz,AHz
184,118643360,0,-0.002729841,-0.001498016,-0.00287028,0.05478106,0.1081456,-9.751792999999999,0,0,44.84319,1,1,8008,4004
219,118646263,0,-0.003673531,-0.002445175,-0.003403659,0.05623968,0.1035534,-9.752381,0,0,44.84307,1,1,8008,4004
285,118671592,0,-0.001116414,-0.0046441,-2.683344e-05,0.02889442,0.1215236,-9.752274,0,0,44.84269,1,1,8008,4004
401,118699875,0,0.0019766,-0.0004900497,0.001525519,0.03506403,0.1130452,-9.76097,0,0,44.84258,1,1,8008,4004
516,118725357,0,-0.0005076021,0.001783711,0.002216391,0.04192816,0.09202201,-9.766302,0,0,44.84288,1,1,8008,4004
519,118727505,0,-0.0005165872,0.002209932,0.001197274,0.04284281,0.09068139,-9.76141,0,0,44.84286,1,1,8008,4004
554,118729949,0,-0.001112001,0.002649665,-0.0002043238,0.04460326,0.08896817,-9.757749,0,0,44.8428,1,1,8008,4004
624,118756567,0,-0.003898182,-0.003182503,0.001177231,0.05576404,0.07771923,-9.761016,0,0,44.8427,1,1,8008,4004
739,118775344,0,-0.005381651,-0.004994692,-0.0002641429,0.03625286,0.09920704,-9.731590000000001,0,0,44.84262,1,1,8008,4004
854,118795075,0,-0.00499386,-0.002994629,-0.001933433,0.03030864,0.09985685,-9.739848,0,0,44.84271,1,1,8008,4004
970,118834087,0,0.0007205811,0.0005366472,-0.00227986,0.02291344,0.1073402,-9.744897999999999,0,0,44.84193,1,1,8008,4004
1005,118837271,0,0.001821279,0.001005234,-0.002309478,0.02496767,0.1029191,-9.751426,0,0,44.84187,1,1,8008,4004
1079,118876381,0,0.001083399,-0.001320351,-0.001300813,0.0292023,0.09626701,-9.733032,0,0,44.84024,1,1,8008,4004
1194,118975334,0,0.003163366,0.001498003,-0.000504927,0.0361464,0.1002356,-9.756432999999999,0,0,44.83753,1,1,8008,4004
1298,119044594,0,-0.0008813676,-0.002672302,0.0007295856,0.003864542,0.1093167,-9.764868999999999,0,0,44.83897,1,1,8008,4004
1383,119056063,0,-0.002620115,0.000656557,-0.00206727,0.007380572,0.1007668,-9.760171,0,0,44.83942,1,1,8008,4004
1478,119074989,0,-0.003516687,0.002023133,-0.002513221,0.03380052,0.07560135,-9.760244,0,0,44.83938,1,1,8008,4004
1571,119089608,0,-0.005324247,-0.0001751942,-0.000597997,0.03820089,0.09188721,-9.769436000000001,0,0,44.83935,1,1,8008,4004
1596,119092199,0,-0.00386442,0.0001217632,-0.0006203225,0.03551692,0.09362505,-9.769406999999999,0,0,44.83934,1,1,8008,4004
1631,119094873,0,-0.00262538,0.0004062761,-0.0007637604,0.0320582,0.09597635,-9.769162,0,0,44.83934,1,1,8008,4004
1635,119097599,0,-0.002732351,0.0001052932,-0.0008132018,0.03054701,0.09876973,-9.766883999999999,0,0,44.83936,1,1,8008,4004
1638,119100258,0,-0.004210004,-1.195098e-06,-0.001316868,0.02847436,0.1030204,-9.761578,0,0,44.83942,1,1,8008,4004
1642,119102144,0,-0.004604822,0.0001337317,-0.001665944,0.02713979,0.106817,-9.759612000000001,0,0,44.83947,1,1,8008,4004
1677,119104880,0,-0.003462322,0.0008171763,-0.001668644,0.02552125,0.1104219,-9.757389999999999,0,0,44.83954,1,1,8008,4004
1680,119107344,0,-0.002914045,0.001214249,-0.001263328,0.0251941,0.1100718,-9.755512,0,0,44.83958,1,1,8008,4004
1683,119110272,0,-0.002476317,0.0007574474,-0.0004928028,0.02537154,0.1065307,-9.752827,0,0,44.83961,1,1,8008,4004
1686,119112577,0,-0.002424256,0.0006516223999999999,-0.0004602942,0.02559847,0.1042396,-9.749974999999999,0,0,44.83962,1,1,8008,4004
1721,119115115,0,-0.002633538,0.0002138581,-0.000789146,0.02516813,0.1050797,-9.743793999999999,0,0,44.83961,1,1,8008,4004
1724,119117266,0,-0.001976419,5.745472e-05,-0.001381811,0.02408826,0.1068764,-9.742006,0,0,44.83955,1,1,8008,4004
1727,119120022,0,-0.0006202186,-0.0009962087,-0.001612853,0.02464724,0.109835,-9.741771999999999,0,0,44.83945,1,1,8008,4004
1731,119123309,0,-0.0005515938,-0.001303434,-0.00120791,0.02477139,0.1114741,-9.742528,0,0,44.83936,1,1,8008,4004
1766,119126858,0,-9.867404e-05,-0.001179968,-0.0006651222,0.0257415,0.1107467,-9.746843999999999,0,0,44.83918,1,1,8008,4004
1769,119128534,0,0.0006972374,-0.001103846,-0.0003687791,0.02793278,0.1075941,-9.753624,0,0,44.83907,1,1,8008,4004
1772,119130698,0,0.001643055,-0.0006078939,-0.0006362516,0.02906831,0.1055241,-9.755819000000001,0,0,44.83902,1,1,8008,4004
1775,119133532,0,0.002662248,-0.0004866633,-0.0009087576,0.02998575,0.1038267,-9.757529,0,0,44.83897,1,1,8008,4004
1810,119136015,0,0.002903533,-0.001754234,7.477983e-05,0.03371571,0.1022946,-9.760223999999999,0,0,44.83889,1,1,8008,4004
1813,119139325,0,0.001495321,-0.002120304,0.001168416,0.0386584,0.1030357,-9.758891999999999,0,0,44.83878,1,1,8008,4004
1816,119140927,0,0.0009986664,-0.002255776,0.0009806141999999999,0.04030595,0.1044275,-9.757182999999999,0,0,44.83871,1,1,8008,4004
1820,119144019,0,0.001678039,-0.002487701,0.0005853771,0.04013695,0.1080415,-9.753795999999999,0,0,44.83862,1,1,8008,4004
1855,119146366,0,0.001814185,-0.00225356,-0.0008633442,0.04031012,0.1103657,-9.75211,0,0,44.83851,1,1,8008,4004
1862,119149715,0,0.001912108,-0.002710576,-0.001834915,0.03827836,0.1111108,-9.752331,0,0,44.83839,1,1,8008,4004
1865,119151920,0,0.002392713,-0.003425509,-0.001908315,0.03438842,0.1127751,-9.752606,0,0,44.83828,1,1,8008,4004
1869,119154283,0,0.002172067,-0.003653278,-0.001892018,0.03152708,0.1143427,-9.754692,0,0,44.83821,1,1,8008,4004
1904,119157330,0,0.002711945,-0.003484155,-0.001682911,0.02801675,0.1155556,-9.758483,0,0,44.83814,1,1,8008,4004
1907,119159306,0,0.003216658,-0.002744405,-0.0006332275,0.02736416,0.1154229,-9.761618,0,0,44.83812,1,1,8008,4004
1910,119162041,0,0.003681397,-0.00118066,0.0003178246,0.0288357,0.11194,-9.765663,0,0,44.83811,1,1,8008,4004
1914,119163946,0,0.004261482,-0.0003525381,0.0004735648,0.03084106,0.1087767,-9.766970000000001,0,0,44.83812,1,1,8008,4004
1949,119166439,0,0.004809724,-0.0002825371,0.0004343319,0.03327587,0.1058602,-9.766756000000001,0,0,44.83818,1,1,8008,4004
1952,119169851,0,0.005242661,-0.0001723888,0.000679123,0.0342436,0.1043886,-9.764398999999999,0,0,44.83827,1,1,8008,4004
1958,119171914,0,0.005438087,-0.000795455,0.000671103,0.03492452,0.1006537,-9.758114000000001,0,0,44.83837,1,1,8008,4004
1962,119174662,0,0.004453517,0.0001168241,-0.000101205,0.03601627,0.09612671,-9.754917000000001,0,0,44.8384,1,1,8008,4004
1997,119177248,0,0.002580036,0.001324608,-0.0007098681,0.03865397,0.09000416,-9.749390999999999,0,0,44.83839,1,1,8008,4004
2000,119180532,0,0.002880559,0.001099129,-0.0009373024,0.03985054,0.08409071999999999,-9.742991999999999,0,0,44.83833,1,1,8008,4004
2003,119182122,0,0.003139793,0.001215093,-0.001607756,0.03908536,0.08031023,-9.740576000000001,0,0,44.83825,1,1,8008,4004
2006,119185080,0,0.003191147,0.0007665773000000001,-0.002166208,0.03867848,0.07736303999999999,-9.741927,0,0,44.83817,1,1,8008,4004
2041,119187366,0,0.00261124,0.0008059077,-0.002029467,0.04128931,0.07664174999999999,-9.747643999999999,0,0,44.8381,1,1,8008,4004
2044,119190272,0,0.003056972,-3.268201e-05,-0.001429301,0.04417257,0.0761025,-9.752319999999999,0,0,44.83807,1,1,8008,4004
2048,119193645,0,0.002172359,-0.0008195733,-0.0003967534,0.0477891,0.07496964,-9.758808,0,0,44.8381,1,1,8008,4004
2052,119195439,0,0.0005944695,-0.0005014676,-4.305493e-05,0.0493603,0.07477109,-9.761631,0,0,44.83821,1,1,8008,4004
2087,119199251,0,-0.001111107,0.001498089,0.0008866305,0.04908495,0.07515387,-9.765852000000001,0,0,44.83836,1,1,8008,4004
2090,119200532,0,-0.001112073,0.001764929,0.001483457,0.04600934,0.07711693,-9.76825,0,0,44.83846,1,1,8008,4004
2093,119203381,0,-0.0008020924,0.0009790669000000001,0.001477459,0.04273421,0.07752144,-9.767162000000001,0,0,44.83852,1,1,8008,4004
2096,119206087,0,-0.0009144024,3.747091e-05,0.00143476,0.03975636,0.07739513000000001,-9.763798,0,0,44.83853,1,1,8008,4004
2131,119208331,0,-0.001528874,-0.0007231062,0.001363837,0.0383595,0.07561638,-9.759024,0,0,44.83848,1,1,8008,4004
2134,119211585,0,-0.001750712,-0.0005514786,0.001184682,0.03715718,0.07395757999999999,-9.757835999999999,0,0,44.83844,1,1,8008,4004
2137,119213629,0,-0.002457524,0.000281222,0.0009347379,0.03640156,0.07297051,-9.758694,0,0,44.83837,1,1,8008,4004
2141,119216145,0,-0.002715711,5.011916e-05,0.0006247335,0.03593754,0.07249274,-9.759696999999999,0,0,44.83832,1,1,8008,4004
2176,119219223,0,-0.003483139,-0.001250506,0.001079619,0.03268297,0.07292514,-9.761376,0,0,44.83829,1,1,8008,4004
2179,119221103,0,-0.004617041,-0.001804988,0.0008022304000000001,0.02936288,0.07591494999999999,-9.759883,0,0,44.83825,1,1,8008,4004
2184,119224060,0,-0.00567634,-0.0005057543,8.560711e-05,0.0264278,0.08328588000000001,-9.755155,0,0,44.83815,1,1,8008,4004
2187,119229068,0,-0.005199794,-0.00117243,-0.0009944851000000001,0.02689105,0.09457960999999999,-9.750107,0,0,44.83806,1,1,8008,4004
2222,119235041,0,-0.004749916,-0.001072416,-0.0003513002,0.0227219,0.103067,-9.739743000000001,0,0,44.8381,1,1,8008,4004
2226,119237633,0,-0.005100552,-0.0007517746,-0.0001729524,0.02068448,0.1026461,-9.736663999999999,0,0,44.83823,1,1,8008,4004
2230,119240405,0,-0.005399627,-0.0008546115,-3.35884e-05,0.02019522,0.1015676,-9.738324,0,0,44.83832,1,1,8008,4004
2265,119243337,0,-0.005434018,-0.0009566178,0.0004339098,0.02142677,0.1020169,-9.742259000000001,0,0,44.83849,1,1,8008,4004
2268,119245487,0,-0.005428704,-0.001541363,7.252841e-05,0.02594267,0.1031898,-9.742654999999999,0,0,44.83857,1,1,8008,4004
2271,119247867,0,-0.004495765,-0.001381072,-0.000310508,0.03013449,0.1030019,-9.742357999999999,0,0,44.83864,1,1,8008,4004
2274,119250378,0,-0.003771546,-0.0004133423,7.407273e-05,0.03667222,0.099595,-9.740095,0,0,44.8387,1,1,8008,4004
2312,119253382,0,-0.004451623,-0.0005997238,-0.001048535,0.0401029,0.09643732000000001,-9.738747,0,0,44.83873,1,1,8008,4004
2315,119255936,0,-0.004897352,-0.001219391,-0.003075105,0.04320566,0.09218469,-9.737655,0,0,44.83879,1,1,8008,4004
2320,119258350,0,-0.004602227,-0.001655831,-0.003009049,0.04514286,0.09027739,-9.738267,0,0,44.83884,1,1,8008,4004
2323,119260575,0,-0.004991511,-0.002333254,-0.001639612,0.04791651,0.09030726,-9.740805,0,0,44.83889,1,1,8008,4004
2358,119262945,0,-0.005459927,-0.003079059,-0.0007905182,0.04860086,0.09164277999999999,-9.742570000000001,0,0,44.83894,1,1,8008,4004
2361,119265527,0,-0.00577524,-0.003594967,-0.001342754,0.04766357,0.09258133,-9.74447,0,0,44.83903,1,1,8008,4004
2365,119268560,0,-0.005982777,-0.002432049,-0.001016711,0.04466498,0.09372263,-9.746314999999999,0,0,44.83909,1,1,8008,4004
2368,119270786,0,-0.005538752,-0.0006677541,-0.001562727,0.03849182,0.09958959000000001,-9.750435,0,0,44.8392,1,1,8008,4004
2403,119273070,0,-0.00412401,-0.0008315816,-0.002406689,0.03438869,0.1052416,-9.752981,0,0,44.83927,1,1,8008,4004
2406,119276058,0,-0.00203986,-0.001751215,-0.002240469,0.02865416,0.1110979,-9.757956999999999,0,0,44.83936,1,1,8008,4004
2409,119278366,0,-0.001219434,-0.002091347,-0.00145923,0.02508766,0.113394,-9.761008,0,0,44.83945,1,1,8008,4004
2412,119281432,0,-0.001559678,-0.00327771,-0.0010895,0.02059865,0.1172648,-9.761519,0,0,44.83958,1,1,8008,4004
2447,119284503,0,-0.001566281,-0.003180219,-0.0005459241,0.02151734,0.1209954,-9.757011,0,0,44.83965,1,1,8008,4004
2450,119286500,0,0.0002660757,-0.001681431,-0.0005343266,0.02354314,0.1242667,-9.748702,0,0,44.83967,1,1,8008,4004
2454,119288921,0,0.0009285686,-0.001609574,-0.0007592937,0.02426209,0.1246357,-9.745248999999999,0,0,44.83967,1,1,8008,4004
2457,119291707,0,0.0005905809,-0.001559435,-0.000555084,0.02418395,0.123064,-9.743112999999999,0,0,44.83968,1,1,8008,4004
2492,119294881,0,-0.0006809415,-0.0001278117,-0.0001905479,0.02304529,0.1196688,-9.738742,0,0,44.83975,1,1,8008,4004
2495,119297099,0,-0.000760139,-0.0002884456,-0.001278556,0.02257166,0.1195749,-9.738379,0,0,44.83984,1,1,8008,4004
2498,119299078,0,-0.0001390126,-0.0008138558,-0.001671517,0.02365956,0.120215,-9.739863,0,0,44.83993,1,1,8008,4004
2502,119301574,0,0.0008750486,-0.001370098,-0.001449553,0.02395475,0.1189793,-9.740828,0,0,44.84002,1,1,8008,4004
2537,119304158,0,0.0004880627,-0.000837813,-0.0005918365000000001,0.0229955,0.1157563,-9.739466999999999,0,0,44.8401,1,1,8008,4004
2540,119307088,0,-7.996964e-05,0.0001649044,2.435963e-06,0.02154047,0.1122637,-9.73579,0,0,44.84018,1,1,8008,4004
2544,119309590,0,0.0008572437,-0.000686288,-2.132822e-05,0.02055784,0.1120712,-9.733858,0,0,44.84021,1,1,8008,4004
2547,119311425,0,0.002622068,-0.001907371,-0.001299063,0.01950116,0.1130577,-9.73556,0,0,44.84025,1,1,8008,4004
2582,119313848,0,0.003229169,-0.002337878,-0.001665931,0.01960164,0.1131232,-9.739449,0,0,44.8403,1,1,8008,4004
2585,119316574,0,0.003722605,-0.002437413,-0.001189485,0.02261635,0.1120404,-9.744757999999999,0,0,44.84039,1,1,8008,4004
2589,119319515,0,0.003653963,-0.001719341,-0.0006822806,0.02693307,0.1108985,-9.747622,0,0,44.8405,1,1,8008,4004
2592,119321500,0,0.003763014,-0.0008101629,-0.001198812,0.03374702,0.1082774,-9.75353,0,0,44.84064,1,1,8008,4004
2627,119324861,0,0.003457682,-0.0001893356,-0.001042248,0.03686904,0.1056478,-9.758373000000001,0,0,44.84072,1,1,8008,4004
2630,119326584,0,0.00244156,0.0003179879,-0.0008798105,0.03884955,0.1024704,-9.764711,0,0,44.84081,1,1,8008,4004
2634,119329489,0,0.002613301,0.0002263049,-0.0007513316,0.03871568,0.1009888,-9.769583000000001,0,0,44.84086,1,1,8008,4004
2637,119331925,0,0.003516427,-0.0004490211,-0.0003441888,0.03693657,0.0993064,-9.774132,0,0,44.84096,1,1,8008,4004
2672,119334376,0,0.003986368,0.0012373,-0.0003616302,0.03239622,0.09700116,-9.777203999999999,0,0,44.84103,1,1,8008,4004
2675,119337555,0,0.003728516,0.00286596,-0.001113878,0.02738835,0.09627333,-9.77875,0,0,44.84108,1,1,8008,4004
2679,119339491,0,0.00281145,0.004217176,-0.00128928,0.01854902,0.09689708,-9.778117999999999,0,0,44.84115,1,1,8008,4004
2682,119342046,0,0.003079201,0.004708349,-0.0001553928,0.01225594,0.09834494000000001,-9.777456000000001,0,0,44.8412,1,1,8008,4004
2717,119344990,0,0.00275716,0.00374088,0.0009423197,0.001068473,0.1017573,-9.776014999999999,0,0,44.8413,1,1,8008,4004
2720,119346592,0,0.002404096,0.003343481,0.0007664051,-0.004685261,0.1034943,-9.776368,0,0,44.84134,1,1,8008,4004
2723,119350044,0,0.001761238,0.003469771,-0.0001490317,-0.008686005,0.1053611,-9.776664,0,0,44.84136,1,1,8008,4004
2726,119352116,0,0.002147335,0.00316713,-0.0007992186,-0.008542038,0.1065778,-9.776349,0,0,44.84139,1,1,8008,4004
2764,119354634,0,0.003334749,0.002679916,-0.000857076,-0.005166469,0.104208,-9.775753,0,0,44.84152,1,1,8008,4004
2767,119357558,0,0.004139824,0.002655745,-0.0005725505,-0.001142257,0.1005823,-9.773936000000001,0,0,44.84158,1,1,8008,4004
2772,119359551,0,0.003106364,0.00203167,0.0001085188,0.005793069,0.09387098000000001,-9.769861000000001,0,0,44.84169,1,1,8008,4004
2775,119362516,0,0.002090438,0.001934011,0.00028278,0.01078154,0.09057633,-9.769655,0,0,44.84175,1,1,8008,4004
2810,119364890,0,0.001209845,0.002544981,0.000168731,0.01803954,0.08862174,-9.772691999999999,0,0,44.84184,1,1,8008,4004
2813,119368227,0,0.0009204638,0.003008859,-0.0003207229,0.0245394,0.08904648,-9.772326,0,0,44.84186,1,1,8008,4004
2816,119369950,0,0.0008957184,0.002900714,0.0002774841,0.02825241,0.08922581,-9.767756,0,0,44.84186,1,1,8008,4004
2819,119372924,0,-0.0003138827,0.001908274,0.001364277,0.03114528,0.0871072,-9.758171000000001,0,0,44.84182,1,1,8008,4004
2854,119375816,0,-0.002208636,0.001210164,0.00142468,0.03171764,0.08798773999999999,-9.751521,0,0,44.84173,1,1,8008,4004
2857,119377937,0,-0.002526243,0.0008316022,0.001607175,0.03195338,0.09044069,-9.748428000000001,0,0,44.84166,1,1,8008,4004
2861,119380864,0,-0.001712758,0.0006771200999999999,0.001960337,0.03265186,0.09194025,-9.745718999999999,0,0,44.84155,1,1,8008,4004
2865,119382866,0,-0.001858906,-0.001327534,0.0009129328,0.0316771,0.09336928,-9.741413,0,0,44.84143,1,1,8008,4004
2900,119385072,0,-0.002338678,-0.001462136,0.0003882376,0.03058361,0.09490331,-9.741439,0,0,44.84137,1,1,8008,4004
2903,119387707,0,-0.002183921,-0.001537997,0.0003844752,0.03021647,0.09929796,-9.747590000000001,0,0,44.84131,1,1,8008,4004
2906,119390885,0,-0.001810245,-0.002275793,0.0002507879,0.0313738,0.1014247,-9.751687,0,0,44.84128,1,1,8008,4004
2909,119393912,0,-0.001883461,-0.003062232,-0.0003042168,0.0315083,0.1010524,-9.755456000000001,0,0,44.8412,1,1,8008,4004
2944,119396188,0,-0.003905735,-0.001712899,0.0001831594,0.03393449,0.09504512,-9.754477,0,0,44.8411,1,1,8008,4004
2948,119399216,0,-0.004356003,-0.001346509,0.001073286,0.03735722,0.09191795,-9.752083000000001,0,0,44.84105,1,1,8008,4004
2952,119401455,0,-0.004691561,-0.0008452813999999999,0.001339352,0.03926533,0.08840756,-9.750362000000001,0,0,44.84098,1,1,8008,4004
2955,119404568,0,-0.004563391,-0.0002403321,0.0012683,0.03945995,0.08475792,-9.749552,0,0,44.84088,1,1,8008,4004
2990,119407922,0,-0.005053664,-0.00151085,0.001056899,0.038461,0.08259751999999999,-9.749005,0,0,44.84076,1,1,8008,4004
2995,119410059,0,-0.005938082,-0.002703311,0.0004289184,0.03291432,0.08098655,-9.751868999999999,0,0,44.84064,1,1,8008,4004
2998,119412303,0,-0.005534063,-0.00190223,1.228081e-05,0.02703896,0.08340836,-9.754683,0,0,44.84054,1,1,8008,4004
3001,119417863,0,-0.00305257,-0.0005152676,-0.001666898,0.02004562,0.09633332999999999,-9.748784000000001,0,0,44.84024,1,1,8008,4004
3036,119423902,0,-0.005581968,-0.0005376493,-0.002581357,0.02196771,0.1042939,-9.755246,0,0,44.84002,1,1,8008,4004
3040,119426838,0,-0.005169866,-0.0003239076,-0.002101528,0.02175203,0.1061314,-9.756973,0,0,44.83996,1,1,8008,4004
3043,119428640,0,-0.004313746,-0.0007638135,-0.0019149,0.02361788,0.1044658,-9.754880999999999,0,0,44.83987,1,1,8008,4004
3080,119431453,0,-0.004260381,-0.002217086,-0.001554774,0.02560812,0.1030668,-9.753926999999999,0,0,44.83978,1,1,8008,4004
3083,119434398,0,-0.006030154,-0.003024193,-0.0009277295,0.02710697,0.1037476,-9.756748,0,0,44.83969,1,1,8008,4004
3087,119436145,0,-0.006768163,-0.002531962,-0.0003146899,0.0282148,0.1062166,-9.758554,0,0,44.83963,1,1,8008,4004
3090,119438886,0,-0.004987033,-0.001174684,0.0003089649,0.03020287,0.1106041,-9.756363,0,0,44.83951,1,1,8008,4004
3125,119441975,0,-0.003724425,-0.001152053,0.0004346815,0.03095664,0.1114081,-9.753182000000001,0,0,44.83937,1,1,8008,4004
3128,119444570,0,-0.004669973,-0.001074497,0.0006627193,0.03011524,0.111812,-9.753242999999999,0,0,44.83928,1,1,8008,4004
3132,119446108,0,-0.00521838,-0.001073615,0.0002603079,0.02925348,0.1136851,-9.754198000000001,0,0,44.83917,1,1,8008,4004
3135,119448706,0,-0.003993072,-0.0007624942,-0.0005277641,0.02833212,0.1156515,-9.758063999999999,0,0,44.8391,1,1,8008,4004
3170,119451342,0,-0.001518611,-0.0004123297,-0.0005658201,0.02903605,0.1162777,-9.760522,0,0,44.83906,1,1,8008,4004
3173,119454087,0,-0.0008181166,-0.0003495613,-0.0002753178,0.03305781,0.1164308,-9.76089,0,0,44.83899,1,1,8008,4004
3176,119456600,0,-0.001520318,0.000205607,-0.0004610695,0.03481594,0.1165262,-9.762548000000001,0,0,44.83894,1,1,8008,4004
3182,119458950,0,-0.001746678,0.0007691352,-0.001015835,0.03565707,0.115993,-9.768112,0,0,44.83884,1,1,8008,4004
3217,119461886,0,-0.001261132,0.0005398515,-0.001317894,0.03690238,0.1146247,-9.771421,0,0,44.83876,1,1,8008,4004
3221,119464250,0,-0.001585862,-8.11518e-05,-0.001471783,0.03703303,0.1136753,-9.774533,0,0,44.83871,1,1,8008,4004
3225,119466911,0,-0.001757801,-7.531059e-05,-0.001057741,0.03679767,0.1128165,-9.776788,0,0,44.83867,1,1,8008,4004
3228,119468588,0,-0.002151635,0.0005027773,-0.0004359498,0.03566043,0.1093617,-9.775687,0,0,44.83857,1,1,8008,4004
3263,119471129,0,-0.002380105,0.0007333713,-0.0001417973,0.03384325,0.1062193,-9.773013000000001,0,0,44.83852,1,1,8008,4004
3267,119474086,0,-0.001182469,0.0007852417,0.0005227652,0.02973663,0.1058904,-9.769278,0,0,44.83844,1,1,8008,4004
3270,119476493,0,0.0004547088,0.0004254557,0.0005681988,0.02545369,0.1077171,-9.767118,0,0,44.83837,1,1,8008,4004
3273,119479320,0,0.0009861061999999999,-0.000822974,-0.0005392741,0.01934854,0.1093381,-9.763325,0,0,44.83821,1,1,8008,4004
3308,119481485,0,0.0003389675,-0.0006785195,-0.0006388983,0.01765735,0.1107812,-9.760414000000001,0,0,44.83815,1,1,8008,4004
3311,119484390,0,-0.0004557587,-0.000342903,-0.0005182934,0.01885901,0.1121349,-9.758139999999999,0,0,44.83812,1,1,8008,4004
3315,119487611,0,-0.0001133795,-0.0003457203,-0.0005628463,0.02328268,0.1121407,-9.755295,0,0,44.83811,1,1,8008,4004
3318,119489339,0,0.0003718366,-7.273954999999999e-05,-0.0008351245,0.02738183,0.111928,-9.753034,0,0,44.83812,1,1,8008,4004
3353,119492405,0,0.001226156,-4.007966e-05,-0.0001835418,0.03235263,0.1134357,-9.749898999999999,0,0,44.83819,1,1,8008,4004
3356,119494168,0,0.002123226,-0.000568501,0.0003594938,0.03529594,0.1131767,-9.747180999999999,0,0,44.83823,1,1,8008,4004
3360,119497290,0,0.00340259,-0.00091145,-0.0001818956,0.04055145,0.1111154,-9.743152,0,0,44.83828,1,1,8008,4004
3363,119499543,0,0.00370034,-0.001510328,-0.0004253118,0.04435136,0.1084122,-9.742803,0,0,44.83829,1,1,8008,4004
3398,119501717,0,0.002007725,-0.00173323,-0.0004604,0.0469071,0.1036242,-9.744455,0,0,44.8383,1,1,8008,4004
3402,119505401,0,0.0008922452999999999,-0.001434561,-0.0002668702,0.04575587,0.1008613,-9.746968000000001,0,0,44.83829,1,1,8008,4004
3405,119506641,0,0.0005994585,-0.0002786362,9.995542e-05,0.04233464,0.09801976,-9.748949,0,0,44.83831,1,1,8008,4004
3408,119509618,0,0.0008671985,-0.0004679755,0.0002034721,0.04026966,0.09603056,-9.749670999999999,0,0,44.83833,1,1,8008,4004
3443,119513273,0,0.0006683528,-0.002305941,0.001931406,0.03873326,0.09174246,-9.752351000000001,0,0,44.83837,1,1,8008,4004
3446,119515286,0,0.0008312368,-0.003304657,0.00212129,0.03650156,0.09054357,-9.755599,0,0,44.83838,1,1,8008,4004
3449,119517374,0,0.001866967,-0.003614153,0.001359974,0.03570328,0.09234249999999999,-9.757507,0,0,44.83837,1,1,8008,4004
3452,119519646,0,0.003603156,-0.002770062,-0.0008912378,0.03651152,0.09671707,-9.759093999999999,0,0,44.83833,1,1,8008,4004
3487,119522795,0,0.003557751,-0.002273001,-0.0007133206,0.03720514,0.100514,-9.759677,0,0,44.83826,1,1,8008,4004
3490,119524839,0,0.002211731,-0.002014536,-0.0005599698,0.0385798,0.1068957,-9.762864,0,0,44.83818,1,1,8008,4004
3494,119527829,0,0.001319942,-0.001599084,-0.0003056318,0.038753,0.1116925,-9.767435000000001,0,0,44.83814,1,1,8008,4004
3498,119529909,0,0.001644812,-0.0003226412,3.503841e-05,0.03637829,0.1212159,-9.774126000000001,0,0,44.83812,1,1,8008,4004
3533,119532566,0,0.002480221,-0.0006795631,0.0002956584,0.03423648,0.1255664,-9.778184,0,0,44.83813,1,1,8008,4004
3537,119535323,0,0.002381594,-0.0008510633,8.026727e-05,0.03365382,0.1254902,-9.783341999999999,0,0,44.8382,1,1,8008,4004
3541,119537345,0,0.00197379,-0.0009201346,-6.817152e-05,0.03346794,0.1231512,-9.782698,0,0,44.83825,1,1,8008,4004
3544,119540394,0,0.001973283,-0.0009717434,0.000813904,0.03158677,0.1197787,-9.780042999999999,0,0,44.83829,1,1,8008,4004
3579,119543032,0,0.003088705,-0.001198,0.002216517,0.02839297,0.1150555,-9.778047000000001,0,0,44.83834,1,1,8008,4004
3582,119545519,0,0.003226533,-0.001384028,0.002537835,0.02640385,0.110838,-9.775747000000001,0,0,44.83834,1,1,8008,4004
3585,119548330,0,0.0008207971,-0.0008871063,0.002361989,0.02372163,0.1017515,-9.767569,0,0,44.83831,1,1,8008,4004
3588,119550897,0,-0.0004810676,-0.0005173979,0.002221138,0.02212587,0.0960312,-9.760066999999999,0,0,44.83828,1,1,8008,4004
3623,119553248,0,-0.0003565714,-0.001733391,0.00179246,0.01893703,0.09215503999999999,-9.74769,0,0,44.83827,1,1,8008,4004
3626,119556007,0,0.0004512177,-0.002218438,0.001910977,0.01889304,0.09207992,-9.741123,0,0,44.83827,1,1,8008,4004
3630,119558510,0,0.0002307103,-0.001358278,0.00202811,0.01951723,0.09162803999999999,-9.736221,0,0,44.83827,1,1,8008,4004
3636,119561453,0,-0.0006707826,-0.0009891046,0.001785646,0.02030509,0.09125316,-9.733627,0,0,44.83826,1,1,8008,4004
3671,119564280,0,-0.000899586,-0.0001304844,0.001346827,0.02250739,0.09206528999999999,-9.734064999999999,0,0,44.83829,1,1,8008,4004
3675,119566623,0,-0.001235907,0.0003535975,0.0003838247,0.02466906,0.09297693999999999,-9.738835999999999,0,0,44.8383,1,1,8008,4004
3678,119568952,0,-0.001409432,2.982423e-05,-4.958642e-05,0.02753044,0.09264018,-9.746084,0,0,44.83829,1,1,8008,4004
3681,119571488,0,-0.0002944349,-0.000507027,0.0004423576,0.03102441,0.08923295000000001,-9.752516,0,0,44.83824,1,1,8008,4004
3716,119574409,0,2.919124e-05,-0.0001626588,2.45549e-05,0.0330417,0.08789015,-9.756055,0,0,44.83823,1,1,8008,4004
3719,119577049,0,-0.0009239406,-0.0007265357,-0.001673511,0.03354833,0.08829645,-9.760896000000001,0,0,44.83821,1,1,8008,4004
3723,119579133,0,-0.001434665,-0.00144947,-0.001698907,0.03323307,0.08819177,-9.76421,0,0,44.83818,1,1,8008,4004
3726,119581467,0,-0.001486192,-0.002138849,-0.001602495,0.03263373,0.08668167,-9.766332999999999,0,0,44.83821,1,1,8008,4004
3761,119583816,0,-0.001540988,-0.002442794,-0.001437283,0.0301739,0.08525679,-9.764908999999999,0,0,44.83824,1,1,8008,4004
3764,119586827,0,-0.0008497907,-0.001808538,6.018348e-05,0.02350231,0.0844184,-9.763598,0,0,44.8383,1,1,8008,4004
3769,119589609,0,-0.0003160002,-0.001107477,0.0003350577,0.01501117,0.08459659999999999,-9.763705,0,0,44.83837,1,1,8008,4004
3772,119591537,0,-0.001364618,-0.0005540543,-0.0003834773,0.01071491,0.08419086000000001,-9.764174000000001,0,0,44.83844,1,1,8008,4004
3807,119593856,0,-0.003011256,-0.0002592898,-0.0007456394,0.007871646,0.08509208,-9.764497,0,0,44.83846,1,1,8008,4004
3810,119596414,0,-0.003087603,0.0003059052,-0.0006850711999999999,0.005811002,0.09038794999999999,-9.764153,0,0,44.83847,1,1,8008,4004
3813,119599870,0,-0.002273104,0.001148748,-1.809002e-05,0.005588116,0.09382301,-9.764481999999999,0,0,44.83844,1,1,8008,4004
3816,119602049,0,-0.0008865393,0.001660688,-0.0003967164,0.008259928,0.09428715999999999,-9.764405,0,0,44.83834,1,1,8008,4004
3851,119604578,0,-0.0002402619,0.0007884832,0.0003664429,0.01204275,0.09385278,-9.766673000000001,0,0,44.83827,1,1,8008,4004
3854,119607013,0,-0.0004408814,0.0005769366,0.000578631,0.01468372,0.09384407,-9.768808999999999,0,0,44.83825,1,1,8008,4004
3858,119610544,0,-0.001154464,0.0003433855,-0.0005531262,0.01799532,0.09284704000000001,-9.768979,0,0,44.8382,1,1,8008,4004
3861,119612951,0,-0.001070364,-0.0004556093,-0.0008744939,0.01758641,0.09119263,-9.767154,0,0,44.83818,1,1,8008,4004
3866,119614935,0,-0.001248519,-0.0006148724,-0.001344801,0.01567869,0.09126622,-9.762708,0,0,44.83815,1,1,8008,4004
3901,119617395,0,-0.002457401,0.0001629161,-0.003419011,0.01621743,0.09201287,-9.75596,0,0,44.83813,1,1,8008,4004
3904,119620236,0,-0.002309323,0.0002152584,-0.00328502,0.01525625,0.09286244,-9.753791,0,0,44.83813,1,1,8008,4004
3907,119628550,0,5.805127e-05,-0.001140764,-0.001489742,0.01407834,0.09663111000000001,-9.761276000000001,0,0,44.83826,1,1,8008,4004
3943,119631514,0,0.0006167197,-0.002017205,-0.002168043,0.0171108,0.09695929,-9.763271,0,0,44.83829,1,1,8008,4004
3948,119633955,0,-9.808548e-05,-0.001753959,-0.001696513,0.02080981,0.09963999,-9.76545,0,0,44.83832,1,1,8008,4004
3951,119636793,0,-0.000194376,-0.001526477,-0.00126035,0.02329458,0.1029326,-9.766681,0,0,44.83832,1,1,8008,4004
3954,119638678,0,0.0006378366,-0.001708482,-0.00124337,0.02840819,0.1086729,-9.764962000000001,0,0,44.83834,1,1,8008,4004
3990,119641307,0,0.001148562,-0.002605803,-0.001768891,0.03207987,0.1123312,-9.762681000000001,0,0,44.83833,1,1,8008,4004
3994,119644038,0,0.0001013145,-0.003352943,-0.002670614,0.03786581,0.1170207,-9.761979,0,0,44.8383,1,1,8008,4004
3997,119646480,0,-0.000352019,-0.003213594,-0.002400033,0.03768091,0.1184349,-9.762991,0,0,44.83828,1,1,8008,4004
4000,119649028,0,5.940933e-05,-0.001958232,-0.001367882,0.03461251,0.1232474,-9.767098000000001,0,0,44.83823,1,1,8008,4004
4036,119652220,0,0.001279494,-0.0005014144,-0.0008709526999999999,0.0302485,0.1276067,-9.767965999999999,0,0,44.8382,1,1,8008,4004
4039,119654047,0,0.001626365,-0.0007782508,-0.0007221772,0.02736117,0.128003,-9.766481000000001,0,0,44.83815,1,1,8008,4004
4042,119656064,0,0.001589488,-0.001158573,-0.0001508373,0.02392694,0.1247931,-9.764187,0,0,44.83812,1,1,8008,4004
4045,119659400,0,0.0009830304000000001,-0.000956635,0.0003455065,0.0208011,0.1214522,-9.761198,0,0,44.83811,1,1,8008,4004
4080,119662144,0,0.001424441,-0.0002118243,-3.480353e-06,0.01305917,0.1147688,-9.755532000000001,0,0,44.83816,1,1,8008,4004
4088,119664612,0,0.002214695,-0.0003092031,3.12814e-06,0.01066785,0.1115053,-9.753261,0,0,44.83821,1,1,8008,4004
4091,119666690,0,0.002700123,-0.0009582315,8.492242e-05,0.01069277,0.1060621,-9.754115000000001,0,0,44.8383,1,1,8008,4004
4095,119669942,0,0.001883136,-0.000474113,-0.0004249734,0.01362624,0.1001557,-9.762212999999999,0,0,44.83836,1,1,8008,4004
4130,119672637,0,0.002085037,0.0003125918,-0.0001334686,0.01675236,0.09914128,-9.77205,0,0,44.83845,1,1,8008,4004
4133,119675598,0,0.00295191,0.0004277578,-0.0003040892,0.01754957,0.09986319,-9.774747,0,0,44.83846,1,1,8008,4004
4136,119677499,0,0.003402895,8.790392e-05,-0.0001573006,0.01806867,0.1008994,-9.776116,0,0,44.83845,1,1,8008,4004
4139,119679927,0,0.001560282,-0.0002480924,-0.0002892451,0.0180886,0.1033183,-9.779158000000001,0,0,44.83844,1,1,8008,4004
4174,119682852,0,0.001200542,-0.0001706383,-0.0006105628,0.01831273,0.1045566,-9.780844,0,0,44.83841,1,1,8008,4004
4177,119684870,0,0.003257139,-0.00033527,-0.001064208,0.02007524,0.104855,-9.780822000000001,0,0,44.83836,1,1,8008,4004
4180,119687853,0,0.00420061,-7.105419e-05,-0.000751559,0.02176441,0.1045202,-9.780583,0,0,44.83831,1,1,8008,4004
4184,119689935,0,0.004545399,0.0007200853,-7.689565000000001e-05,0.02341961,0.1044774,-9.779719999999999,0,0,44.83819,1,1,8008,4004
4219,119693020,0,0.003027253,0.0005943324,-3.789796e-05,0.02533149,0.1044536,-9.779446999999999,0,0,44.83801,1,1,8008,4004
4222,119694933,0,0.002424401,0.0003314555,0.0001668184,0.02645564,0.1045636,-9.777107000000001,0,0,44.83793,1,1,8008,4004
4225,119697878,0,0.002134073,0.001285537,0.0002394648,0.026842,0.1040427,-9.769363999999999,0,0,44.83781,1,1,8008,4004
4228,119700029,0,0.001452313,0.001886221,0.0003621546,0.02780473,0.10299,-9.762401000000001,0,0,44.8377,1,1,8008,4004
4263,119702949,0,0.0004460089,0.002469876,-2.005043e-05,0.03181465,0.1024022,-9.752817,0,0,44.83752,1,1,8008,4004
4267,119706067,0,0.0002993815,0.003063567,-0.0004400203,0.03384387,0.1028791,-9.748438999999999,0,0,44.83742,1,1,8008,4004
4270,119707346,0,0.001319591,0.002879913,-3.26603e-05,0.0340926,0.1030584,-9.748229,0,0,44.83721,1,1,8008,4004
4273,119709886,0,0.002208898,0.002604933,-2.046472e-05,0.03329016,0.1014686,-9.749408000000001,0,0,44.83705,1,1,8008,4004
4308,119712627,0,0.001763047,0.00203129,0.0002806603,0.03230761,0.09742785,-9.750399,0,0,44.8369,1,1,8008,4004
4312,119714971,0,0.0008483769,0.0004552947,0.0006923754,0.0324323,0.0950405,-9.750977000000001,0,0,44.83683,1,1,8008,4004
4315,119717548,0,-0.0001104135,-0.0007612979,0.0009039555,0.03295336,0.09339575999999999,-9.754908,0,0,44.83673,1,1,8008,4004
4318,119720259,0,0.0004671705,-0.001531872,0.0004262035,0.0334494,0.0935419,-9.75896,0,0,44.83665,1,1,8008,4004
4353,119723093,0,0.0002724165,-0.002803803,0.0003817114,0.0354137,0.09110044,-9.766139000000001,0,0,44.83652,1,1,8008,4004
4356,119726097,0,-0.0005975639,-0.002841003,0.0003381663,0.03773727,0.08899288,-9.770103000000001,0,0,44.83645,1,1,8008,4004
4359,119727340,0,-0.0002969003,-0.001987576,0.0003065267,0.04048355,0.08732746,-9.777656,0,0,44.83633,1,1,8008,4004
4362,119729938,0,0.0003358035,-0.001454142,0.000701359,0.04059914,0.08625902000000001,-9.78266,0,0,44.83628,1,1,8008,4004
4397,119732539,0,1.929125e-06,-0.001099014,0.001319937,0.04037812,0.08467379999999999,-9.786099,0,0,44.83617,1,1,8008,4004
4401,119735410,0,-0.001464574,-0.001766295,0.001063196,0.04128793,0.08454251,-9.784174,0,0,44.83613,1,1,8008,4004
4404,119737921,0,-0.003336372,-0.00249656,-7.552471e-06,0.04095406,0.08664687,-9.776052,0,0,44.83603,1,1,8008,4004
4407,119739997,0,-0.00376221,-0.002218868,-0.0003426755,0.0398641,0.08823954000000001,-9.772183,0,0,44.83594,1,1,8008,4004
4442,119742553,0,-0.004688516,-0.002339398,-0.001112842,0.03715018,0.08930146,-9.767871,0,0,44.83587,1,1,8008,4004
4446,119745373,0,-0.005108004,-0.002699394,-0.001305774,0.03599324,0.08953242,-9.763996000000001,0,0,44.83585,1,1,8008,4004
4449,119747701,0,-0.004377052,-0.002364631,-0.001161782,0.03484548,0.088272,-9.757061,0,0,44.83582,1,1,8008,4004
4452,119750523,0,-0.004052409,-0.001844081,-0.001352859,0.03374517,0.08718827,-9.754594000000001,0,0,44.83583,1,1,8008,4004
4487,119753077,0,-0.002959074,-0.001580199,-0.001507284,0.0322575,0.08584596999999999,-9.753365000000001,0,0,44.8359,1,1,8008,4004
4491,119755543,0,-0.003067916,-0.00154835,-0.0006175558,0.0318392,0.08386784999999999,-9.749936,0,0,44.83599,1,1,8008,4004
4494,119757956,0,-0.00412255,-0.001788998,3.30994e-05,0.03266155,0.08240351999999999,-9.746240999999999,0,0,44.83608,1,1,8008,4004
4497,119760543,0,-0.004610585,-0.002574421,0.0002466739,0.03321593,0.08138321,-9.742535999999999,0,0,44.83617,1,1,8008,4004
4532,119763700,0,-0.00529499,-0.002773839,0.0002059492,0.0320171,0.08255916000000001,-9.743274,0,0,44.83621,1,1,8008,4004
4538,119766058,0,-0.004516657,-0.001951214,-0.0005611012,0.03135926,0.08633652,-9.746700000000001,0,0,44.83624,1,1,8008,4004
4541,119767931,0,-0.003315286,-0.001039033,-0.001531696,0.03260508,0.08915097,-9.748085,0,0,44.83624,1,1,8008,4004
4545,119770575,0,-0.003235997,-0.001640141,-0.001889057,0.03534351,0.09531481999999999,-9.749366,0,0,44.83617,1,1,8008,4004
4580,119772942,0,-0.00333074,-0.001855698,-0.00114315,0.03781146,0.09949825,-9.750966999999999,0,0,44.83606,1,1,8008,4004
4584,119775747,0,-0.003839264,-0.001872434,-0.0004314847,0.04043487,0.101959,-9.751944999999999,0,0,44.83598,1,1,8008,4004
4587,119778476,0,-0.004449058,-0.001083453,-0.001441733,0.0424424,0.1023852,-9.750999,0,0,44.83593,1,1,8008,4004
4590,119780829,0,-0.002438763,0.0006747174000000001,-0.001945773,0.04289859,0.1000801,-9.748017000000001,0,0,44.83594,1,1,8008,4004
4625,119783301,0,-0.001919699,0.001077818,-0.001881516,0.04037762,0.1007134,-9.748055000000001,0,0,44.83594,1,1,8008,4004
4628,119786101,0,-0.002888795,0.0006840677,-0.002403615,0.03792546,0.1019567,-9.751787,0,0,44.83595,1,1,8008,4004
4631,119788953,0,-0.004104777,0.0007371861,-0.003154709,0.03333783,0.1028561,-9.760115000000001,0,0,44.83598,1,1,8008,4004
4634,119791385,0,-0.003625941,0.0008175973,-0.002851855,0.03169497,0.1039678,-9.763802999999999,0,0,44.83602,1,1,8008,4004
4669,119793552,0,-0.001871153,0.0008738808,-0.001270983,0.03068035,0.1052945,-9.766006000000001,0,0,44.83609,1,1,8008,4004
4673,119796847,0,-0.0009127633999999999,0.0007596585,-0.0005176885,0.02918059,0.104777,-9.767362,0,0,44.8361,1,1,8008,4004
4676,119799252,0,0.0002869997,0.001235685,-0.0004659612,0.02735434,0.104989,-9.767096,0,0,44.8361,1,1,8008,4004
4679,119801918,0,0.001125882,0.002444981,-0.0005262012,0.02684344,0.1052405,-9.764834,0,0,44.8361,1,1,8008,4004
4714,119804917,0,0.002474183,0.001580136,-0.001076732,0.02691017,0.1023832,-9.764234999999999,0,0,44.8361,1,1,8008,4004
4718,119806603,0,0.002797052,0.0008834793000000001,-0.0009206532,0.0284349,0.1002962,-9.763305000000001,0,0,44.83607,1,1,8008,4004
4721,119809503,0,0.001575303,0.000655496,-0.0002478845,0.03221913,0.1006965,-9.757854,0,0,44.83603,1,1,8008,4004
4725,119812075,0,0.001138538,0.0004338829,0.0001593549,0.03511925,0.1013288,-9.755958,0,0,44.83599,1,1,8008,4004
4760,119814949,0,0.0006660996,0.0006407748,0.0003273552,0.03631409,0.1003694,-9.754837,0,0,44.83595,1,1,8008,4004
4763,119817343,0,0.0007409623,0.0003537978,0.0005604548,0.03506951,0.09828595,-9.754763000000001,0,0,44.83593,1,1,8008,4004
4768,119819715,0,0.0002570488,0.0006594032,-0.0002626871,0.03402574,0.09616183,-9.756363,0,0,44.83592,1,1,8008,4004
4771,119821722,0,-0.0002049471,1.392476e-05,-0.0006496208,0.03393519,0.09532768,-9.762392,0,0,44.83596,1,1,8008,4004
4806,119824331,0,0.001116447,-0.0007372368,-0.0001045636,0.03127921,0.09784967,-9.769254,0,0,44.83609,1,1,8008,4004
4810,119834108,0,0.0008692839,-0.0003903744,0.0008405648,0.02647338,0.1096288,-9.77069,0,0,44.83631,1,1,8008,4004
4845,119836718,0,0.002404228,-0.001093078,0.0002715341,0.02434171,0.1114755,-9.771685,0,0,44.83631,1,1,8008,4004
4849,119839757,0,0.003209956,-0.001898397,-0.0001518795,0.02198713,0.1112336,-9.772913000000001,0,0,44.83629,1,1,8008,4004
4852,119841693,0,0.003385636,-0.00191784,-0.0009488612,0.01980464,0.1089731,-9.772722,0,0,44.83619,1,1,8008,4004
4855,119844278,0,0.002893282,-0.001229292,-0.001304523,0.01994886,0.1077629,-9.772399,0,0,44.83611,1,1,8008,4004
4890,119847364,0,0.002377673,-0.001314898,-0.0009460007,0.02107771,0.104931,-9.771462,0,0,44.83604,1,1,8008,4004
4894,119848963,0,0.002194246,-0.001480741,-0.0007785188,0.02126837,0.1023683,-9.770720000000001,0,0,44.83602,1,1,8008,4004
4897,119852299,0,0.002157063,-0.001993976,-0.00117537,0.01960235,0.09812630999999999,-9.772040000000001,0,0,44.83602,1,1,8008,4004
4900,119854291,0,0.001780964,-0.002097151,-0.0008922513,0.01877458,0.09451827,-9.773069,0,0,44.836,1,1,8008,4004
4935,119856937,0,0.001480763,-0.001641155,-0.0003313294,0.01841511,0.09139535999999999,-9.771122,0,0,44.83602,1,1,8008,4004
4940,119859703,0,0.002422897,-0.001031741,-0.0003166546,0.01928336,0.08981698,-9.768753999999999,0,0,44.83603,1,1,8008,4004
4943,119861506,0,0.003538236,-0.001092882,0.0004356542,0.02225708,0.085295,-9.762238999999999,0,0,44.83601,1,1,8008,4004
4946,119864702,0,0.003477737,-0.001353818,0.000320935,0.02411595,0.08423695,-9.757180999999999,0,0,44.83599,1,1,8008,4004
4981,119866869,0,0.003227939,-0.001186148,5.719651e-05,0.02860155,0.08578226,-9.750874,0,0,44.83595,1,1,8008,4004
4987,119870347,0,0.003135779,-0.000825335,0.000673571,0.03205001,0.0880485,-9.746065,0,0,44.83594,1,1,8008,4004
4990,119872343,0,0.003485415,-0.0004894963,0.001027603,0.03388664,0.09025805000000001,-9.742820999999999,0,0,44.83595,1,1,8008,4004
4994,119875369,0,0.00366869,-0.0008173701,0.002604104,0.03551823,0.09415442,-9.737133999999999,0,0,44.83599,1,1,8008,4004
5029,119878153,0,0.00150045,-0.00103448,0.002953262,0.03463084,0.09735829999999999,-9.736305,0,0,44.83602,1,1,8008,4004
5033,119880525,0,-6.248958e-05,-0.001283182,0.002639752,0.03195493,0.1011428,-9.740131999999999,0,0,44.83602,1,1,8008,4004
5036,119883485,0,-0.000576883,-0.001072561,0.001823442,0.03023827,0.1041027,-9.744683999999999,0,0,44.83603,1,1,8008,4004
5039,119885579,0,0.0001713069,-0.001895162,0.0003929049,0.02987382,0.1073213,-9.748633,0,0,44.83601,1,1,8008,4004
5074,119888488,0,0.001068869,-0.002902948,-0.001211467,0.03056594,0.1100374,-9.752064000000001,0,0,44.83604,1,1,8008,4004
5077,119890559,0,0.0006960927,-0.001917746,-0.0008588865,0.03019192,0.1123991,-9.753012999999999,0,0,44.83607,1,1,8008,4004
5080,119892921,0,0.001195748,-0.001000192,0.0001740246,0.02948729,0.1133096,-9.753031999999999,0,0,44.83607,1,1,8008,4004
5083,119896035,0,0.001752513,0.0004917228,0.0008158936,0.03004071,0.1139323,-9.750170000000001,0,0,44.83606,1,1,8008,4004
5118,119899307,0,0.001902782,0.001711522,0.0007841205,0.03077634,0.111935,-9.748162000000001,0,0,44.83607,1,1,8008,4004
5122,119900954,0,0.001119146,0.001725417,0.0006961692,0.03125552,0.1079747,-9.747094000000001,0,0,44.83607,1,1,8008,4004
5125,119903716,0,-6.514796e-05,0.0008079171,0.001136011,0.03017143,0.1037478,-9.747489,0,0,44.83609,1,1,8008,4004
5129,119906714,0,0.0002436389,0.001140385,0.001153936,0.02818871,0.1029686,-9.747809999999999,0,0,44.83609,1,1,8008,4004
5164,119909101,0,0.001480355,0.001364924,0.00121107,0.02621428,0.1012753,-9.749242000000001,0,0,44.83606,1,1,8008,4004
5167,119912801,0,-0.0001106766,0.002093533,0.001256583,0.02366096,0.09885027,-9.752364,0,0,44.83598,1,1,8008,4004
5170,119914102,0,-0.002133289,0.002706588,0.0008794140999999999,0.02105902,0.09827397,-9.756532,0,0,44.83594,1,1,8008,4004
5173,119916793,0,-0.002334487,0.001337806,-9.452751000000001e-05,0.02089075,0.09988989,-9.764115,0,0,44.83591,1,1,8008,4004
5208,119920037,0,-0.0002403072,-0.001621772,-0.000665443,0.02532318,0.09960187,-9.773006000000001,0,0,44.83588,1,1,8008,4004
5212,119921912,0,0.000287811,-0.002443793,0.0001050273,0.02846935,0.09889405,-9.777794999999999,0,0,44.83587,1,1,8008,4004
5215,119924802,0,0.000125209,-0.001866267,0.001196968,0.02979014,0.09984902,-9.780390000000001,0,0,44.83585,1,1,8008,4004
5218,119926614,0,-0.0001993783,0.00151155,0.00186471,0.02929836,0.1051052,-9.781648000000001,0,0,44.83583,1,1,8008,4004
5255,119929339,0,-0.0002807003,0.003557087,0.001475145,0.02992106,0.1092249,-9.781473,0,0,44.83584,1,1,8008,4004
5259,119932481,0,-0.001001446,0.003537634,0.0005853725,0.03060949,0.1135845,-9.781720999999999,0,0,44.83593,1,1,8008,4004
5262,119933927,0,-0.001082278,0.002269165,-0.0004125097,0.03003078,0.1133953,-9.783113,0,0,44.83599,1,1,8008,4004
5265,119937145,0,-0.00186112,0.0006197575,-0.00118179,0.03002371,0.1106558,-9.784596000000001,0,0,44.83607,1,1,8008,4004
5300,119939815,0,-0.0008675411,-0.0002676592,-0.0002387765,0.03346529,0.1075353,-9.782436000000001,0,0,44.83615,1,1,8008,4004
5303,119942160,0,0.0003404471,-0.0003432625,0.0003657659,0.03681899,0.1061972,-9.780741000000001,0,0,44.83619,1,1,8008,4004
5306,119945320,0,0.0005913686,0.0007736253,0.001054415,0.04204297,0.1032054,-9.777205,0,0,44.83622,1,1,8008,4004
5309,119947347,0,-0.0004998471,0.00140923,0.001016487,0.04364051,0.09913759,-9.774834999999999,0,0,44.83622,1,1,8008,4004
5344,119950206,0,-0.001871868,0.001313458,-1.751542e-05,0.04321165,0.09404355,-9.773382,0,0,44.83617,1,1,8008,4004
5348,119952350,0,-0.001334345,0.0007398136,-0.0003177372,0.04402175,0.09185984,-9.772993,0,0,44.83612,1,1,8008,4004
5351,119954598,0,-0.0001109852,-0.001603786,-0.0008948337,0.04891326,0.08918826000000001,-9.771255,0,0,44.83601,1,1,8008,4004
5354,119957816,0,-3.536681e-05,-0.003029979,-0.001186665,0.05256463,0.08829265,-9.769674999999999,0,0,44.83593,1,1,8008,4004
5389,119960809,0,-0.002075675,-0.002565345,-0.0003843143,0.05341765,0.09071828999999999,-9.762285,0,0,44.83582,1,1,8008,4004
5392,119962950,0,-0.00202896,-0.001594553,-0.0003317905,0.05165835,0.09474133,-9.758067,0,0,44.83578,1,1,8008,4004
5395,119965488,0,-0.001008639,-0.001289771,-0.001255451,0.05060159,0.1005485,-9.753064999999999,0,0,44.83574,1,1,8008,4004
5398,119967979,0,-0.001792475,-0.001964408,-0.001849677,0.05005518,0.103493,-9.750154,0,0,44.83568,1,1,8008,4004
5433,119970942,0,-0.003271128,-0.002400522,-0.001997935,0.04688814,0.1112042,-9.748236,0,0,44.8356,1,1,8008,4004
5440,119973702,0,-0.003312313,-0.002114081,-0.0007614733,0.04465938,0.1179495,-9.746772,0,0,44.83556,1,1,8008,4004
5443,119975382,0,-0.00111599,-0.00182496,0.001343059,0.042885,0.124809,-9.741754999999999,0,0,44.83548,1,1,8008,4004
5447,119978236,0,0.0004237668,-0.001903519,0.001994659,0.04111074,0.1256177,-9.736231,0,0,44.83545,1,1,8008,4004
5482,119981065,0,0.0005250581,-0.001354062,0.001340761,0.03649323,0.1231837,-9.729574,0,0,44.83537,1,1,8008,4004
5485,119983042,0,-0.0009476852,-0.0003464227,-8.61404e-05,0.03258968,0.1213352,-9.727733000000001,0,0,44.83533,1,1,8008,4004
5490,119986024,0,-0.002405278,0.0005811968,-0.00193473,0.02883874,0.1197852,-9.731194,0,0,44.83522,1,1,8008,4004
5493,119987860,0,-0.001670332,0.0004768799,-0.003008128,0.0301659,0.1185631,-9.735559,0,0,44.83516,1,1,8008,4004
5528,119990600,0,-0.001446865,-0.0007225806,-0.00261421,0.03367529,0.1136699,-9.740963000000001,0,0,44.83502,1,1,8008,4004
5532,119992891,0,-0.001806705,-0.001375781,-0.001500131,0.03411241,0.1103354,-9.743701,0,0,44.83486,1,1,8008,4004
5535,119995701,0,-0.002160775,-0.001517273,0.0002094511,0.03454522,0.108392,-9.745668,0,0,44.83469,1,1,8008,4004
5538,119998353,0,-0.001502747,-0.001152589,0.002540708,0.03794547,0.1056569,-9.747828,0,0,44.83445,1,1,8008,4004
5573,120001309,0,0.001344868,-0.001237222,0.003011116,0.0403603,0.1033216,-9.751816,0,0,44.83427,1,1,8008,4004
5577,120003688,0,0.003437839,-0.001133145,0.002018036,0.03984213,0.1035571,-9.758336,0,0,44.8341,1,1,8008,4004
5582,120006325,0,0.003689601,-0.001148576,0.001019913,0.03779259,0.1038602,-9.763795,0,0,44.83398,1,1,8008,4004
5585,120008694,0,0.003617269,-0.002065576,-0.0007800211,0.03468934,0.1037235,-9.772532999999999,0,0,44.83377,1,1,8008,4004
5620,120017486,0,0.002478164,-0.0013276,0.003417463,0.03343936,0.1046039,-9.776463,0,0,44.83327,1,1,8008,4004
5623,120019879,0,0.002114939,-0.0008617002,0.003683152,0.03514852,0.1019608,-9.777098000000001,0,0,44.83302,1,1,8008,4004
5658,120023580,0,0.002183031,-0.0007997669999999999,0.002480337,0.03676686,0.1003611,-9.777589000000001,0,0,44.83282,1,1,8008,4004
5661,120026240,0,0.002398392,-0.001432074,0.0009109331,0.03744615,0.09875262999999999,-9.780435000000001,0,0,44.83267,1,1,8008,4004
5664,120027812,0,0.002724718,-0.002281894,-1.584024e-05,0.03811325,0.09573160999999999,-9.78608,0,0,44.83246,1,1,8008,4004
5668,120030218,0,0.001911186,-0.001672766,-0.0004244685,0.03802336,0.09343166,-9.788133999999999,0,0,44.83235,1,1,8008,4004
5703,120032888,0,0.001018269,0.0001132272,-0.0003260487,0.03707182,0.0934798,-9.786308,0,0,44.83219,1,1,8008,4004
5706,120035797,0,0.001351642,0.0008027712,0.0007273912,0.03577524,0.09662622999999999,-9.784663,0,0,44.83208,1,1,8008,4004
5709,120038210,0,0.002880415,0.0005407024,0.002448024,0.03210777,0.1011151,-9.783899,0,0,44.83192,1,1,8008,4004
5713,120039915,0,0.002994456,0.000732748,0.002934942,0.02912788,0.1028524,-9.784469,0,0,44.83175,1,1,8008,4004
5748,120042831,0,0.002088198,0.001504281,0.002573239,0.02494235,0.1050774,-9.786388000000001,0,0,44.83157,1,1,8008,4004
5751,120045332,0,0.002165207,0.0009944291000000001,0.002276449,0.02318538,0.1067698,-9.788838,0,0,44.83145,1,1,8008,4004
5754,120047824,0,0.003799054,0.0006742715,0.002513535,0.02007167,0.1050399,-9.792864,0,0,44.83126,1,1,8008,4004
5757,120050414,0,0.004374014,0.0004080723,0.002712553,0.01790117,0.09983011,-9.794480999999999,0,0,44.83114,1,1,8008,4004
5792,120053366,0,0.003463494,-9.654888000000001e-05,0.002489199,0.01697982,0.09004519,-9.792160000000001,0,0,44.83091,1,1,8008,4004
5795,120055273,0,0.002420262,-0.0005210071,0.002169323,0.01770474,0.08496212,-9.787372,0,0,44.83079,1,1,8008,4004
5798,120058336,0,0.0008053761,-0.0006074608,0.002992265,0.02015402,0.07909238,-9.777963,0,0,44.83054,1,1,8008,4004
5802,120060391,0,-0.0001716354,-0.0004605085,0.002707002,0.02441704,0.07535791,-9.771767000000001,0,0,44.83035,1,1,8008,4004
5837,120063081,0,-0.001610233,-0.001681866,0.001517455,0.03407589,0.07133914,-9.766363999999999,0,0,44.83012,1,1,8008,4004
5840,120066063,0,-0.003575486,-0.002233866,-0.0001834746,0.04162246,0.07054798,-9.764791000000001,0,0,44.82996,1,1,8008,4004
5843,120067965,0,-0.00419698,-0.002414218,-0.0006976227,0.04349712,0.07371552000000001,-9.763248000000001,0,0,44.82978,1,1,8008,4004
5846,120070994,0,-0.003436262,-0.001981538,-0.0004333728,0.04484382,0.0825453,-9.760160000000001,0,0,44.82952,1,1,8008,4004
5881,120073363,0,-0.001736362,-0.002135482,0.0003542542,0.04525037,0.09065138,-9.753774,0,0,44.82921,1,1,8008,4004
5887,120076234,0,-0.001815594,-0.002357287,0.0003754448,0.0427378,0.09542277,-9.749431,0,0,44.82899,1,1,8008,4004
5890,120079104,0,-0.00243239,-0.002584646,0.001154703,0.03641362,0.1039667,-9.744451,0,0,44.8287,1,1,8008,4004
5894,120081513,0,-0.002022591,-0.002393095,0.0007927403,0.03210216,0.110067,-9.741163,0,0,44.82855,1,1,8008,4004
5929,120084612,0,-0.001414925,-0.002069278,-0.0001679273,0.02917184,0.1155403,-9.73531,0,0,44.82822,1,1,8008,4004
5933,120086720,0,-0.002881013,-0.001973408,-0.0006017838,0.02644038,0.1133176,-9.731711000000001,0,0,44.82796,1,1,8008,4004
5936,120089350,0,-0.003347378,-0.001642928,-7.328102000000001e-05,0.02409275,0.1100274,-9.73287,0,0,44.8278,1,1,8008,4004
5940,120092119,0,-0.003361858,-0.0008519588,0.0006497863,0.0222247,0.104694,-9.738944999999999,0,0,44.82757,1,1,8008,4004
5975,120095306,0,-0.002431178,-0.001354694,0.0002665867,0.02295969,0.1002389,-9.746861000000001,0,0,44.82725,1,1,8008,4004
5978,120097157,0,-0.002206454,-0.001585878,0.0002638552,0.02403489,0.09814715,-9.753743,0,0,44.82707,1,1,8008,4004
5981,120099597,0,-0.003576159,-0.00233929,0.001053672,0.02471378,0.09423624999999999,-9.764189,0,0,44.82666,1,1,8008,4004
5984,120102249,0,-0.004008902,-0.002196968,0.0009473565,0.02405902,0.09164561,-9.772339000000001,0,0,44.82634,1,1,8008,4004
6019,120105414,0,-0.005018616,-0.0006521253,3.183584e-05,0.0228036,0.08880854000000001,-9.781434000000001,0,0,44.82589,1,1,8008,4004
6022,120107710,0,-0.006143443,-0.0007340163,-0.0001237971,0.02328702,0.08860324999999999,-9.783531999999999,0,0,44.82558,1,1,8008,4004
6025,120109827,0,-0.006421098,-0.001243513,8.992571e-05,0.02214232,0.09065291,-9.782575,0,0,44.82527,1,1,8008,4004
6029,120112293,0,-0.005341571,-0.001276579,0.0003882475,0.01899901,0.09243469999999999,-9.779961999999999,0,0,44.82495,1,1,8008,4004
6064,120114855,0,-0.004052742,-0.001827285,1.220525e-07,0.01112795,0.09558659,-9.773863,0,0,44.82447,1,1,8008,4004
6067,120117707,0,-0.002911473,-0.002359773,-0.0009928179000000001,0.006123398,0.09759095,-9.771212,0,0,44.82418,1,1,8008,4004
6070,120120094,0,-0.001380048,-0.002016793,-0.002112181,0.004044676,0.1027186,-9.769238,0,0,44.82388,1,1,8008,4004
6073,120122290,0,-0.001111145,-0.001027022,-0.002196087,0.00557909,0.1067303,-9.771845000000001,0,0,44.82369,1,1,8008,4004
6108,120124849,0,-0.000368631,0.0009803404,-0.002260623,0.008592551,0.1098956,-9.781279,0,0,44.82342,1,1,8008,4004
6111,120127380,0,0.0001297748,0.001398031,-0.00208171,0.01359065,0.1106021,-9.788214999999999,0,0,44.82324,1,1,8008,4004
6114,120130821,0,0.000199807,0.000310916,-0.001787584,0.02362807,0.1100611,-9.795684,0,0,44.82288,1,1,8008,4004
6118,120133375,0,-0.000514621,0.0004622042,-0.002166173,0.02824213,0.1082343,-9.797340999999999,0,0,44.82262,1,1,8008,4004
6153,120135800,0,-0.002293704,0.001312062,-0.002345425,0.0329677,0.1024286,-9.793058,0,0,44.8224,1,1,8008,4004
6156,120138528,0,-0.003033464,0.001423879,-0.001582208,0.03475092,0.09989673,-9.787879999999999,0,0,44.82227,1,1,8008,4004
6159,120141439,0,-0.001096812,0.001074677,-0.001766116,0.03802711,0.09707343,-9.779968,0,0,44.82202,1,1,8008,4004
6162,120143516,0,0.001397372,0.0004984199,-0.002227013,0.03866502,0.09653638,-9.777339,0,0,44.82189,1,1,8008,4004
6197,120146562,0,0.002085056,0.001340254,-0.001961797,0.03641717,0.09879895,-9.777437000000001,0,0,44.82168,1,1,8008,4004
6200,120148654,0,0.001469442,0.00166574,-0.0009394233,0.0330784,0.1034839,-9.777298999999999,0,0,44.82143,1,1,8008,4004
6203,120150918,0,0.001551784,0.001522379,-0.0009938702000000001,0.03123904,0.1072406,-9.777633,0,0,44.82119,1,1,8008,4004
6207,120153850,0,0.001765791,0.001075239,-0.001765981,0.02945128,0.1092794,-9.776913,0,0,44.82093,1,1,8008,4004
6242,120156513,0,0.002266364,0.0004433386,-0.003366066,0.02596407,0.1042691,-9.771405,0,0,44.82059,1,1,8008,4004
6246,120159076,0,0.001260518,0.001070367,-0.003271572,0.02795507,0.1013377,-9.768363000000001,0,0,44.82041,1,1,8008,4004
6249,120161332,0,0.0003479704,0.002633423,-0.002401682,0.03491984,0.1004349,-9.768473,0,0,44.82006,1,1,8008,4004
6253,120164646,0,0.001795704,0.003041048,-0.001654084,0.04001659,0.1001605,-9.76792,0,0,44.81989,1,1,8008,4004
6288,120167191,0,0.003079819,0.0021114,-0.001413638,0.04537553,0.09625489,-9.764958,0,0,44.81956,1,1,8008,4004
6291,120170094,0,0.002149957,0.0008711182,-0.002095369,0.04795585,0.09307604,-9.765216000000001,0,0,44.81927,1,1,8008,4004
6294,120172282,0,0.00184924,0.0001025245,-0.002286698,0.04864214,0.09132268,-9.765931,0,0,44.81896,1,1,8008,4004
6297,120175028,0,0.002725971,-0.001062901,-0.001728379,0.04219428,0.08650389,-9.763681,0,0,44.81865,1,1,8008,4004
6332,120177525,0,-0.000563385,0.002498979,-0.001389262,0.02902023,0.07610637000000001,-9.757865000000001,0,0,44.81834,1,1,8008,4004
6339,120180344,0,-0.001111564,0.00266695,-0.002879626,0.02774087,0.07920820000000001,-9.753717999999999,0,0,44.81812,1,1,8008,4004
6342,120182657,0,0.005373129,-0.0007002563,-0.004737694,0.02876681,0.08863793,-9.753206,0,0,44.81772,1,1,8008,4004
6347,120185601,0,0.004184148,-7.709527e-05,-0.005067385,0.01972157,0.08298382999999999,-9.759496,0,0,44.81742,1,1,8008,4004
6382,120188865,0,-0.002839941,0.003856857,-0.005856903,0.01233146,0.08260716,-9.771553000000001,0,0,44.81701,1,1,8008,4004
6385,120190396,0,-0.001181087,0.003544903,-0.005436564,0.0229647,0.09342209999999999,-9.765331,0,0,44.81673,1,1,8008,4004
6388,120193151,0,0.006529085,0.0001161372,-0.006388786,0.03003394,0.0915767,-9.750932000000001,0,0,44.81655,1,1,8008,4004
6391,120195838,0,0.005312084,-0.00212249,-0.007765215,0.03091125,0.07142279,-9.737253000000001,0,0,44.81622,1,1,8008,4004
6426,120198801,0,-0.005855467,0.0008472434,-0.01168413,0.03310729,0.06486088,-9.739539000000001,0,0,44.81598,1,1,8008,4004
6429,120201029,0,-0.002802154,0.001829506,-0.01399786,0.04214608,0.07904071,-9.743065,0,0,44.81585,1,1,8008,4004
6433,120203380,0,0.005904705,0.0001434353,-0.0153679,0.05497593,0.08884771,-9.746242000000001,0,0,44.81569,1,1,8008,4004
6437,120205664,0,0.003503599,-0.00234209,-0.0141811,0.06573384,0.07265188,-9.755266000000001,0,0,44.81547,1,1,8008,4004
6472,120208257,0,-0.009399395,0.000602198,-0.01220885,0.06001092,0.06446332,-9.765036,0,0,44.8153,1,1,8008,4004
6476,120211461,0,-0.008086773,0.002664273,-0.01223485,0.05486942,0.1008011,-9.778238,0,0,44.81512,1,1,8008,4004
6481,120213648,0,0.0117029,-0.002817148,-0.01205444,0.06210491,0.1285405,-9.777780999999999,0,0,44.81494,1,1,8008,4004
6484,120216059,0,0.01506911,-0.009352067,-0.008658512,0.06373972,0.1021474,-9.764756,0,0,44.81479,1,1,8008,4004
6519,120225571,0,0.03978391,-0.008644341999999999,0.01594503,0.04224112,0.1301264,-9.771948,0,0,44.81427,1,1,8008,4004
6523,120227808,0,0.0088979,-0.008792937000000001,0.01836943,0.03634546,0.0656101,-9.749651999999999,0,0,44.81416,1,1,8008,4004
6558,120230636,0,-0.04398874,0.003223154,0.01729591,0.02204742,0.05110424,-9.748461000000001,0,0,44.81407,1,1,8008,4004
6561,120233087,0,-0.02184917,0.004208836,0.01428085,0.02834377,0.1087535,-9.775547,0,0,44.814,1,1,8008,4004
6564,120236016,0,0.04101198,-0.01362317,0.01299263,0.060167,0.1215549,-9.795704000000001,0,0,44.8139,1,1,8008,4004
6568,120238348,0,0.02903722,-0.01616306,0.01689501,0.05833326,0.04992983,-9.785778000000001,0,0,44.81376,1,1,8008,4004
6603,120240832,0,-0.03515248,0.009697542999999999,0.02372409,0.02591247,0.01605499,-9.782921,0,0,44.81366,1,1,8008,4004
6606,120243355,0,-0.01256203,0.0102752,0.0227369,0.05126362,0.1130297,-9.792194,0,0,44.81361,1,1,8008,4004
6609,120245930,0,0.0275825,-0.01127446,0.01871534,0.07357324,0.1179592,-9.793666999999999,0,0,44.81358,1,1,8008,4004
6612,120248587,0,0.02791631,-0.02139995,0.01607439,0.05861144,0.05835214,-9.793298,0,0,44.81358,1,1,8008,4004
6647,120251687,0,-0.02534363,-0.003758096,0.01488023,0.02215712,0.03235573,-9.794362,0,0,44.81364,1,1,8008,4004
6650,120254588,0,-0.01251548,0.002542312,0.01239375,0.0537891,0.1206077,-9.803281999999999,0,0,44.81376,1,1,8008,4004
6653,120256523,0,0.01912144,-0.004620977,0.01134457,0.07098219,0.1293294,-9.799327999999999,0,0,44.81386,1,1,8008,4004
6657,120259242,0,0.006406283,-0.002161028,0.0102524,0.03888492,0.06744508,-9.773804,0,0,44.81402,1,1,8008,4004
6692,120262090,0,-0.02302107,0.01894491,0.01012626,0.009192315,0.0918809,-9.763722,0,0,44.81421,1,1,8008,4004
6695,120264296,0,-0.006381548,0.01086658,0.00945036,0.02913417,0.135433,-9.762734,0,0,44.81428,1,1,8008,4004
6698,120267371,0,0.02507075,-0.02561781,0.003368021,0.05492124,0.1263401,-9.764780999999999,0,0,44.8144,1,1,8008,4004
6701,120269301,0,0.008738905999999999,-0.02513065,0.003450965,0.02825622,0.08736379,-9.769428,0,0,44.81448,1,1,8008,4004
6736,120271983,0,-0.02542424,0.007110668,0.006496364,-0.001842806,0.09490498,-9.764137,0,0,44.81464,1,1,8008,4004
6739,120274849,0,-0.008598980000000001,0.01832319,0.004645565,0.02850039,0.1398992,-9.751429999999999,0,0,44.81472,1,1,8008,4004
6742,120276571,0,0.02765969,0.004256983,0.0001994076,0.06455687,0.1398293,-9.751386999999999,0,0,44.81485,1,1,8008,4004
6746,120279845,0,0.01524517,-0.003177623,-0.00132351,0.03645682,0.09980789,-9.765345,0,0,44.81493,1,1,8008,4004
6781,120282412,0,-0.02955992,0.006012095,0.0007430969,-0.002573461,0.1092802,-9.770892,0,0,44.81505,1,1,8008,4004
6787,120285636,0,-0.003261086,-0.002320219,-0.001624015,0.02500951,0.1494563,-9.767303,0,0,44.81507,1,1,8008,4004
6790,120287124,0,0.02741159,-0.01732767,-0.003192429,0.04480569,0.147875,-9.751855000000001,0,0,44.81508,1,1,8008,4004
6794,120290144,0,0.007812176,-0.004249785,-0.002503689,0.002732264,0.08213801,-9.738773999999999,0,0,44.81505,1,1,8008,4004
6829,120293268,0,-0.02225828,0.02772276,-0.002830949,-0.03162504,0.1064508,-9.756634999999999,0,0,44.81495,1,1,8008,4004
6832,120295914,0,0.008312066999999999,0.02003239,-0.008424467,-0.01092842,0.1512229,-9.758032,0,0,44.81489,1,1,8008,4004
6835,120298063,0,0.02550484,-0.004593899,-0.01432018,0.02080825,0.1364963,-9.737363,0,0,44.81482,1,1,8008,4004
6839,120300652,0,-0.004469414,-0.01204954,-0.01582257,-0.001041464,0.08517203,-9.749637999999999,0,0,44.81479,1,1,8008,4004
6874,120303319,0,-0.02438691,-0.001373467,-0.01143139,-0.01673889,0.1028189,-9.763239,0,0,44.8148,1,1,8008,4004
6877,120306382,0,0.0001463895,0.01383324,-0.006192323,0.002765693,0.1526036,-9.764787,0,0,44.81481,1,1,8008,4004
6880,120308870,0,0.02575329,0.005932861,-0.008810765999999999,0.0389725,0.1453625,-9.755248,0,0,44.81483,1,1,8008,4004
6884,120310859,0,0.01190872,-0.009179142,-0.01272468,0.05461401,0.08303563,-9.760282999999999,0,0,44.81488,1,1,8008,4004
6919,120313443,0,-0.0205718,0.0007753715,-0.01507214,0.02397632,0.06371684,-9.778204000000001,0,0,44.81493,1,1,8008,4004
6922,120315883,0,-0.02084051,0.02036747,-0.01692986,0.00675777,0.1128902,-9.790977,0,0,44.81502,1,1,8008,4004
6927,120319279,0,0.02935839,-0.001501011,-0.02256023,0.07064951999999999,0.1459341,-9.771029,0,0,44.81504,1,1,8008,4004
6930,120321585,0,0.03738739,-0.0241328,-0.02444191,0.08830366000000001,0.11472,-9.749988999999999,0,0,44.81506,1,1,8008,4004
6965,120324215,0,-0.01365775,-0.00666438,-0.01403078,0.01871515,0.06344915,-9.739343999999999,0,0,44.81505,1,1,8008,4004
6968,120326840,0,-0.03418552,0.03072036,-0.005876601,-0.001815688,0.09907626,-9.744356,0,0,44.81498,1,1,8008,4004
6971,120329337,0,-0.002439609,0.01910513,-0.008380762,0.04419986,0.1277548,-9.740055999999999,0,0,44.81495,1,1,8008,4004
6975,120331956,0,0.04034469,-0.02067383,-0.01836525,0.05831276,0.1058967,-9.735478000000001,0,0,44.8149,1,1,8008,4004
7010,120335709,0,0.01110318,-0.007688005,-0.01741486,-0.01611263,0.07096158,-9.730653999999999,0,0,44.81488,1,1,8008,4004
7013,120337824,0,-0.03289348,0.01599852,-0.01105475,-0.01845819,0.06700048,-9.732315,0,0,44.81487,1,1,8008,4004
7016,120339924,0,-0.02433103,0.002115092,-0.01175245,0.05975137,0.09151307,-9.750916,0,0,44.81485,1,1,8008,4004
7019,120342546,0,0.009115418,-0.02089551,-0.01289057,0.07774391,0.1138472,-9.765268000000001,0,0,44.81482,1,1,8008,4004
7054,120344899,0,0.03460246,-0.01560621,-0.006323444,0.02392467,0.1014144,-9.773726,0,0,44.8148,1,1,8008,4004
7057,120348025,0,0.01348413,0.006410282,-0.0005829157,0.0129753,0.06976082,-9.773469,0,0,44.8148,1,1,8008,4004
7060,120350941,0,-0.02629495,0.007585295,-0.002976769,0.07178182,0.05407926,-9.775072,0,0,44.81479,1,1,8008,4004
7064,120352564,0,-0.01582131,-0.01738872,-0.01013045,0.07804645,0.07231282,-9.792937,0,0,44.81479,1,1,8008,4004
7099,120355107,0,0.005147914,-0.02044524,-0.009846696,0.04277634,0.07759346,-9.812536,0,0,44.81479,1,1,8008,4004
7102,120357929,0,0.01088746,-0.007331797,-0.002593019,0.02718179,0.07004067,-9.826124,0,0,44.81478,1,1,8008,4004
7105,120359895,0,-0.004001651,-0.002884307,0.003138867,0.04533795,0.04317972,-9.821999,0,0,44.81475,1,1,8008,4004
7110,120362398,0,-0.0196449,-0.004499586,0.007447025,0.04296311,0.03546616,-9.813995999999999,0,0,44.81475,1,1,8008,4004
7145,120365521,0,-0.01744318,-0.004120626,0.008512286000000001,0.0107138,0.05763067,-9.815327999999999,0,0,44.81478,1,1,8008,4004
7148,120367595,0,-0.002643004,-0.002772141,0.006722733,-0.0009595745,0.07692169,-9.829810999999999,0,0,44.81482,1,1,8008,4004
7151,120370273,0,0.00742229,-0.004501527,0.001629289,-0.0003358925,0.08515188999999999,-9.847462,0,0,44.81488,1,1,8008,4004
7154,120372410,0,0.001791477,-0.004365987,0.001681138,-0.003116515,0.08148121,-9.831319000000001,0,0,44.81492,1,1,8008,4004
7189,120375041,0,-0.01576721,-0.003798046,0.005877204,0.002501383,0.08635142,-9.780252000000001,0,0,44.815,1,1,8008,4004
7192,120378033,0,-0.009258904,-0.007200937,0.01033646,0.01919194,0.1013502,-9.763051000000001,0,0,44.81506,1,1,8008,4004
7195,120380026,0,0.003183792,-0.004678827,0.01342992,0.02257242,0.1217931,-9.775378999999999,0,0,44.81517,1,1,8008,4004
7199,120382851,0,0.0102843,0.004704662,0.0164345,0.005639702,0.1250987,-9.774359,0,0,44.81523,1,1,8008,4004
7234,120385328,0,0.006524025,0.0134797,0.01615291,0.005989924,0.1209866,-9.734866999999999,0,0,44.81525,1,1,8008,4004
7240,120387929,0,-0.002414928,-0.002186929,0.008816983,0.03730578,0.1109445,-9.72148,0,0,44.81527,1,1,8008,4004
7243,120390641,0,-0.004700522,-0.009744775000000001,0.005655899,0.03435871,0.1087729,-9.744956,0,0,44.81528,1,1,8008,4004
7247,120393054,0,0.0008378024,0.001185226,0.009211257,0.01018019,0.1223418,-9.753461,0,0,44.8153,1,1,8008,4004
7283,120396077,0,0.01330802,0.005641376,0.01364783,0.04524294,0.1220795,-9.684072,0,0,44.81535,1,1,8008,4004
7286,120398552,0,0.01151386,-0.001323038,0.0135774,0.07456417999999999,0.09926956000000001,-9.646058999999999,0,0,44.81538,1,1,8008,4004
7289,120400586,0,-0.009817263999999999,0.001801248,0.01213306,0.05117289,0.07634307,-9.666433,0,0,44.81543,1,1,8008,4004
7293,120403292,0,-0.01046933,0.00968494,0.01023618,0.03068588,0.09377083999999999,-9.706208,0,0,44.81547,1,1,8008,4004
7328,120405584,0,0.008749712999999999,0.0001073663,0.006870679,0.05789998,0.1237801,-9.748813999999999,0,0,44.81554,1,1,8008,4004
7331,120408554,0,0.01918468,-0.01408772,0.00464443,0.07035719,0.1103139,-9.754694000000001,0,0,44.81559,1,1,8008,4004
7334,120410926,0,-0.004497956,-0.009846024,0.007451902,0.03731383,0.07812772,-9.729585999999999,0,0,44.81567,1,1,8008,4004
7337,120413403,0,-0.01995531,0.006801327,0.01137329,0.02533809,0.08828395999999999,-9.703766999999999,0,0,44.81574,1,1,8008,4004
7372,120416406,0,-0.002834401,0.01384626,0.01244879,0.04236109,0.125557,-9.701076,0,0,44.81583,1,1,8008,4004
7375,120418280,0,0.01638154,0.006645755,0.009175116000000001,0.03130528,0.1324781,-9.736312,0,0,44.81585,1,1,8008,4004
7380,120421342,0,0.01121486,0.007726986,0.005156784,-0.03174476,0.1182541,-9.800447999999999,0,0,44.8159,1,1,8008,4004
7384,120423248,0,-0.004483565,0.01464957,0.003056112,-0.0553357,0.1168621,-9.811302,0,0,44.81594,1,1,8008,4004
7421,120425965,0,0.0004884143000000001,0.008850883,-0.002512346,-0.03187938,0.1421218,-9.789622,0,0,44.81607,1,1,8008,4004
7424,120431168,0,0.03164376,0.002830574,-0.0006752486,-0.02976975,0.1550105,-9.791482999999999,0,0,44.81623,1,1,8008,4004
7428,120433999,0,0.0164967,0.01702574,0.005399735,-0.006840952,0.1526412,-9.77459,0,0,44.81626,1,1,8008,4004
7463,120440622,0,0.01485034,-0.009630127,-0.003002466,0.09728220999999999,0.1072847,-9.700768,0,0,44.81615,1,1,8008,4004
7466,120442852,0,0.002503657,-0.002532334,-0.001858789,0.1004236,0.05749581,-9.756232000000001,0,0,44.81604,1,1,8008,4004
7470,120445074,0,-0.0001244416,-0.003502813,-0.0003557314,0.1257373,0.03598138,-9.805669,0,0,44.81594,1,1,8008,4004
7505,120447704,0,0.005125959,-0.01535919,0.001384467,0.1504639,-0.004525742,-9.841269,0,0,44.81578,1,1,8008,4004
7508,120450880,0,-0.00496088,-0.01582843,0.000874722,0.1380621,-0.03728834,-9.823263000000001,0,0,44.81568,1,1,8008,4004
7511,120453936,0,-0.01609863,-0.01313728,-0.001951778,0.1244989,-0.05352852,-9.777509,0,0,44.81556,1,1,8008,4004
7515,120455617,0,-0.01472286,-0.003557836,-0.006579496,0.09472876,-0.01977738,-9.792899999999999,0,0,44.8154,1,1,8008,4004
7550,120458397,0,0.007128491,0.008495470999999999,-0.006620584,-0.0002525122,0.05500746,-9.847256,0,0,44.81528,1,1,8008,4004
7554,120461384,0,0.01575869,0.007306658,-0.006620798,-0.05248075,0.108617,-9.861395,0,0,44.81521,1,1,8008,4004
7557,120463539,0,0.009331984999999999,0.0005103479,-0.007187071,-0.08085721999999999,0.1402019,-9.852859,0,0,44.81507,1,1,8008,4004
7560,120466379,0,-0.007662583,-0.001920916,-0.008100451,-0.125249,0.1666719,-9.831291,0,0,44.8149,1,1,8008,4004
7595,120469083,0,0.02119829,-0.004404806,-0.01018683,-0.1250751,0.2683352,-9.759055999999999,0,0,44.81458,1,1,8008,4004
7598,120472099,0,0.05085627,-0.01468642,-0.01034572,-0.07257637,0.2715308,-9.702204,0,0,44.81441,1,1,8008,4004
7601,120473942,0,0.02915424,-0.01298083,-0.00871042,-0.02650802,0.2133056,-9.671944999999999,0,0,44.81429,1,1,8008,4004
7605,120477035,0,-0.02223714,0.005346875,-0.004593963,0.01485272,0.1223434,-9.707364999999999,0,0,44.81405,1,1,8008,4004
7640,120479937,0,-0.01082574,0.004361954,-0.007827333000000001,0.1158666,0.08288296000000001,-9.823475,0,0,44.81379,1,1,8008,4004
7643,120482305,0,0.01484859,-0.009284298999999999,-0.01416024,0.1445972,0.06471354999999999,-9.848749,0,0,44.81364,1,1,8008,4004
7646,120485034,0,0.01484745,-0.021447,-0.02003283,0.1898176,-0.01368717,-9.883328000000001,0,0,44.81334,1,1,8008,4004
7650,120486942,0,-0.006653558,-0.0192205,-0.01856955,0.1913415,-0.04933658,-9.862809,0,0,44.81318,1,1,8008,4004
7685,120490077,0,-0.02582236,-0.008266704999999999,-0.01277357,0.1784722,-0.04468186,-9.803065999999999,0,0,44.81286,1,1,8008,4004
7691,120492291,0,-0.02725613,0.004293665,-0.008747593,0.1436169,-0.02287721,-9.769314,0,0,44.81263,1,1,8008,4004
7694,120494329,0,-0.0218237,0.01734445,-0.005839502,0.04536981,0.01689035,-9.705279000000001,0,0,44.81236,1,1,8008,4004
7698,120497866,0,-0.003729876,0.01162953,-0.008932943,-0.01467321,0.06286791999999999,-9.649309000000001,0,0,44.81225,1,1,8008,4004
7733,120500902,0,0.02995789,-0.005434495,-0.01295022,-0.1200153,0.1711609,-9.636123,0,0,44.81199,1,1,8008,4004
7736,120503064,0,0.007894137000000001,-0.006436345,-0.008357214999999999,-0.1681637,0.1792513,-9.685392,0,0,44.81183,1,1,8008,4004
7739,120505669,0,-0.03019489,-0.009183485,-0.0008156387,-0.1617834,0.1671694,-9.751522,0,0,44.81166,1,1,8008,4004
7743,120508382,0,-0.01824244,-0.01057113,0.001719171,-0.1077404,0.1782503,-9.778957999999999,0,0,44.81149,1,1,8008,4004
7778,120510575,0,0.03228614,0.00528932,0.006104432,-0.02317199,0.1847537,-9.799602999999999,0,0,44.81129,1,1,8008,4004
7781,120513620,0,0.04106031,0.01988295,0.008150447999999999,0.07143284,0.1205664,-9.785037000000001,0,0,44.8112,1,1,8008,4004
7784,120515902,0,0.005811285,0.02050851,0.003782345,0.1518749,0.06041358,-9.773954,0,0,44.81109,1,1,8008,4004
7787,120518923,0,-0.0334243,0.003888316,-0.002696706,0.2298603,0.008143742000000001,-9.802517,0,0,44.81095,1,1,8008,4004
7822,120521279,0,-0.03066951,-0.003065756,-0.002812244,0.2185332,0.01432043,-9.827828999999999,0,0,44.81085,1,1,8008,4004
7825,120524071,0,0.0001802251,-0.008533704,-0.002361469,0.1935723,0.06162588,-9.747487,0,0,44.81075,1,1,8008,4004
7828,120526887,0,0.02628403,-0.01233613,0.0004396019,0.181099,0.07159755,-9.705178,0,0,44.81066,1,1,8008,4004
7832,120528988,0,-0.005205526,0.006418006,0.009078905999999999,0.07462943,0.04603242,-9.620523,0,0,44.81051,1,1,8008,4004
7868,120532778,0,-0.05898415,0.02849842,0.009832405000000001,-0.09222469,0.03647935,-9.666039,0,0,44.81028,1,1,8008,4004
7871,120534409,0,-0.03251934,0.01474754,0.003450048,-0.1514574,0.1100736,-9.742801,0,0,44.81011,1,1,8008,4004
7874,120537968,0,0.05042489,-0.01409968,-0.004681604,-0.1788431,0.2271899,-9.831159,0,0,44.80988,1,1,8008,4004
7877,120539503,0,0.02797887,0.008239822000000001,-0.0009960994,-0.2037461,0.1568853,-9.760612999999999,0,0,44.80964,1,1,8008,4004
7912,120542084,0,-0.02106207,0.03253123,0.003007372,-0.1794793,0.1390595,-9.730397,0,0,44.80953,1,1,8008,4004
7915,120545110,0,-0.0309024,0.03478529,0.00479891,-0.08186375,0.1546429,-9.707233,0,0,44.8094,1,1,8008,4004
7918,120546872,0,0.02776386,0.004338291,0.005687488,0.1206411,0.2407605,-9.795180999999999,0,0,44.80915,1,1,8008,4004
7923,120549719,0,0.04327761,-0.004425486,0.01183928,0.1678219,0.2119427,-9.819307,0,0,44.80898,1,1,8008,4004
7958,120552562,0,0.00684991,0.005260229,0.01700251,0.2081866,0.1562682,-9.808144,0,0,44.80888,1,1,8008,4004
7961,120555102,0,-0.03426478,0.001644006,0.01879167,0.2742968,0.1073525,-9.787437000000001,0,0,44.80871,1,1,8008,4004
7964,120557087,0,-0.01945302,-0.01803662,0.01743498,0.2821737,0.1064272,-9.812518000000001,0,0,44.80855,1,1,8008,4004
7969,120559809,0,0.02084096,-0.02860813,0.02033436,0.2255649,0.09002833,-9.827695,0,0,44.80838,1,1,8008,4004
8004,120562707,0,0.0004137754,0.006074556,0.02617649,0.07558612000000001,0.002448379,-9.775867999999999,0,0,44.80813,1,1,8008,4004
8007,120564876,0,-0.02742006,0.02545058,0.02223883,-0.01628618,-0.0511721,-9.696043,0,0,44.80801,1,1,8008,4004
8010,120567835,0,-0.02478763,0.02367676,0.01058435,-0.1013405,-0.02196233,-9.601691000000001,0,0,44.80783,1,1,8008,4004
8013,120569852,0,0.01693791,0.001563236,-0.004868324,-0.1793557,0.05578391,-9.615684999999999,0,0,44.80759,1,1,8008,4004
8048,120572492,0,0.02181103,-0.005241389,-0.007173892,-0.2196121,0.08133003,-9.683986000000001,0,0,44.80748,1,1,8008,4004
8051,120575273,0,-0.007514215,-0.008375957,-0.002572205,-0.1796636,0.1441963,-9.803255999999999,0,0,44.80729,1,1,8008,4004
8054,120577368,0,-0.01591395,-0.01652571,0.002672493,-0.08681338,0.2006446,-9.841125999999999,0,0,44.80717,1,1,8008,4004
8058,120580095,0,0.003028982,-0.03075842,0.009069621999999999,0.08188599000000001,0.2297075,-9.810456,0,0,44.80698,1,1,8008,4004
8093,120582587,0,0.01836384,-0.01602984,0.01287881,0.2179592,0.1836271,-9.722795,0,0,44.80677,1,1,8008,4004
8096,120585338,0,0.01073562,0.008542987,0.01315724,0.2684791,0.1316766,-9.670726999999999,0,0,44.80663,1,1,8008,4004
8099,120588180,0,-0.002463153,0.02297607,0.00495868,0.3027723,0.07794029,-9.633451000000001,0,0,44.80642,1,1,8008,4004
8102,120590349,0,0.00167234,0.004633704,-0.003666968,0.3011739,0.07027630999999999,-9.619502000000001,0,0,44.80622,1,1,8008,4004
8137,120593395,0,0.007628718,-0.0311952,-0.01069794,0.2195745,0.05340729,-9.626804,0,0,44.80601,1,1,8008,4004
8143,120595298,0,0.0009478367,-0.03673053,-0.008589897000000001,0.1218889,0.05078752,-9.693118999999999,0,0,44.80586,1,1,8008,4004
8146,120597588,0,-0.008635614,-0.02097822,0.004849648,-0.02205883,0.09966854,-9.842976999999999,0,0,44.80566,1,1,8008,4004
8151,120600844,0,-0.004832586,-0.008018196999999999,0.01538095,-0.09293866000000001,0.1297415,-9.889836000000001,0,0,44.80553,1,1,8008,4004
8186,120603281,0,0.007685458,-0.008244595,0.01747624,-0.1354392,0.1197891,-9.836632,0,0,44.80528,1,1,8008,4004
8189,120606394,0,0.004774825,-0.01276239,0.004666355,-0.1367417,0.07183032,-9.741851,0,0,44.80508,1,1,8008,4004
8194,120608596,0,-0.006766939,0.001175799,-0.00336657,-0.1472748,0.03854324,-9.705691,0,0,44.80485,1,1,8008,4004
8197,120613864,0,0.008304054,0.009166887,-0.01798279,-0.01123646,0.06447309,-9.755947000000001,0,0,44.80432,1,1,8008,4004
8232,120619640,0,-0.006734833,-0.01275962,-0.00440123,0.08978903000000001,0.1132947,-9.895771,0,0,44.80386,1,1,8008,4004
8237,120622227,0,-0.02352424,0.008082295999999999,0.001000211,0.1255157,0.1552826,-9.880811,0,0,44.80369,1,1,8008,4004
8240,120624647,0,0.004501847,-0.009252468,-0.007136083,0.221959,0.1937503,-9.820163000000001,0,0,44.80338,1,1,8008,4004
8275,120627597,0,0.02337946,-0.02704699,-0.01549873,0.2176849,0.1578546,-9.796371000000001,0,0,44.80322,1,1,8008,4004
8278,120630010,0,-0.003847817,0.006954494,-0.01492281,0.07585985000000001,0.05630052,-9.786407000000001,0,0,44.80299,1,1,8008,4004
8281,120632114,0,-0.03315593,0.04897771,-0.0113335,-0.006456282,0.008768274,-9.764469,0,0,44.80283,1,1,8008,4004
8284,120634527,0,-0.01530973,0.04226654,-0.01845958,-0.008046309,-0.007746382,-9.721973,0,0,44.80247,1,1,8008,4004
8319,120637209,0,0.02016177,-0.005499745,-0.02694996,-0.003980408,-0.01618369,-9.740519000000001,0,0,44.80232,1,1,8008,4004
8322,120640602,0,0.01096169,-0.02984175,-0.02244074,-0.1042019,-0.05672738,-9.847232,0,0,44.80201,1,1,8008,4004
8326,120643340,0,-0.03125936,-0.001934838,-0.00928643,-0.1534317,-0.0540886,-9.898987999999999,0,0,44.80185,1,1,8008,4004
8329,120644894,0,-0.04455969,0.008895367,0.002578595,-0.04837083,0.03067824,-9.86886,0,0,44.80154,1,1,8008,4004
8364,120647343,0,0.008286698,-0.01900603,-0.002438921,0.05711477,0.07555726,-9.782139000000001,0,0,44.80133,1,1,8008,4004
8368,120650378,0,0.01161085,0.005827981,-0.003361766,0.01161652,0.04702139,-9.745801,0,0,44.80115,1,1,8008,4004
8373,120653050,0,-0.03424881,0.07709259,-0.002835771,-0.04151199,0.02472541,-9.713851,0,0,44.80088,1,1,8008,4004
8376,120655640,0,-0.03487815,0.07040048,-0.01299939,0.02741426,0.06439256,-9.684087999999999,0,0,44.80074,1,1,8008,4004
8411,120658133,0,0.01520732,-0.01778538,-0.03308884,0.1071378,0.1144601,-9.664932,0,0,44.80048,1,1,8008,4004
8414,120660827,0,0.01303847,-0.03932721,-0.02541661,0.01033681,0.107693,-9.732386999999999,0,0,44.80029,1,1,8008,4004
8417,120663290,0,-0.01921002,-0.00692176,-0.008369013,-0.02746213,0.1288983,-9.791670999999999,0,0,44.80014,1,1,8008,4004
8421,120666299,0,-0.02443375,0.01278444,0.00729747,0.05048012,0.1963893,-9.83417,0,0,44.79999,1,1,8008,4004
8458,120669037,0,0.01938056,0.001903939,0.003220201,0.06807407,0.2067621,-9.807935000000001,0,0,44.79977,1,1,8008,4004
8461,120672048,0,0.01831642,0.03233119,-0.005503489,-0.007115204,0.1378799,-9.714661,0,0,44.79954,1,1,8008,4004
8465,120673630,0,-0.00369337,0.04786852,-0.01481288,-0.0004949511,0.08682669,-9.639061999999999,0,0,44.79936,1,1,8008,4004
8469,120676746,0,-0.01896815,0.03101587,-0.02521657,0.0458486,0.04880925,-9.586278999999999,0,0,44.79919,1,1,8008,4004
8504,120679720,0,-0.01910854,-0.0156278,-0.02599864,0.04973232,0.01425736,-9.594079000000001,0,0,44.79902,1,1,8008,4004
8507,120681844,0,-0.003801341,-0.01823812,-0.001393209,-0.01613067,0.01790092,-9.723326999999999,0,0,44.79885,1,1,8008,4004
8510,120683611,0,0.001784665,-0.009645625999999999,0.01664959,-0.01336691,0.03182819,-9.836074,0,0,44.79878,1,1,8008,4004
8513,120686214,0,-0.005246426,-0.01471727,0.02673332,0.038877,0.04427278,-9.918956,0,0,44.79866,1,1,8008,4004
8548,120688974,0,-0.008755204000000001,-0.01342972,0.02194279,0.04861877,0.06568654,-9.867953,0,0,44.79855,1,1,8008,4004
8551,120691906,0,0.003821952,0.004996188,0.006711064,0.06065001,0.1147093,-9.694807000000001,0,0,44.79844,1,1,8008,4004
8555,120694321,0,0.01240718,0.01158766,-0.004580306,0.08980679,0.1211768,-9.603408,0,0,44.79835,1,1,8008,4004
8559,120696180,0,-0.009477256,0.01133496,-0.01399438,0.09824652,0.09955677,-9.57644,0,0,44.79823,1,1,8008,4004
8597,120699076,0,-0.02635573,0.01049658,-0.009899808,0.04049825,0.1001278,-9.625368,0,0,44.79806,1,1,8008,4004
8600,120701629,0,0.008584197,-0.006156508,0.004706693,0.01196804,0.1766316,-9.718643999999999,0,0,44.79787,1,1,8008,4004
8604,120704612,0,0.04398414,-0.03186012,0.01116222,0.02817287,0.1892083,-9.803179999999999,0,0,44.79779,1,1,8008,4004
8607,120706630,0,0.02306231,-0.04404217,0.01483734,0.008477258,0.1195312,-9.926969,0,0,44.79765,1,1,8008,4004
8642,120709194,0,-0.01888042,-0.02207246,0.01374854,-0.01813482,0.1001328,-9.938147000000001,0,0,44.79757,1,1,8008,4004
8645,120711329,0,-0.01104871,0.003465848,0.005223066,0.03748319,0.1551368,-9.812618000000001,0,0,44.79739,1,1,8008,4004
8650,120713856,0,0.04150606,-0.002311126,-0.00364592,0.09859583,0.1744776,-9.704276,0,0,44.79729,1,1,8008,4004
8653,120717049,0,0.06391637999999999,-0.005877762,-0.008759187999999999,0.1006872,0.1301303,-9.633381999999999,0,0,44.79715,1,1,8008,4004
8688,120720019,0,-0.04160408,0.0168654,0.003306637,0.01611786,0.00785487,-9.6219,0,0,44.79699,1,1,8008,4004
8691,120722271,0,-0.05548255,0.006482825,0.01028795,0.02495542,0.04949776,-9.698575999999999,0,0,44.79691,1,1,8008,4004
8695,120724674,0,0.02874062,-0.03622749,0.0157914,0.01645091,0.1346257,-9.905514999999999,0,0,44.79682,1,1,8008,4004
8698,120727542,0,0.05973579,-0.04947021,0.02190195,-0.03035629,0.1021259,-10.01887,0,0,44.79676,1,1,8008,4004
8733,120730352,0,0.000807928,-0.03435955,0.02873669,-0.03580224,0.02009424,-9.996176,0,0,44.79664,1,1,8008,4004
8736,120732651,0,-0.02745024,-0.01836974,0.02474258,0.0126578,0.05235693,-9.864451000000001,0,0,44.79658,1,1,8008,4004
8739,120735048,0,0.02634151,0.002215204,0.01141336,0.04266675,0.1610355,-9.661688,0,0,44.79646,1,1,8008,4004
8742,120738611,0,0.04730095,0.02961824,0.002331036,0.006485253,0.1395591,-9.609292999999999,0,0,44.79634,1,1,8008,4004
8745,120740365,0,-0.003852992,0.03818588,0.0008793529,-0.01625772,0.0957571,-9.654002,0,0,44.79628,1,1,8008,4004
8780,120743267,0,-0.03555826,0.005309353,-0.002150081,-0.02641888,0.1655315,-9.772463999999999,0,0,44.79615,1,1,8008,4004
8784,120745581,0,0.04687296,-0.04733934,0.0003283093,-0.03124091,0.2450505,-9.861096,0,0,44.79597,1,1,8008,4004
8787,120748619,0,0.05995873,-0.05286205,0.008726948999999999,-0.05240405,0.1758943,-9.94725,0,0,44.79578,1,1,8008,4004
8790,120751053,0,-0.02067075,-0.01759494,0.01639011,-0.03474464,0.03786674,-9.903936,0,0,44.79557,1,1,8008,4004
8825,120753517,0,-0.01443773,0.02459007,0.009840005000000001,0.007776104,0.1053925,-9.787818,0,0,44.7954,1,1,8008,4004
8828,120756227,0,0.05421848,0.03954616,0.001318399,0.01495794,0.1467561,-9.724245,0,0,44.79524,1,1,8008,4004
8831,120758626,0,0.05719898,0.04026429,-0.01045877,0.02275565,0.02913835,-9.666603,0,0,44.79501,1,1,8008,4004
8834,120761279,0,-0.02524021,0.02617614,-0.01455048,0.03570433,-0.05759294,-9.653271,0,0,44.79482,1,1,8008,4004
8869,120764095,0,-0.067022,-0.003077141,-0.01260463,0.03203024,0.01852384,-9.707449,0,0,44.79461,1,1,8008,4004
8873,120766349,0,0.003580837,-0.02164653,-0.004245074,0.02116222,0.1096568,-9.799633,0,0,44.79449,1,1,8008,4004
8876,120769560,0,0.05450084,-0.02833147,0.01741703,0.01836622,0.03881839,-9.934979999999999,0,0,44.79428,1,1,8008,4004
8879,120771269,0,-0.001102448,-0.008899106,0.02604374,0.01095709,-0.04968349,-9.946534,0,0,44.79412,1,1,8008,4004
8914,120773565,0,-0.03987057,0.0337125,0.01842361,-0.006632714,0.0365064,-9.807351000000001,0,0,44.79392,1,1,8008,4004
8917,120776705,0,0.01874111,0.0447273,0.002440095,0.002027866,0.1424538,-9.681323000000001,0,0,44.79379,1,1,8008,4004
8920,120779214,0,0.05375541,0.03703014,-0.02153459,0.008550762999999999,0.1074321,-9.573027,0,0,44.79349,1,1,8008,4004
8923,120781053,0,-0.01605764,0.03656084,-0.02791219,-0.03097845,0.04678379,-9.558578000000001,0,0,44.79335,1,1,8008,4004
8958,120783513,0,-0.06719556,0.0222481,-0.02332138,-0.06745864,0.1714085,-9.605209,0,0,44.79308,1,1,8008,4004
8962,120785975,0,0.00444162,-0.01441932,-0.01532171,-0.02696749,0.2992322,-9.699365999999999,0,0,44.79294,1,1,8008,4004
8967,120789334,0,0.07064160999999999,-0.0470311,0.0008882877,0.005697068,0.2340996,-9.886369999999999,0,0,44.79265,1,1,8008,4004
8970,120791488,0,0.01026816,-0.013798,0.01166609,-0.02619743,0.1139487,-9.949401,0,0,44.79246,1,1,8008,4004
9005,120794477,0,-0.04770749,0.05173442,0.01093141,0.007047871,0.1358693,-9.870167,0,0,44.79222,1,1,8008,4004
9009,120796595,0,0.05124793,0.0406318,-0.01476804,0.1333919,0.1917374,-9.722441999999999,0,0,44.79205,1,1,8008,4004
9012,120799023,0,0.07169331,0.01273325,-0.03217801,0.1540795,0.08725402,-9.656051,0,0,44.79187,1,1,8008,4004
9018,120802251,0,-0.04845351,0.003906531,-0.03366666,0.1077375,-0.07117227,-9.577353,0,0,44.79171,1,1,8008,4004
9053,120805102,0,-0.07572207,-4.982883e-05,-0.01540098,0.1224624,0.02856004,-9.572934999999999,0,0,44.79153,1,1,8008,4004
9057,120807307,0,0.005448676,-0.02611041,-0.003565574,0.1449256,0.1044155,-9.681283000000001,0,0,44.79144,1,1,8008,4004
9060,120809874,0,0.04300328,-0.04572305,0.01509566,0.08573076,0.01592595,-9.93088,0,0,44.79127,1,1,8008,4004
9063,120812350,0,-0.02085568,-0.01835189,0.02374179,0.01546011,-0.04408179,-10.01166,0,0,44.79119,1,1,8008,4004
9100,120815551,0,-0.04564922,0.03168667,0.01506851,-0.002794621,0.07150996,-9.898289,0,0,44.79107,1,1,8008,4004
9103,120820630,0,0.004142099,-0.004638109,-0.03702508,0.0550199,0.03416303,-9.532983,0,0,44.79082,1,1,8008,4004
9107,120823054,0,-0.07332518,0.009232600000000001,-0.03244058,0.003968012,0.02761567,-9.517094,0,0,44.79077,1,1,8008,4004
9142,120829030,0,0.06821848,-0.06335395000000001,0.003316741,0.1118619,0.223072,-9.885968999999999,0,0,44.79058,1,1,8008,4004
9145,120831262,0,0.03308445,-0.06641983999999999,0.01359165,0.0919731,0.09436729000000001,-10.02447,0,0,44.79049,1,1,8008,4004
9149,120833706,0,-0.05126866,0.002999288,0.01678365,0.04767692,0.07751501,-10.02095,0,0,44.79028,1,1,8008,4004
9184,120836092,0,-0.01480439,0.03841771,0.005073208,0.09713036999999999,0.164952,-9.902395,0,0,44.79019,1,1,8008,4004
9187,120839342,0,0.06515919000000001,0.01097969,-0.02365507,0.2053309,0.1165505,-9.715904999999999,0,0,44.79007,1,1,8008,4004
9190,120841853,0,0.01608732,-0.01598963,-0.03230853,0.1946833,-0.01727746,-9.616474,0,0,44.78999,1,1,8008,4004
9193,120843816,0,-0.09527190000000001,-0.01033114,-0.01681028,0.08856767,-0.04980074,-9.529919,0,0,44.78984,1,1,8008,4004
9228,120846053,0,-0.06309355,-0.01264321,-0.0003085643,0.06888535,0.06014,-9.581353,0,0,44.78972,1,1,8008,4004
9231,120848572,0,0.0471621,-0.05871378,0.01757839,0.08884734,0.1044319,-9.858292,0,0,44.78963,1,1,8008,4004
9234,120852596,0,0.03417471,-0.06521583,0.02663366,0.02466564,0.0227136,-10.06416,0,0,44.78955,1,1,8008,4004
9237,120855056,0,-0.04337158,0.01078557,0.03223498,-0.1237356,0.04316797,-10.14523,0,0,44.78935,1,1,8008,4004
9241,120856879,0,0.01317016,0.04473111,0.01004276,-0.05061968,0.2100585,-9.909352999999999,0,0,44.78923,1,1,8008,4004
9276,120859549,0,0.0516762,-0.02343207,-0.02248304,0.07592422,0.1943489,-9.696933,0,0,44.78916,1,1,8008,4004
9279,120862233,0,-0.01807205,-0.02448592,-0.02642998,0.05046573,0.05546599,-9.493351000000001,0,0,44.78913,1,1,8008,4004
9282,120864545,0,-0.07576963,0.01894873,-0.01464017,-0.04841813,0.09818745,-9.491026,0,0,44.78912,1,1,8008,4004
9286,120867116,0,0.0001605472,0.01272095,0.005167746,0.03717064,0.2782943,-9.697737,0,0,44.7891,1,1,8008,4004
9321,120869511,0,0.06619229,-0.06854156,0.01386715,0.1419453,0.1798784,-10.03345,0,0,44.78909,1,1,8008,4004
9325,120872315,0,0.01895595,-0.04869095,0.02058232,0.02752547,0.07663621,-10.1677,0,0,44.78907,1,1,8008,4004
9328,120875304,0,-0.01396995,0.06329608,0.02304038,-0.07605452,0.1444103,-10.05076,0,0,44.78904,1,1,8008,4004
9331,120877812,0,0.03541247,0.06732051999999999,0.008870655,0.06299250000000001,0.175727,-9.832046,0,0,44.78899,1,1,8008,4004
9366,120880405,0,-0.006634948,-0.02451443,-0.02006075,0.1491401,-0.08231046,-9.506038,0,0,44.78886,1,1,8008,4004
9369,120883306,0,-0.07602680000000001,0.00167369,-0.01177967,-0.01063789,-0.09183507,-9.476208,0,0,44.78881,1,1,8008,4004
9373,120886008,0,-0.02778255,0.0169057,0.011872,-0.0171008,0.07760881,-9.611909000000001,0,0,44.78872,1,1,8008,4004
9377,120887895,0,0.03892649,-0.03713699,0.02092032,0.08879157999999999,0.07467239000000001,-9.826765999999999,0,0,44.78865,1,1,8008,4004
9412,120890671,0,0.02065402,-0.04236718,0.03019492,-0.05166415,-0.02189498,-10.13065,0,0,44.78859,1,1,8008,4004
9415,120892880,0,-0.008837747,0.0474594,0.03538087,-0.2376765,0.05876831,-10.13252,0,0,44.78854,1,1,8008,4004
9418,120895610,0,0.01529619,0.1069573,0.02891861,-0.217437,0.1880543,-9.942246000000001,0,0,44.78849,1,1,8008,4004
9421,120898486,0,0.04583145,0.02071474,-0.009144737,0.09076500999999999,0.1433838,-9.543708000000001,0,0,44.78836,1,1,8008,4004
9456,120901339,0,-0.04607581,-0.02461341,-0.0338682,0.01239855,0.04638455,-9.34849,0,0,44.78827,1,1,8008,4004
9459,120903691,0,-0.03935046,0.02950913,-0.01344074,-0.1070928,0.2434296,-9.442348000000001,0,0,44.78819,1,1,8008,4004
9465,120906231,0,0.03654947,-0.002445558,0.003821955,0.06755836,0.3019872,-9.657044000000001,0,0,44.78813,1,1,8008,4004
9469,120908616,0,0.06555023,-0.05070666,0.02067025,0.1440358,0.1626773,-10.04302,0,0,44.78811,1,1,8008,4004
9505,120911702,0,0.03770779,0.02063107,0.03193727,-0.06222933,0.1576165,-10.13356,0,0,44.78809,1,1,8008,4004
9508,120913416,0,0.04751593,0.1126861,0.03348684,-0.08131641000000001,0.2384266,-9.895289999999999,0,0,44.7881,1,1,8008,4004
9512,120916797,0,0.04402871,0.05415127,0.01064657,0.1553463,0.1202717,-9.650658999999999,0,0,44.78814,1,1,8008,4004
9515,120918531,0,-0.04968536,-0.04081357,-0.02910192,0.1645004,-0.09519709,-9.447894,0,0,44.78826,1,1,8008,4004
9552,120921694,0,-0.04635281,-0.02063975,-0.02084192,-0.06251658,0.05232585,-9.509506999999999,0,0,44.78839,1,1,8008,4004
9555,120923953,0,0.0265072,-0.03610429,0.002723507,0.03781737,0.1175737,-9.694324,0,0,44.78849,1,1,8008,4004
9558,120926946,0,0.05845762,-0.05384715,0.02870612,0.1529623,0.03894395,-9.915724000000001,0,0,44.78857,1,1,8008,4004
9562,120928912,0,0.03537622,0.01452936,0.03785818,-0.06296456,0.02387881,-10.02686,0,0,44.78869,1,1,8008,4004
9597,120931326,0,0.03678904,0.101817,0.03210013,-0.1432876,0.1771728,-9.803217999999999,0,0,44.78879,1,1,8008,4004
9600,120934595,0,0.02265737,0.0606207,0.004677673,0.04143421,0.1252705,-9.637318,0,0,44.78886,1,1,8008,4004
9603,120936409,0,-0.04570721,-0.03324011,-0.0484775,0.08518282000000001,0.04786338,-9.529071,0,0,44.78899,1,1,8008,4004
9607,120939391,0,-0.03626792,-0.0586635,-0.05620152,-0.01912689,0.1738264,-9.570620999999999,0,0,44.78907,1,1,8008,4004
9642,120941868,0,0.04703236,-0.08302698,-0.01779162,0.08658879,0.2765615,-9.800342000000001,0,0,44.7892,1,1,8008,4004
9645,120945601,0,0.05827528,-0.03791378,0.0275206,0.1592875,0.1580978,-9.939168,0,0,44.78933,1,1,8008,4004
9648,120947109,0,0.04595331,0.03250458,0.04498588,0.0606115,0.164698,-9.853624999999999,0,0,44.78939,1,1,8008,4004
9651,120949709,0,0.03375307,0.07324115,0.04084041,0.07108378,0.1325338,-9.684854,0,0,44.78945,1,1,8008,4004
9686,120952541,0,-0.01404096,0.03278002,0.01307746,0.1427247,-0.01808671,-9.678804,0,0,44.78949,1,1,8008,4004
9689,120954599,0,-0.06631362,-0.04373824,-0.03542808,0.04623486,-0.07483402,-9.775508,0,0,44.78954,1,1,8008,4004
9693,120958091,0,-0.01299678,-0.08772619,-0.04214671,-0.02700209,0.03839675,-9.869672,0,0,44.78954,1,1,8008,4004
9697,120960892,0,0.06710434,-0.1047733,-0.009867686000000001,0.003879584,0.02673314,-9.963808999999999,0,0,44.78955,1,1,8008,4004
9700,120962708,0,0.01455924,-0.01933369,0.02729709,-0.04544167,-0.07747885,-9.825544000000001,0,0,44.78955,1,1,8008,4004
9735,120965495,0,-0.02230976,0.0421127,0.0358771,-0.07648288,-0.02927066,-9.692444,0,0,44.78957,1,1,8008,4004
9739,120968400,0,-0.03932948,0.04848947,0.01296139,0.001023955,-0.01014545,-9.710535,0,0,44.78956,1,1,8008,4004
9742,120970656,0,-0.04867846,0.009746479000000001,-0.02224051,0.0329236,-0.03443272,-9.827029,0,0,44.78954,1,1,8008,4004
9745,120973226,0,-0.004009115,-0.05214694,-0.05972737,0.00640993,0.1115732,-10.00057,0,0,44.78949,1,1,8008,4004
9780,120976389,0,0.0540543,-0.05357632,-0.03977627,0.0205063,0.2010587,-10.12051,0,0,44.78941,1,1,8008,4004
9783,120979309,0,-0.003548804,-0.02154494,0.007829219,0.09219126,0.1057223,-10.0046,0,0,44.78938,1,1,8008,4004
9787,120980915,0,-0.04460077,-0.0008193639,0.0317614,0.1319091,0.1010414,-9.890243999999999,0,0,44.78934,1,1,8008,4004
9790,120983564,0,-0.04722115,0.006761838,0.04303154,0.1395503,0.1124486,-9.880068,0,0,44.7893,1,1,8008,4004
9825,120986390,0,-0.008547243,-0.008049213,0.02750854,0.09638012,0.06942308,-10.05689,0,0,44.78928,1,1,8008,4004
9828,120989548,0,0.03296795,-0.0185454,-0.006168684,0.003676905,0.08794905,-10.15022,0,0,44.78928,1,1,8008,4004
9831,120992201,0,0.03713317,-0.01005328,-0.01964681,-0.06229533,0.09639696,-10.05363,0,0,44.78931,1,1,8008,4004
9834,120993898,0,-0.002798473,-0.01770733,-0.02960999,-0.04663569,0.04744961,-9.812208,0,0,44.78938,1,1,8008,4004
9869,120996911,0,-0.04745005,-0.0280511,-0.0289248,0.01086732,0.01019069,-9.728247,0,0,44.78941,1,1,8008,4004
9872,120999256,0,-0.1083022,-0.00761336,-0.005885305,-0.01820517,-0.03696867,-9.828491,0,0,44.78948,1,1,8008,4004
9876,121001637,0,-0.0634952,0.02701353,0.007658735,-0.06288233,0.04578386,-9.946210000000001,0,0,44.78953,1,1,8008,4004
9879,121004538,0,0.08887156,0.05604961,0.0172966,-0.02349819,0.1973712,-9.863617,0,0,44.7896,1,1,8008,4004
9914,121007701,0,0.05731659,0.008763877,0.01317045,0.07690597,-0.006359434,-9.471038,0,0,44.78963,1,1,8008,4004
9920,121009721,0,-0.1414463,-0.04024574,-0.007692097,0.1249335,-0.1646375,-9.320845,0,0,44.78965,1,1,8008,4004
9923,121012287,0,-0.200875,-0.0361427,-0.009507735,0.07496189,-0.09377898,-9.473594,0,0,44.78962,1,1,8008,4004
9927,121015241,0,-0.03059207,0.009790787,0.0005686572,-0.02760843,0.154718,-9.763187,0,0,44.78952,1,1,8008,4004
9962,121018595,0,0.170194,0.03832626,0.01104372,-0.02493746,0.2804384,-9.710269,0,0,44.78945,1,1,8008,4004
9965,121020669,0,0.03991584,0.01915427,0.01396368,0.01300922,0.07058281,-9.362683000000001,0,0,44.78935,1,1,8008,4004
9971,121023401,0,-0.1483522,0.003321593,0.001471692,0.02519105,-0.04655569,-9.273745999999999,0,0,44.7893,1,1,8008,4004
9974,121031898,0,0.2417432,-0.02125058,-0.003616151,0.0772543,0.2558433,-9.593738999999999,0,0,44.78907,1,1,8008,4004
10009,121034651,0,-0.1187099,-0.04341733,0.03307007,0.125026,-0.2426989,-9.450108999999999,0,0,44.78899,1,1,8008,4004
10012,121037583,0,-0.3304509,0.001305957,0.04045161,0.05336334,-0.2410858,-9.60792,0,0,44.78894,1,1,8008,4004
10015,121039881,0,-0.1115872,0.07970985999999999,0.02101298,-0.03046428,0.08788095,-9.852869999999999,0,0,44.78889,1,1,8008,4004
10018,121042509,0,0.2245538,0.04927251,-0.009149697,0.02026831,0.4765961,-9.950782999999999,0,0,44.78882,1,1,8008,4004
10053,121045295,0,0.2674157,-0.0692059,-0.04374563,0.194591,0.1209981,-9.655132,0,0,44.78875,1,1,8008,4004
10057,121048704,0,-0.2619448,-0.09868971,-0.03047651,0.2071595,-0.265528,-9.604393999999999,0,0,44.78867,1,1,8008,4004
10060,121050630,0,-0.3541233,0.05004815,0.006655611,0.04928698,0.172733,-9.90451,0,0,44.7886,1,1,8008,4004
10065,121053172,0,0.02746088,0.1219727,0.02075075,0.01863588,0.6280897,-10.10591,0,0,44.78852,1,1,8008,4004
10100,121056361,0,0.4944841,0.005974695,0.01715983,0.2190385,0.6125774,-10.07316,0,0,44.78846,1,1,8008,4004
10103,121058370,0,0.2711143,-0.1030343,0.01992363,0.2555032,0.06804986,-9.94171,0,0,44.78841,1,1,8008,4004
10106,121061068,0,-0.4301909,-0.06255238,0.02612594,-0.04197937,-0.3440139,-9.929928,0,0,44.78831,1,1,8008,4004
10109,121064013,0,-0.4526798,0.04252625,0.0216714,-0.1918497,0.1151092,-10.04811,0,0,44.78823,1,1,8008,4004
10144,121067636,0,0.5258724,-0.05645945,-0.03493929,0.1333069,0.9178399,-10.09205,0,0,44.78814,1,1,8008,4004
10147,121069594,0,0.2973696,-0.1345611,-0.03034988,0.1510704,0.07545825,-9.957962,0,0,44.78812,1,1,8008,4004
10150,121072031,0,-0.2514276,0.002070675,0.005067545,-0.08803871000000001,-0.4798603,-9.886711,0,0,44.78814,1,1,8008,4004
10153,121074820,0,-0.5432981,0.1707595,0.03800622,-0.2237966,-0.4396167,-9.923512000000001,0,0,44.7882,1,1,8008,4004
10188,121077541,0,0.04886544,0.08750127000000001,0.01618125,0.07057621,0.430225,-10.11953,0,0,44.78827,1,1,8008,4004
10192,121079928,0,0.5203983,-0.1923786,-0.01772577,0.2411714,0.4608221,-10.18839,0,0,44.78834,1,1,8008,4004
10195,121083236,0,0.2707615,-0.1644592,-0.007945788000000001,-0.03354006,-0.1194091,-10.03798,0,0,44.7884,1,1,8008,4004
10198,121085596,0,-0.3434994,0.05740118,0.01788669,-0.2652747,-0.4249781,-9.723744,0,0,44.78851,1,1,8008,4004
10233,121088101,0,-0.2019689,0.01826516,-0.008151668000000001,0.1436043,0.2238804,-9.778318000000001,0,0,44.78858,1,1,8008,4004
10236,121090846,0,0.2951839,-0.05544381,-0.03444469,0.1335496,0.5611782,-10.0765,0,0,44.78863,1,1,8008,4004
10239,121093544,0,0.3756197,0.04023268,-0.01290932,-0.1702719,0.3891571,-10.0724,0,0,44.78866,1,1,8008,4004
10242,121096493,0,0.04158789,0.09395581,0.02348323,-0.1209363,0.06460444999999999,-9.708637,0,0,44.78872,1,1,8008,4004
10277,121099562,0,-0.2227871,-0.06888168,0.0120892,0.2090356,0.04377695,-9.494255000000001,0,0,44.78878,1,1,8008,4004
10281,121101641,0,-0.004552036,-0.09321036000000001,-0.005724567,-0.06296147000000001,0.3578493,-9.692138999999999,0,0,44.78882,1,1,8008,4004
10284,121104497,0,0.2458834,-0.01637577,-0.00022891,-0.1952702,0.5248338,-9.780798000000001,0,0,44.78885,1,1,8008,4004
10287,121106856,0,0.3393807,0.02189559,0.006162339,-0.06371563,0.380156,-9.665283000000001,0,0,44.78888,1,1,8008,4004
10322,121109845,0,0.002033798,0.03855716,0.01764204,0.1004681,-0.2814896,-9.331346,0,0,44.7889,1,1,8008,4004
10326,121112518,0,-0.3003868,0.004834851,0.01208727,0.02814022,-0.3332928,-9.512857,0,0,44.78892,1,1,8008,4004
10330,121114555,0,-0.1080369,-0.004320826,0.001900313,0.001044821,0.0357243,-9.669408000000001,0,0,44.78893,1,1,8008,4004
10336,121117286,0,0.3127682,0.001194934,-0.0002321045,-0.06647271,0.1126302,-9.611155,0,0,44.78895,1,1,8008,4004
10371,121120276,0,0.1887547,0.02097529,0.0008236708,-0.06719267,-0.2743013,-9.486492,0,0,44.78897,1,1,8008,4004
10375,121122548,0,-0.1191843,-0.03439702,0.003787133,0.05396594,-0.362399,-9.415851,0,0,44.78898,1,1,8008,4004
10378,121125504,0,-0.2921075,-0.0844485,0.006523918,0.1117871,-0.2001757,-9.305512999999999,0,0,44.78899,1,1,8008,4004
10381,121127643,0,-0.1172691,-0.03525312,0.01848679,0.00557071,0.03079506,-9.506224,0,0,44.789,1,1,8008,4004
10416,121130307,0,0.3088169,0.04012728,0.02806447,-0.0345576,0.4035186,-9.732875999999999,0,0,44.78902,1,1,8008,4004
10420,121133362,0,0.2359041,0.04981611,0.03545491,0.005493968,0.07387948,-9.173457000000001,0,0,44.78904,1,1,8008,4004
10423,121135922,0,-0.0999174,0.03962005,0.03191654,0.005768989,-0.2867713,-8.753481000000001,0,0,44.78904,1,1,8008,4004
10426,121137823,0,-0.3868353,-0.05786008,0.0003697198,0.05776634,-0.1139731,-9.017035,0,0,44.78902,1,1,8008,4004
10461,121140353,0,0.04597214,-0.05254304,-0.0213187,-0.1103685,0.4369337,-9.605587,0,0,44.78899,1,1,8008,4004
10464,121143515,0,0.3321818,-0.01138115,0.0009371958,-0.2195002,0.3575681,-9.580114,0,0,44.78896,1,1,8008,4004
10467,121146020,0,0.1665309,0.0184653,0.03853961,-0.04137503,-0.2663449,-9.251828,0,0,44.78891,1,1,8008,4004
10470,121149036,0,-0.1695013,-0.03205833,0.03708277,0.1403496,-0.4780893,-9.149215999999999,0,0,44.78888,1,1,8008,4004
10505,121152124,0,-0.1896331,-0.06382122,0.01081211,0.1039049,-0.01914534,-9.390283,0,0,44.78878,1,1,8008,4004
10509,121154576,0,0.04116073,-0.01078367,0.009779382,0.05451968,0.1489799,-9.569069000000001,0,0,44.78876,1,1,8008,4004
10513,121156929,0,0.2200052,0.05428752,-0.008129829999999999,0.04885368,0.07557712,-9.800776000000001,0,0,44.78871,1,1,8008,4004
10516,121160570,0,0.05998942,0.03837263,-0.01205616,0.05649667,-0.1130269,-9.788342999999999,0,0,44.78868,1,1,8008,4004
10519,121161996,0,-0.2871972,-0.07085743,0.01999149,0.1197004,-0.3503624,-9.71575,0,0,44.78862,1,1,8008,4004
10555,121165329,0,-0.2395209,-0.04015429,0.02944899,-0.04613077,-0.06916124999999999,-10.07075,0,0,44.78858,1,1,8008,4004
10558,121167137,0,0.08329089000000001,0.02792486,0.03197247,-0.2009991,0.3015178,-10.30573,0,0,44.78854,1,1,8008,4004
10561,121170460,0,0.318165,-0.008085418,0.02614587,-0.04403012,0.2233307,-10.10068,0,0,44.78841,1,1,8008,4004
10564,121172397,0,0.05088942,-0.04505933,0.01099407,0.05854601,-0.2593929,-9.844011999999999,0,0,44.78832,1,1,8008,4004
10599,121175322,0,-0.4516987,0.009162303,-0.01861748,-0.1352343,-0.3921616,-9.84821,0,0,44.78814,1,1,8008,4004
10602,121177794,0,-0.1362596,-0.008621172999999999,-0.02399833,-0.06997546,0.3342928,-10.30139,0,0,44.78802,1,1,8008,4004
10605,121181381,0,0.2232583,-0.04733648,-0.01760083,0.06426956,0.48181,-10.44612,0,0,44.78796,1,1,8008,4004
10608,121183544,0,0.2146953,0.08342152999999999,0.01222324,-0.183991,0.04356345,-10.28708,0,0,44.78784,1,1,8008,4004
10643,121186287,0,-0.168005,0.09341183,0.03215627,-0.06469005,-0.06688643,-9.932015,0,0,44.78772,1,1,8008,4004
10647,121188615,0,-0.3083383,-0.1188276,0.01003702,0.3605179,-0.002280985,-9.940937,0,0,44.78764,1,1,8008,4004
10650,121191669,0,-0.1923826,-0.07097959,-0.009361868000000001,0.0818252,0.07134356,-10.16617,0,0,44.78758,1,1,8008,4004
10653,121194530,0,0.2382035,0.08918007,0.001029449,-0.2817742,0.5499343,-10.27339,0,0,44.78746,1,1,8008,4004
10688,121197330,0,0.2505803,-0.0161396,0.01454235,0.1839617,0.2802399,-9.793818999999999,0,0,44.78731,1,1,8008,4004
10692,121199712,0,-0.3127186,-0.009594049,-0.008710262,-0.00561323,-0.440404,-9.449308,0,0,44.78717,1,1,8008,4004
10695,121202608,0,-0.4149793,0.07711162000000001,-0.02273426,-0.2857873,-0.2089605,-9.671602999999999,0,0,44.78707,1,1,8008,4004
10698,121205274,0,0.08156647,0.01039147,-0.04610911,-0.03582348,0.6323408,-10.07616,0,0,44.78689,1,1,8008,4004
10733,121207919,0,0.299151,0.0374155,-0.03018681,-0.03926481,0.427098,-10.02678,0,0,44.78675,1,1,8008,4004
10736,121210517,0,0.1149188,0.08424339,-0.005667485,-0.2222247,-0.001169852,-9.723352999999999,0,0,44.78665,1,1,8008,4004
10739,121213344,0,-0.2435531,-0.02895233,0.008205239,0.1127908,-0.1139996,-9.375199,0,0,44.78651,1,1,8008,4004
10742,121216405,0,-0.2732597,-0.09682484,-0.003537088,0.2617176,-0.02116254,-9.472967000000001,0,0,44.78645,1,1,8008,4004
10745,121218408,0,0.02545188,0.06274502999999999,-0.01507748,-0.1522497,0.2211469,-9.924519999999999,0,0,44.7863,1,1,8008,4004
10780,121221140,0,0.270179,0.04130803,-0.01545665,0.05916446,0.3902681,-10.01982,0,0,44.78617,1,1,8008,4004
10787,121223810,0,-0.04449369,-0.06952162000000001,-0.0252845,0.3871547,-0.2327289,-9.779078,0,0,44.78598,1,1,8008,4004
10790,121226844,0,-0.3410788,-0.03364433,-0.01835587,0.1665464,-0.4466945,-9.685022999999999,0,0,44.78588,1,1,8008,4004
10794,121229304,0,-0.2199489,0.01979931,-0.006535148,0.06170065,0.1371924,-9.678883000000001,0,0,44.7857,1,1,8008,4004
10829,121231883,0,0.290408,-0.009792772999999999,-0.01830306,0.2095489,0.405215,-9.719821,0,0,44.78556,1,1,8008,4004
10832,121234636,0,0.3237301,0.04501417,-0.02647448,0.009551431000000001,0.1342102,-9.683006000000001,0,0,44.78549,1,1,8008,4004
10837,121237942,0,-0.1469567,0.0284636,-0.02006443,-0.1087041,-0.2168969,-9.469936000000001,0,0,44.78539,1,1,8008,4004
10840,121243353,0,0.03466631,-0.006361223,-0.01361154,-0.1639335,0.5118602,-9.909390999999999,0,0,44.78519,1,1,8008,4004
10876,121246164,0,0.3820215,0.02890083,0.02422409,-0.1526295,0.5725116,-9.39438,0,0,44.78509,1,1,8008,4004
10880,121248561,0,0.2247852,0.01036109,0.02357933,0.06392655999999999,0.192029,-8.977045,0,0,44.78498,1,1,8008,4004
10884,121251343,0,-0.2434204,-0.002747251,-0.0004962485,0.05874861,0.05510457,-9.047984,0,0,44.78486,1,1,8008,4004
10888,121256650,0,0.02414026,-0.02861354,-0.01836609,-0.02263914,0.7269624,-9.824986000000001,0,0,44.78469,1,1,8008,4004
10923,121259559,0,0.4645505,0.004887918,-0.01745221,0.02878061,0.8251591,-9.985264000000001,0,0,44.78463,1,1,8008,4004
10927,121263274,0,0.1613551,0.0136735,0.0170643,-0.0001539501,0.2449878,-9.288359,0,0,44.78457,1,1,8008,4004
10930,121265342,0,-0.3717891,-0.03176251,0.01555641,0.1969325,-0.1685129,-9.059607,0,0,44.78451,1,1,8008,4004
10933,121267350,0,-0.2567756,-0.02570265,-0.01081403,0.16605,0.1691905,-9.645045,0,0,44.78447,1,1,8008,4004
10968,121269914,0,0.2515424,0.03693226,-0.007804161,-0.1603879,0.5975153,-10.19075,0,0,44.78442,1,1,8008,4004
10972,121272381,0,0.3947833,0.01696766,0.01126231,-0.1338383,0.3705586,-10.09318,0,0,44.78437,1,1,8008,4004
10975,121275286,0,0.1484995,-0.04438244,0.00764392,0.1505736,-0.1103538,-9.875636999999999,0,0,44.78431,1,1,8008,4004
10978,121280404,0,-0.2627376,-0.01039022,0.007424303,-0.03288682,-0.02429582,-9.528504,0,0,44.78421,1,1,8008,4004
11013,121283415,0,0.3563721,0.0494746,-0.01397164,0.03577234,0.4714828,-10.03326,0,0,44.78416,1,1,8008,4004
11017,121286383,0,0.3479144,0.05102037,0.005466373,-0.117842,0.2461895,-10.10913,0,0,44.78416,1,1,8008,4004
11020,121288884,0,0.07361363999999999,0.03527556,0.0252896,-0.1440262,-0.1543393,-9.821159,0,0,44.78416,1,1,8008,4004
11023,121290929,0,-0.2445419,-0.01369935,0.01897176,0.007717164,-0.09184243,-9.840448,0,0,44.78416,1,1,8008,4004
11058,121293591,0,0.1726518,0.01258558,0.0162258,-0.1189956,0.4336159,-10.05851,0,0,44.78416,1,1,8008,4004
11061,121295949,0,0.2856045,0.01883024,0.01764424,-0.180538,0.4691242,-9.982008,0,0,44.78416,1,1,8008,4004
11064,121299307,0,0.3389632,0.06632555,0.01148965,-0.1631884,0.2400001,-9.935644999999999,0,0,44.78416,1,1,8008,4004
11067,121301289,0,-0.02477899,0.1107462,0.007622345,-0.1734586,-0.1193616,-10.02341,0,0,44.78416,1,1,8008,4004
11102,121304415,0,-0.2281698,0.0046976,0.01980197,-0.04924181,-0.05566005,-10.00053,0,0,44.78418,1,1,8008,4004
11105,121306496,0,-0.08179975,-0.04640398,0.01179209,0.03165832,0.1325249,-10.0601,0,0,44.78419,1,1,8008,4004
11108,121309520,0,0.355573,0.005152126,0.007578271,0.003714156,0.4140496,-10.08947,0,0,44.78423,1,1,8008,4004
11111,121311684,0,0.3774016,0.009915507,0.02651423,0.1090945,0.2487154,-9.811719,0,0,44.78426,1,1,8008,4004
11146,121314612,0,-0.1553127,0.02894595,0.03497292,0.2540703,-0.5181863,-9.405455999999999,0,0,44.78432,1,1,8008,4004
11150,121317496,0,-0.4384313,0.09114474,0.003447941,0.08741727000000001,-0.4474919,-9.885839000000001,0,0,44.78439,1,1,8008,4004
11153,121319562,0,-0.06308055999999999,0.04309287,-0.01432907,0.0900146,0.119309,-10.15441,0,0,44.78443,1,1,8008,4004
11156,121322835,0,0.3927543,-0.03915361,-0.01400693,0.1873406,0.2238826,-9.877286,0,0,44.78449,1,1,8008,4004
11191,121325306,0,0.192006,-0.02275117,-0.002826272,0.1464763,-0.3097853,-9.3643,0,0,44.78457,1,1,8008,4004
11195,121327923,0,-0.3553596,-0.04362646,0.02608137,0.2674755,-0.4927234,-9.263451999999999,0,0,44.78464,1,1,8008,4004
11201,121330867,0,-0.5354448000000001,-0.02647215,0.03727708,0.1848986,-0.4733348,-9.608896,0,0,44.78466,1,1,8008,4004
11204,121333336,0,-0.01128669,0.09106812,0.01253312,-0.1300386,0.1904534,-10.41528,0,0,44.78469,1,1,8008,4004
11240,121336137,0,0.4941745,-0.003611305,0.006120494,0.03560415,0.494947,-10.26684,0,0,44.78473,1,1,8008,4004
11244,121338493,0,-0.2170273,-0.08018707,-0.01150167,0.1749762,-0.3754085,-9.494838,0,0,44.78482,1,1,8008,4004
11247,121341662,0,-0.3946466,-0.07100437,-0.01744957,0.1276174,-0.5766552,-9.378000999999999,0,0,44.78489,1,1,8008,4004
11250,121344038,0,-0.4173501,-0.017472,-0.01204245,0.04831218,-0.01155847,-9.735571,0,0,44.78504,1,1,8008,4004
11285,121346844,0,0.3268209,0.08498139,0.006476823,-0.1211185,0.3705682,-10.07235,0,0,44.78518,1,1,8008,4004
11289,121349515,0,0.4064953,0.05877526,0.004015413,-0.1154286,0.2983795,-9.935426,0,0,44.78523,1,1,8008,4004
11292,121352370,0,0.05491126,-0.06066855,0.0003255745,0.07364129,-0.2156685,-9.383924,0,0,44.7853,1,1,8008,4004
11295,121354552,0,-0.3515729,-0.09104821,-0.009244244,0.06512447,-0.4379022,-9.22696,0,0,44.78533,1,1,8008,4004
11330,121357618,0,-0.4028739,-0.02794405,-0.02124604,-0.09990945,0.02582603,-9.627948,0,0,44.78539,1,1,8008,4004
11333,121359632,0,0.1387759,0.03716984,0.004233056,-0.1189551,0.5077563,-10.06241,0,0,44.78543,1,1,8008,4004
11336,121362395,0,0.3019223,0.0405509,0.01371799,-0.07462017,0.3443192,-9.864182,0,0,44.78545,1,1,8008,4004
11339,121365333,0,-0.1525146,-0.005296293,0.01255483,0.01990788,-0.1505087,-9.290583,0,0,44.78548,1,1,8008,4004
11374,121369164,0,-0.341436,-0.07416532000000001,0.0005051825,0.1827168,-0.02459482,-9.205558,0,0,44.78549,1,1,8008,4004
11377,121370880,0,-0.033441,-0.009177743,-0.006208398,0.001548701,0.3694506,-9.800447,0,0,44.78551,1,1,8008,4004
11381,121373413,0,0.1862884,0.05656235,-0.003037962,-0.05419405,0.3905708,-9.959479999999999,0,0,44.78554,1,1,8008,4004
11384,121376057,0,0.1487084,0.04067465,-0.004041644,0.03184014,0.31273,-10.01792,0,0,44.78558,1,1,8008,4004
11419,121379097,0,-0.1733728,-0.007686418,-0.01448477,0.118164,-0.01182107,-9.662000000000001,0,0,44.78564,1,1,8008,4004
11422,121382478,0,-0.2057738,-0.05355616,-0.02190059,0.09307832000000001,0.05586796,-9.619733999999999,0,0,44.78567,1,1,8008,4004
11426,121384266,0,0.04032807,-0.03392914,-0.005838034,0.08374035000000001,0.5000057999999999,-9.907375,0,0,44.78573,1,1,8008,4004
11429,121386407,0,0.1872473,0.02059203,0.01257632,0.01259335,0.5455947,-10.04438,0,0,44.78576,1,1,8008,4004
11464,121388949,0,0.1568775,0.04711083,0.01662265,-0.02933408,0.3961782,-10.02953,0,0,44.7858,1,1,8008,4004
11467,121391863,0,-0.02056099,0.01639442,0.006091206,0.06030352,0.3170111,-9.86994,0,0,44.78583,1,1,8008,4004
11470,121394077,0,-0.03679386,-0.04317353,-0.02769677,0.08800363999999999,0.3565956,-9.737766000000001,0,0,44.78591,1,1,8008,4004
11473,121396198,0,0.08838651,-0.04201209,-0.03547358,0.03231268,0.5637302,-9.878567,0,0,44.78596,1,1,8008,4004
11508,121398893,0,0.1626824,0.02199692,-0.01299249,-0.05836459,0.5385625000000001,-10.19479,0,0,44.78604,1,1,8008,4004
11511,121401322,0,0.1417171,0.05483295,-0.0009695016,-0.06209739,0.3340071,-10.37793,0,0,44.78611,1,1,8008,4004
11514,121404530,0,0.01159438,0.05220933,0.008434407,-0.005120359,0.1889973,-10.28527,0,0,44.78629,1,1,8008,4004
11519,121407516,0,0.01407078,0.044445,0.006530949,-0.01747771,0.1639644,-10.17837,0,0,44.78638,1,1,8008,4004
11522,121409376,0,0.1313555,-0.0121759,-0.01018606,-0.00713086,0.1802647,-9.958852,0,0,44.7865,1,1,8008,4004
11559,121412026,0,0.05771893,-0.007179849,-0.00723763,-0.0003302921,-0.03095113,-9.949738999999999,0,0,44.78662,1,1,8008,4004
11563,121414710,0,-0.006617055,0.03184009,-0.00475382,-0.04979996,-0.2666866,-10.02673,0,0,44.7867,1,1,8008,4004
11566,121423485,0,0.0107434,-0.02089391,-0.01159958,0.03787879,-0.1956805,-9.698256000000001,0,0,44.78716,1,1,8008,4004
11603,121426347,0,-0.1090858,-0.00365817,-0.001558002,0.05860339,-0.2512201,-9.675933000000001,0,0,44.78733,1,1,8008,4004
11607,121429392,0,-0.05845477,0.02878623,0.004301458,0.09969223000000001,-0.05897147,-9.752672,0,0,44.78752,1,1,8008,4004
11610,121431996,0,0.08491931,0.01515583,0.00210135,0.1445596,0.1906833,-9.790482000000001,0,0,44.78762,1,1,8008,4004
11613,121433935,0,0.1923716,-0.02864543,0.0006210302,0.1974023,0.3080046,-9.644038999999999,0,0,44.78779,1,1,8008,4004
11651,121437323,0,-0.07600234,-0.002576923,0.007755123,0.1093514,0.02592087,-9.568158,0,0,44.78795,1,1,8008,4004
11655,121439043,0,-0.1969013,0.01954901,0.006983025,0.06560616,-0.0884851,-9.5977,0,0,44.78806,1,1,8008,4004
11659,121441708,0,-0.1250087,0.04950025,0.0009120025,0.05315126,0.02370251,-9.742818,0,0,44.78816,1,1,8008,4004
11662,121444537,0,0.1634642,0.01511393,-0.008278285999999999,0.02931624,0.3074228,-9.90099,0,0,44.78834,1,1,8008,4004
11697,121447835,0,0.1735961,-0.02835053,-0.001083279,-0.02279839,-0.009176057,-9.83061,0,0,44.78859,1,1,8008,4004
11701,121450066,0,-0.2144939,0.006458841,0.01052116,-0.1336453,-0.3199587,-9.815022000000001,0,0,44.78882,1,1,8008,4004
11704,121452479,0,-0.3028756,0.002518569,0.0107932,-0.1179914,-0.3622487,-9.812792,0,0,44.78894,1,1,8008,4004
11707,121455390,0,0.01951063,0.01344684,-0.001282557,-0.03475792,0.1940606,-10.01097,0,0,44.78917,1,1,8008,4004
11742,121458539,0,0.2362899,-0.02046964,0.003855044,-0.04712913,0.2215785,-9.912542,0,0,44.78936,1,1,8008,4004
11745,121460938,0,-0.07603277999999999,0.0646202,0.007225561,-0.1621035,-0.2289175,-9.758493,0,0,44.78965,1,1,8008,4004
11748,121463096,0,-0.315061,0.03819831,-0.0004956681,-0.1760098,-0.3828516,-9.693692,0,0,44.78977,1,1,8008,4004
11751,121466134,0,-0.2068659,-0.0183742,-0.007786436,-0.003281662,-0.1469757,-9.787464,0,0,44.79001,1,1,8008,4004
11786,121468977,0,0.1863403,-0.09505441000000001,-0.007381016,0.02509699,0.2349121,-10.04125,0,0,44.79025,1,1,8008,4004
11790,121471981,0,0.1807359,-0.0324236,0.02334046,-0.06283675,-0.01662935,-10.11008,0,0,44.79043,1,1,8008,4004
11793,121473903,0,-0.1895017,0.07378734000000001,0.03309514,-0.1323453,-0.3427594,-10.04748,0,0,44.7907,1,1,8008,4004
11796,121476539,0,-0.4137628,0.03888896,0.01828475,0.07627691,-0.4297114,-9.945774,0,0,44.79089,1,1,8008,4004
11831,121480330,0,-0.1737988,-0.04648945,-0.01649299,0.2029845,0.01912037,-10.12556,0,0,44.79107,1,1,8008,4004
11834,121482023,0,0.1626237,-0.05651312,-0.005040506,0.03649872,0.1371788,-10.19462,0,0,44.7913,1,1,8008,4004
11837,121485611,0,-0.01557602,0.1318392,0.03562955,-0.179306,-0.2655633,-9.952650999999999,0,0,44.79145,1,1,8008,4004
11840,121487290,0,-0.317296,0.1067263,0.02899951,-0.0376952,-0.340863,-9.780157000000001,0,0,44.79156,1,1,8008,4004
11875,121490478,0,-0.3369637,-0.04251463,0.001466235,0.1479168,0.1005999,-9.859785,0,0,44.79173,1,1,8008,4004
11879,121492528,0,-0.05557647,-0.1294735,-0.01861402,0.005781354,0.4885351,-10.01301,0,0,44.79183,1,1,8008,4004
11882,121495049,0,0.2022257,0.07092279,0.0172733,-0.4017855,0.5906587,-10.05809,0,0,44.79196,1,1,8008,4004
11885,121498325,0,0.1063365,0.1670913,0.03071328,-0.3720672,0.4922107,-9.777936,0,0,44.79204,1,1,8008,4004
11920,121501324,0,-0.2480029,-0.02474164,-0.001121116,0.1614865,0.5933082,-9.367801999999999,0,0,44.79219,1,1,8008,4004
11924,121503618,0,-0.1317686,-0.1507277,-0.01949771,0.1251149,0.9202549,-9.516969,0,0,44.79227,1,1,8008,4004
11928,121505920,0,0.1950593,0.01597453,0.01406795,-0.2307591,1.1872,-9.874394000000001,0,0,44.79239,1,1,8008,4004
11931,121508541,0,0.2870568,0.1533713,0.03769309,-0.2281808,1.081054,-9.840039000000001,0,0,44.79247,1,1,8008,4004
11966,121511980,0,0.05765268,0.06497820999999999,0.02155135,0.268343,0.6889307,-9.506477,0,0,44.79261,1,1,8008,4004
11969,121514354,0,-0.1183232,-0.1335199,-0.01046597,0.365601,0.5256364,-9.5207,0,0,44.79282,1,1,8008,4004
11972,121516380,0,-0.08871216,-0.07661274,-0.0003784787,0.06886093,0.5446973000000001,-9.789659,0,0,44.79289,1,1,8008,4004
11975,121519091,0,0.2140146,0.146398,0.02640819,-0.1398857,0.6039113,-9.948352,0,0,44.79298,1,1,8008,4004
12010,121522251,0,0.2743849,0.02272115,0.01118949,0.3260157,0.2513685,-9.626245000000001,0,0,44.79303,1,1,8008,4004
12014,121524543,0,0.1177136,-0.143445,-0.01106979,0.4527669,-0.08751094,-9.513469000000001,0,0,44.79303,1,1,8008,4004
12017,121527360,0,-0.2210344,-0.1018775,0.002133745,0.003247079,-0.239267,-9.813684,0,0,44.79306,1,1,8008,4004
12020,121529281,0,-0.1214793,0.05917056,0.02098381,-0.2072069,0.08083889,-10.10811,0,0,44.79309,1,1,8008,4004
12055,121531692,0,0.2353113,0.06403295000000001,0.01802779,0.09995635,0.3819922,-10.28353,0,0,44.79314,1,1,8008,4004
12059,121534871,0,0.3574567,-0.06817271,-0.007432106,0.2450059,0.2026696,-10.29873,0,0,44.79317,1,1,8008,4004
12062,121536811,0,-0.04292742,-0.008889581000000001,0.0002619218,-0.2343827,-0.2157355,-10.28516,0,0,44.79323,1,1,8008,4004
12065,121539862,0,-0.2171612,0.1651244,0.02503925,-0.5640835,-0.09389978,-10.31585,0,0,44.79325,1,1,8008,4004
12103,121542601,0,-0.02789005,0.1740416,0.02036709,-0.3175389,0.3871842,-10.33715,0,0,44.7933,1,1,8008,4004
12106,121545109,0,0.3527742,-0.1179863,-0.02733649,-0.09539866,0.3399065,-10.33754,0,0,44.79335,1,1,8008,4004
12110,121548198,0,0.2151253,-0.06763684,-0.01495232,-0.459458,-0.001524329,-10.20729,0,0,44.79339,1,1,8008,4004
12113,121550409,0,-0.1338929,0.2011123,0.0472411,-0.8191043,-0.1582236,-10.02606,0,0,44.79345,1,1,8008,4004
12148,121553109,0,-0.1001369,0.1355434,0.04185597,-0.2243986,0.1504658,-10.01462,0,0,44.79346,1,1,8008,4004
12151,121555786,0,0.1219666,-0.1039219,-0.001159634,0.06037212,0.2198166,-10.17492,0,0,44.79347,1,1,8008,4004
12154,121558591,0,0.1589854,-0.02188208,-0.003560338,-0.3689358,-0.01237939,-10.25258,0,0,44.79348,1,1,8008,4004
12157,121561261,0,-0.05662571,0.2317021,0.04207219,-0.4179629,-0.07503455000000001,-10.16558,0,0,44.79347,1,1,8008,4004
12192,121564094,0,-0.07368018,0.03814555,0.02243885,0.3794879,0.09707866,-10.10423,0,0,44.79345,1,1,8008,4004
12196,121566531,0,0.01989578,-0.1474669,-0.01186815,0.5155239,0.1485456,-10.17964,0,0,44.79344,1,1,8008,4004
12199,121569358,0,0.06462146000000001,-0.003080464,0.01621155,-0.03448351,0.1848468,-10.29753,0,0,44.79342,1,1,8008,4004
12202,121571950,0,0.05627188,0.1639472,0.04472668,-0.0581301,0.2946312,-10.34695,0,0,44.79341,1,1,8008,4004
12237,121574989,0,0.06816850000000001,-0.1174645,0.007573866,0.7662927,0.3474911,-10.45515,0,0,44.79339,1,1,8008,4004
12241,121577302,0,0.01667795,-0.1495772,-0.01186869,0.5496507,0.2483841,-10.43367,0,0,44.79338,1,1,8008,4004
12245,121579830,0,-0.05218475,-0.03241828,0.01564135,0.08584559,0.250935,-10.44121,0,0,44.79337,1,1,8008,4004
12248,121583281,0,0.04421771,0.1339158,0.04525159,0.1866483,0.4970408,-10.32613,0,0,44.79335,1,1,8008,4004
12251,121584897,0,0.2180922,-0.1575767,0.009498395,0.7180766,0.4002962,-10.23773,0,0,44.79335,1,1,8008,4004
12286,121589022,0,0.02825567,-0.110047,0.006311495,0.1816265,0.02592432,-10.06715,0,0,44.79339,1,1,8008,4004
12289,121590903,0,-0.09746407,0.03355334,0.04230581,-0.1097893,0.06915253,-10.1301,0,0,44.79344,1,1,8008,4004
12292,121593368,0,0.01342973,-0.01104315,0.05386978,0.3604089,0.3926564,-10.39595,0,0,44.7935,1,1,8008,4004
12295,121595803,0,0.2297581,-0.2057372,0.01390501,0.5187774000000001,0.3277307,-10.49581,0,0,44.79354,1,1,8008,4004
12331,121598951,0,0.04755455,-0.06236928,0.03948394,0.0043985,0.1225203,-10.50193,0,0,44.79355,1,1,8008,4004
12334,121601499,0,-0.05162511,0.06704446999999999,0.06523085000000001,0.06967711,0.2243963,-10.56249,0,0,44.79356,1,1,8008,4004
12337,121603620,0,-0.03624345,-0.03840858,0.06535757,0.454017,0.3744662,-10.75256,0,0,44.79358,1,1,8008,4004
12340,121605940,0,0.1220088,-0.1334059,0.03639052,0.4419555,0.3624719,-10.78125,0,0,44.79359,1,1,8008,4004
12375,121608518,0,0.09804319,-0.008314263000000001,0.05724157,-0.04392906,0.2722666,-10.91518,0,0,44.79362,1,1,8008,4004
12378,121611074,0,0.06368472,0.04996112,0.06431238,0.06872365,0.3312218,-11.04937,0,0,44.79367,1,1,8008,4004
12381,121614073,0,0.07482301,-0.110668,0.04091643,0.3366713,0.3199252,-11.18601,0,0,44.79378,1,1,8008,4004
12384,121616159,0,0.01833586,-0.1170406,0.03326341,0.1251103,0.1336806,-11.06035,0,0,44.79395,1,1,8008,4004
12422,121619616,0,0.02247082,-0.02351538,0.05641017,-0.1630497,0.2544652,-11.12733,0,0,44.79413,1,1,8008,4004
12425,121621503,0,0.127181,-0.07710971,0.07160094,0.1370845,0.381411,-11.15817,0,0,44.79428,1,1,8008,4004
12428,121623935,0,0.1574097,-0.08454486,0.06901035,0.1251787,0.2260657,-10.98966,0,0,44.79443,1,1,8008,4004
12431,121633075,0,0.1561251,-0.06059981,0.059443,-0.007579281,0.3248193,-11.68183,0,0,44.79489,1,1,8008,4004
12466,121635944,0,0.04831005,-0.04547318,0.04881704,-0.1593833,0.09625564,-11.80974,0,0,44.79513,1,1,8008,4004
12470,121639138,0,-0.02004111,-0.04429525,0.05670347,-0.04022694,0.1727075,-11.88302,0,0,44.79528,1,1,8008,4004
12473,121641490,0,0.02414736,-0.06830344000000001,0.06949557000000001,0.1570227,0.3234095,-11.88669,0,0,44.79547,1,1,8008,4004
12476,121643570,0,0.05240771,-0.03817095,0.08061794,0.09968407,0.2899576,-11.77583,0,0,44.79565,1,1,8008,4004
12511,121646336,0,0.03499291,-0.04044276,0.09702564,0.1437207,0.3601133,-11.91524,0,0,44.79587,1,1,8008,4004
12519,121649148,0,0.09511825,-0.09312338000000001,0.09073096,0.2444602,0.549567,-11.9565,0,0,44.79609,1,1,8008,4004
12522,121652045,0,0.103903,-0.0499663,0.08505562999999999,0.08330036,0.4795554,-11.88394,0,0,44.79625,1,1,8008,4004
12527,121654071,0,-0.01853377,-0.02359504,0.07748719,-0.06874065,0.398415,-12.01715,0,0,44.79646,1,1,8008,4004
12562,121657485,0,0.05499229,-0.06516988,0.06539068000000001,-0.02352596,0.5871726,-12.18929,0,0,44.79665,1,1,8008,4004
12566,121659713,0,0.1163242,-0.0559136,0.06854412999999999,-0.172773,0.5237199,-12.2157,0,0,44.79678,1,1,8008,4004
12569,121662569,0,0.03909248,-0.008248844999999999,0.08443672000000001,-0.3349528,0.2434527,-12.23888,0,0,44.79696,1,1,8008,4004
12572,121664492,0,-0.006968512,-0.004241056,0.09265551,-0.2201751,0.2455909,-12.35831,0,0,44.79715,1,1,8008,4004
12607,121667710,0,0.05551803,-0.04797932,0.1045365,-0.1219457,0.3599689,-12.38272,0,0,44.79739,1,1,8008,4004
12611,121669950,0,0.08316956,-0.01421091,0.1183261,-0.1652367,0.2479851,-12.41448,0,0,44.79771,1,1,8008,4004
12614,121672888,0,0.04582633,-0.02785816,0.1196642,0.0003396374,0.2651235,-12.56459,0,0,44.79787,1,1,8008,4004
12617,121675571,0,0.08451991,-0.06153719,0.1135482,0.2101442,0.4573529,-12.54631,0,0,44.79811,1,1,8008,4004
12652,121678523,0,0.07765969,-0.01052095,0.1194234,0.1276835,0.4405756,-12.50259,0,0,44.79846,1,1,8008,4004
12655,121681015,0,0.05727919,-0.03701491,0.1191444,0.2685074,0.5917346,-12.63427,0,0,44.79877,1,1,8008,4004
12658,121683391,0,0.1296531,-0.05632993,0.1173991,0.3006538,0.7450858,-12.61016,0,0,44.79899,1,1,8008,4004
12661,121686913,0,0.1424197,-0.01685847,0.1253569,0.06602876000000001,0.6635783,-12.67632,0,0,44.79921,1,1,8008,4004
12696,121689877,0,0.07854548,-0.03057796,0.1216223,0.05947495,0.6523505000000001,-12.91944,0,0,44.79947,1,1,8008,4004
12700,121692075,0,0.1383472,-0.05553657,0.1180894,0.03977019,0.7308625,-12.97279,0,0,44.79972,1,1,8008,4004
12703,121694392,0,0.1361551,-0.02620285,0.126305,-0.1064769,0.5936857,-13.05716,0,0,44.79988,1,1,8008,4004
12706,121697841,0,0.08913334000000001,-0.02944158,0.1297663,-0.09661935000000001,0.4609407,-13.21723,0,0,44.8002,1,1,8008,4004
12741,121700722,0,0.1272603,-0.02673515,0.1295428,-0.03545535,0.4608358,-13.00614,0,0,44.80053,1,1,8008,4004
12744,121703351,0,0.1129739,-0.001943493,0.1388019,-0.08270461,0.242831,-12.84036,0,0,44.80085,1,1,8008,4004
12747,121706038,0,0.08247612999999999,-0.07469289,0.1328745,0.1274376,0.2302348,-12.90135,0,0,44.80107,1,1,8008,4004
12750,121708556,0,0.1137471,-0.08176681,0.1291454,0.1495462,0.2732914,-12.87071,0,0,44.80122,1,1,8008,4004
12785,121711415,0,0.1049201,-0.02333329,0.1410434,0.01509521,0.188439,-13.0598,0,0,44.80144,1,1,8008,4004
12789,121713870,0,0.08975785,-0.04926477,0.1383859,0.160182,0.3033148,-13.38709,0,0,44.80178,1,1,8008,4004
12792,121716497,0,0.1188951,-0.04961976,0.1344094,0.1488965,0.4020877,-13.35139,0,0,44.80193,1,1,8008,4004
12795,121719576,0,0.09709615000000001,0.002724246,0.1492596,-0.07188419,0.3727018,-13.36056,0,0,44.8022,1,1,8008,4004
12830,121722387,0,0.1034592,-0.03946232,0.1562046,0.0277245,0.5657458,-13.50358,0,0,44.80241,1,1,8008,4004
12836,121724911,0,0.1801587,-0.05640265,0.1610873,-0.03692664,0.6934386,-13.25504,0,0,44.80267,1,1,8008,4004
12839,121728327,0,0.1739861,-0.03114363,0.1733141,-0.1723898,0.6326824,-13.1937,0,0,44.80283,1,1,8008,4004
12842,121730484,0,0.1468167,-0.06924468,0.1698574,-0.04008206,0.7031949,-13.30455,0,0,44.80308,1,1,8008,4004
12877,121733374,0,0.1727925,-0.06019401,0.1577867,-0.04442556,0.7370247,-13.21967,0,0,44.80331,1,1,8008,4004
12880,121735930,0,0.1830797,-0.01055027,0.1660068,-0.1257691,0.6775676,-13.45008,0,0,44.80363,1,1,8008,4004
12883,121738392,0,0.221196,-0.05942887,0.1635043,0.06956033,0.7509659,-13.65081,0,0,44.80387,1,1,8008,4004
12886,121741104,0,0.2330093,-0.0773901,0.1593211,0.1547799,0.6152223,-13.46987,0,0,44.80421,1,1,8008,4004
12921,121744590,0,0.1272747,-0.02243977,0.171416,0.05365577,0.3398566,-13.40964,0,0,44.80445,1,1,8008,4004
12925,121746517,0,0.1589853,-0.0649913,0.1704309,0.2775865,0.4227442,-13.49329,0,0,44.80476,1,1,8008,4004
12929,121748919,0,0.1908886,-0.04981264,0.1728122,0.2082957,0.272961,-13.36516,0,0,44.80489,1,1,8008,4004
12932,121751338,0,0.1448534,0.004382096,0.1783044,-0.002945016,-0.002900099,-13.36397,0,0,44.80503,1,1,8008,4004
12967,121754629,0,0.107049,-0.02258494,0.1725729,0.06136145,0.02766601,-13.6426,0,0,44.80523,1,1,8008,4004
12973,121757264,0,0.1190883,-0.0898185,0.1647352,0.1138902,0.02048885,-13.45435,0,0,44.80543,1,1,8008,4004
12976,121759306,0,0.05118227,-0.06773558,0.1686832,-0.04396372,-0.1908047,-13.32368,0,0,44.80553,1,1,8008,4004
12980,121762089,0,0.05284077,-0.08315995,0.1682484,0.07781291999999999,0.05868293,-13.50273,0,0,44.80568,1,1,8008,4004
13015,121765268,0,0.1761754,-0.1025695,0.1750926,0.2198403,0.3046544,-13.33028,0,0,44.80584,1,1,8008,4004
13019,121767884,0,0.1139166,-0.06709925,0.1854444,0.1087006,0.09006665,-13.18656,0,0,44.80595,1,1,8008,4004
13022,121769916,0,0.03903933,-0.05985434,0.1740119,0.2098873,0.2870587,-13.3721,0,0,44.8061,1,1,8008,4004
13025,121772550,0,0.1231551,-0.08894958,0.1681379,0.3254336,0.61259,-13.40845,0,0,44.80621,1,1,8008,4004
13060,121775496,0,0.1086457,-0.07644114,0.1848381,0.154682,0.3744587,-13.30377,0,0,44.80634,1,1,8008,4004
13064,121778266,0,0.06410786,-0.07293877,0.1751828,0.1671373,0.4066534,-13.59473,0,0,44.80646,1,1,8008,4004
13067,121780828,0,0.1489528,-0.09136316,0.1740374,0.2341466,0.6768744,-13.68979,0,0,44.80652,1,1,8008,4004
13070,121783381,0,0.1095801,-0.07823796,0.2055109,0.04038768,0.3373652,-13.43405,0,0,44.80661,1,1,8008,4004
