LineNo,TimeUS,I,GyrX,GyrY,GyrZ,AccX,AccY,AccZ,EG,EA,T,GH,AH,GHz,AHz
185,118643360,1,0.003152885,-0.01081514,-0.004260448,-0.02000361,0.02148349,-9.685904000000001,0,0,45.48698,1,1,753,995
220,118646263,1,0.004749436,-0.009786928,-0.00283109,-0.03791653,0.01484865,-9.708928999999999,0,0,45.4869,1,1,753,995
286,118671592,1,-0.006119468,0.004493715,-0.003916459,-0.03289221,0.003177122,-9.786633,0,0,45.48674,1,1,753,995
402,118699875,1,-0.00175005,0.002296195,0.008886659999999999,-0.05881299,-0.09769211,-9.721456999999999,0,0,45.48658,1,1,753,995
517,118725357,1,0.004361528,-0.00141042,0.003317075,0.01564112,-0.03493062,-9.750168,0,0,45.48645,1,1,753,995
520,118727505,1,0.005223475,0.003276359,0.006104692,0.02809124,-0.02537157,-9.757453,0,0,45.48645,1,1,753,995
555,118729949,1,0.00267931,0.004957536,0.004649566,0.01589622,-0.01716786,-9.760020000000001,0,0,45.48645,1,1,753,995
625,118756567,1,-0.009900877000000001,0.001753716,-0.005472092,0.01512605,-0.0306148,-9.680683999999999,0,0,45.48634,1,1,753,995
740,118775344,1,-0.006033411,-0.0052679,-0.003536775,-0.03981861,-0.0773322,-9.85163,0,0,45.4863,1,1,753,995
855,118795075,1,-0.005276229,-0.004953703,0.006461428,-0.1073599,-0.04295399,-9.878363,0,0,45.48624,1,1,753,995
971,118834087,1,0.00439535,0.004797406,-0.002161789,-0.001914209,-0.05329176,-9.713793000000001,0,0,45.48617,1,1,753,995
1006,118837271,1,0.00633843,0.003486006,-0.002937078,0.01110935,-0.06984269,-9.677008000000001,0,0,45.48617,1,1,753,995
1080,118876381,1,-0.003113047,-0.001477997,0.004251841,-0.008708834,-0.04208851,-9.758452999999999,0,0,45.48626,1,1,753,995
1195,118975334,1,0.004641213,-0.001916693,0.005676063,0.004281414,-0.03725079,-9.786130999999999,0,0,45.48713,1,1,753,995
1299,119044594,1,0.002089191,0.0006760395,0.0009542474,0.02680887,-0.08001266,-9.749978,0,0,45.48751,1,1,753,995
1384,119056063,1,0.002117569,-0.0005188343999999999,0.003131709,0.004801474,-0.03180621,-9.748424999999999,0,0,45.48754,1,1,753,995
1479,119074989,1,-0.007524883,0.005982299,-0.008242177999999999,-0.06735146,0.03293733,-9.767647999999999,0,0,45.48758,1,1,753,995
1572,119089608,1,-0.009553170999999999,-0.004381828,-0.005397986,-0.05589502,-0.03524507,-9.771273000000001,0,0,45.48764,1,1,753,995
1597,119092199,1,-0.005852077,-0.004727885,-0.004901647,-0.06480913000000001,-0.04326447,-9.803307999999999,0,0,45.48764,1,1,753,995
1632,119094873,1,-0.003081621,-0.003942676,-0.003056084,-0.08570115,-0.03507497,-9.846375,0,0,45.48764,1,1,753,995
1636,119097599,1,-0.004139537,-0.003348872,0.0003071842,-0.1005089,-0.02520247,-9.868682,0,0,45.48768,1,1,753,995
1639,119100258,1,-0.005970455,0.00122019,0.003259246,-0.1340074,-0.008428272000000001,-9.891105,0,0,45.48768,1,1,753,995
1643,119102144,1,-0.006487521,0.004000835,0.004526848,-0.1546482,0.006365533,-9.893425000000001,0,0,45.48768,1,1,753,995
1678,119104880,1,-0.007975019999999999,0.005369131,0.007848447,-0.159822,0.02283683,-9.878659000000001,0,0,45.48768,1,1,753,995
1681,119107344,1,-0.008428888000000001,0.004415591,0.007803746,-0.1534357,0.03523983,-9.858502,0,0,45.48768,1,1,753,995
1684,119110272,1,-0.009928319999999999,0.003999764,0.004939202,-0.1419916,0.04820072,-9.824126,0,0,45.48776,1,1,753,995
1687,119112577,1,-0.01034381,0.002571151,0.002391247,-0.1251566,0.04932363,-9.801643,0,0,45.48776,1,1,753,995
1722,119115115,1,-0.008813916999999999,0.0002552135,0.001691375,-0.09898762999999999,0.04751453,-9.771407,0,0,45.48776,1,1,753,995
1725,119117266,1,-0.004820673,-0.001585603,-4.881267e-05,-0.08159769,0.04726714,-9.757317,0,0,45.48776,1,1,753,995
1728,119120022,1,-0.0007468295999999999,-0.003128059,-0.001238973,-0.06377259,0.0416733,-9.738797999999999,0,0,45.48787,1,1,753,995
1732,119123309,1,0.002312228,-0.005141997,-0.002154411,-0.06216247,0.03127531,-9.736426,0,0,45.48787,1,1,753,995
1767,119126858,1,0.004957444,-0.006160351,-0.001152917,-0.05961424,0.0170268,-9.729457,0,0,45.48787,1,1,753,995
1770,119128534,1,0.004704366,-0.005900447,-0.0001184462,-0.04423102,0.01210119,-9.724511,0,0,45.48787,1,1,753,995
1773,119130698,1,0.003201081,-0.003998302,0.0003892237,-0.01447065,0.005894597,-9.726542,0,0,45.48798,1,1,753,995
1776,119133532,1,0.001337355,-0.00144736,-0.0007340023,-0.005884808,-0.0005765064,-9.721883,0,0,45.48798,1,1,753,995
1811,119136015,1,0.00136918,0.0001709861,-0.0002403629,-0.01397413,-0.01770812,-9.703325,0,0,45.48798,1,1,753,995
1814,119139325,1,0.001395653,0.001124408,0.001626088,-0.02876917,-0.02625005,-9.704205999999999,0,0,45.48798,1,1,753,995
1817,119140927,1,0.0006898841,0.002752471,0.003613526,-0.03968412,-0.02528057,-9.701036,0,0,45.4881,1,1,753,995
1821,119144019,1,0.000275929,0.006170884,0.004419242,-0.04342114,-0.0120569,-9.687233000000001,0,0,45.4881,1,1,753,995
1856,119146366,1,0.001373504,0.005875751,0.002998687,-0.04862301,0.006808432,-9.670086,0,0,45.4881,1,1,753,995
1863,119149715,1,0.003266981,0.002783548,0.002447352,-0.05494324,0.01259966,-9.684421,0,0,45.4881,1,1,753,995
1866,119151920,1,0.004714658,-0.0002119351,0.004880053,-0.07101166,0.01461073,-9.722659,0,0,45.4881,1,1,753,995
1870,119154283,1,0.005535509,-0.002324054,0.007313298,-0.09749666999999999,0.012694,-9.781157,0,0,45.48822,1,1,753,995
1905,119157330,1,0.005640243,-0.003505915,0.006029733,-0.1232712,0.01162274,-9.809899,0,0,45.48822,1,1,753,995
1908,119159306,1,0.005550579,-0.003026116,0.002766429,-0.1456622,0.01160193,-9.816602,0,0,45.48822,1,1,753,995
1911,119162041,1,0.004412934,-0.001022546,0.001894015,-0.163088,0.007455471,-9.823981,0,0,45.48822,1,1,753,995
1915,119163946,1,0.003853505,-2.645384e-05,0.002651791,-0.1510192,0.00304825,-9.82259,0,0,45.48833,1,1,753,995
1950,119166439,1,0.003794366,0.00228963,0.00454027,-0.1226453,-0.002491138,-9.786524,0,0,45.48833,1,1,753,995
1953,119169851,1,0.004198814,0.002983665,0.004104484,-0.1118246,-0.001366659,-9.748856999999999,0,0,45.48833,1,1,753,995
1959,119171914,1,0.006312269,0.003998203,0.002117293,-0.1084827,9.870168e-05,-9.732355999999999,0,0,45.48833,1,1,753,995
1963,119174662,1,0.007974165,0.003421997,0.002082557,-0.1063477,-0.009167748,-9.72419,0,0,45.48845,1,1,753,995
1998,119177248,1,0.008318861,0.002685128,0.005285223,-0.1097223,-0.02047381,-9.714746,0,0,45.48845,1,1,753,995
2001,119180532,1,0.007409194,0.003205298,0.007978281,-0.1126036,-0.02218206,-9.724057999999999,0,0,45.48845,1,1,753,995
2004,119182122,1,0.003323203,0.004069069,0.006880604,-0.1129731,-0.02308089,-9.722341999999999,0,0,45.48845,1,1,753,995
2007,119185080,1,0.001715442,0.00429912,0.002182251,-0.09667522000000001,-0.03738425,-9.701263000000001,0,0,45.48856,1,1,753,995
2042,119187366,1,0.001892556,0.003219764,-0.0007131044,-0.06605928,-0.0486568,-9.681971000000001,0,0,45.48856,1,1,753,995
2045,119190272,1,0.001621003,0.004874315,-0.0004873711,-0.04803443,-0.0577262,-9.680334,0,0,45.48856,1,1,753,995
2049,119193645,1,0.001499166,0.006018485,0.0009900917,-0.02316672,-0.05973264,-9.674250000000001,0,0,45.48856,1,1,753,995
2053,119195439,1,0.001779821,0.006333366,0.004579558,0.000488086,-0.05604169,-9.655360999999999,0,0,45.48856,1,1,753,995
2088,119199251,1,0.002315451,0.005200075,0.009462472,-0.01416281,-0.03987848,-9.680363,0,0,45.48868,1,1,753,995
2091,119200532,1,0.002263731,0.004192008,0.01187892,-0.03188154,-0.02192857,-9.710176000000001,0,0,45.48868,1,1,753,995
2094,119203381,1,0.0003067762,0.00347192,0.01157191,-0.03905993,-0.007167358,-9.727873000000001,0,0,45.48868,1,1,753,995
2097,119206087,1,-0.002590488,0.002909461,0.008821117,-0.0366846,0.01254028,-9.741097,0,0,45.48868,1,1,753,995
2132,119208331,1,-0.002847721,0.0004694056,0.005015015,-0.02199962,0.03898195,-9.754661,0,0,45.48879,1,1,753,995
2135,119211585,1,-0.001963767,-0.0003430043,0.001498018,-0.0221904,0.03328105,-9.770550999999999,0,0,45.48879,1,1,753,995
2138,119213629,1,-0.001790241,0.0002101105,0.0007795601,-0.02735371,0.02047547,-9.781203,0,0,45.48879,1,1,753,995
2142,119216145,1,-0.0007414252000000001,0.003203918,0.003219911,-0.04101927,0.006819934,-9.781185000000001,0,0,45.48879,1,1,753,995
2177,119219223,1,-0.0001320358,0.003750762,0.003186507,-0.06890142,0.005518915,-9.770982,0,0,45.48892,1,1,753,995
2180,119221103,1,0.0002019471,0.003946669,0.00267817,-0.08704518999999999,0.01781034,-9.755875,0,0,45.48892,1,1,753,995
2185,119224060,1,-0.002189721,0.006429377,-0.001882034,-0.1000177,0.02670252,-9.740062,0,0,45.48892,1,1,753,995
2188,119229068,1,-0.002713911,0.005274104,-0.002207959,-0.1183826,0.02601109,-9.735450999999999,0,0,45.48906,1,1,753,995
2223,119235041,1,-0.003732202,-0.0004278272,0.003670494,-0.09651878999999999,-0.008519868999999999,-9.788727,0,0,45.48906,1,1,753,995
2227,119237633,1,-0.005607972,0.001085473,-0.0003786206,-0.08740333,-0.01005869,-9.812583,0,0,45.48906,1,1,753,995
2231,119240405,1,-0.007580882,0.0001839032,-0.004765473,-0.07001127,-0.01443228,-9.840218999999999,0,0,45.48924,1,1,753,995
2266,119243337,1,-0.008643619,-0.0003282386,-0.003305366,-0.05838492,-0.02163705,-9.851087,0,0,45.48924,1,1,753,995
2269,119245487,1,-0.008372017000000001,0.003521173,-0.0006394195,-0.04892895,-0.01332916,-9.857118,0,0,45.48924,1,1,753,995
2272,119247867,1,-0.007602617,0.007666097,-0.0004883365,-0.04577351,-0.005510062,-9.852408,0,0,45.48924,1,1,753,995
2275,119250378,1,-0.007594298,0.008938414,-0.001351519,-0.05083429,-0.006793594,-9.837693,0,0,45.48924,1,1,753,995
2313,119253382,1,-0.006398553,0.00948015,-0.001979544,-0.04969038,-0.01589998,-9.822414999999999,0,0,45.48944,1,1,753,995
2316,119255936,1,-0.006171629,0.008386921,-0.001281452,-0.03953097,-0.02767423,-9.806419999999999,0,0,45.48944,1,1,753,995
2321,119258350,1,-0.008633890999999999,0.005794662,-6.768807e-05,-0.01526286,-0.0247261,-9.770448,0,0,45.48944,1,1,753,995
2324,119260575,1,-0.01184624,0.004608407,0.001292084,0.001701417,-0.01463332,-9.740359,0,0,45.48944,1,1,753,995
2359,119262945,1,-0.01002633,0.00410711,0.001920876,0.01519054,-0.02362775,-9.701268000000001,0,0,45.48966,1,1,753,995
2362,119265527,1,-0.004298207,0.001549801,0.002376189,0.01612153,-0.03475995,-9.699583000000001,0,0,45.48966,1,1,753,995
2366,119268560,1,-0.001217328,-0.0005545842,0.001361226,0.01341407,-0.04971479,-9.718752,0,0,45.48966,1,1,753,995
2369,119270786,1,-0.001619662,0.0004368282,-0.001719352,0.01040114,-0.05174747,-9.738815000000001,0,0,45.48966,1,1,753,995
2404,119273070,1,-0.001882789,0.001357434,-0.004391484,0.00392376,-0.04555661,-9.782062,0,0,45.48986,1,1,753,995
2407,119276058,1,-0.001068796,0.003103065,-0.006493159,-0.01764731,-0.05902955,-9.804080000000001,0,0,45.48986,1,1,753,995
2410,119278366,1,-0.001681631,0.001917918,-0.005523912,-0.03406486,-0.06573183,-9.811992,0,0,45.48986,1,1,753,995
2413,119281432,1,-0.003932241,-0.00292322,-0.001830951,-0.04687858,-0.0581621,-9.813644999999999,0,0,45.48986,1,1,753,995
2448,119284503,1,-0.006355791,-0.004926082,0.001532963,-0.05382541,-0.07243486,-9.78172,0,0,45.49007,1,1,753,995
2451,119286500,1,-0.007707791,-0.002869299,0.001760736,-0.06474188,-0.08577037999999999,-9.764904,0,0,45.49007,1,1,753,995
2455,119288921,1,-0.006046798,1.69489e-05,-0.0005140534,-0.07096445999999999,-0.1006144,-9.750702,0,0,45.49007,1,1,753,995
2458,119291707,1,-0.005362291,0.0008886239,-0.001141452,-0.07332495,-0.09839568999999999,-9.75787,0,0,45.49007,1,1,753,995
2493,119294881,1,-0.003046608,-0.001023957,-0.004654358,-0.07345711000000001,-0.08971171,-9.743964999999999,0,0,45.49007,1,1,753,995
2496,119297099,1,0.0008920812,-0.001409894,-0.004149087,-0.0767172,-0.08011931999999999,-9.730014000000001,0,0,45.49027,1,1,753,995
2499,119299078,1,0.003103499,-0.001532767,-0.002594402,-0.078301,-0.07351542,-9.731999999999999,0,0,45.49027,1,1,753,995
2503,119301574,1,0.006246296,0.0005099538,-0.0001983777,-0.08355982000000001,-0.06928366,-9.747324000000001,0,0,45.49027,1,1,753,995
2538,119304158,1,0.005058648,0.004942435,0.00139724,-0.09970535,-0.06646479,-9.760702,0,0,45.49027,1,1,753,995
2541,119307088,1,-0.0003132628,0.006576942,0.001492539,-0.1122826,-0.06708355000000001,-9.757277999999999,0,0,45.49046,1,1,753,995
2545,119309590,1,-0.002473296,0.006105208,0.0005209245,-0.124756,-0.06405392,-9.745471,0,0,45.49046,1,1,753,995
2548,119311425,1,-0.00205285,0.005359292,0.0005879636,-0.1259169,-0.05613468,-9.734634,0,0,45.49046,1,1,753,995
2583,119313848,1,-0.0006662247,0.002196782,0.002260993,-0.1217259,-0.04828426,-9.719984999999999,0,0,45.49046,1,1,753,995
2586,119316574,1,0.0002986325,0.001579457,0.002916398,-0.1215092,-0.04509255,-9.715165000000001,0,0,45.49046,1,1,753,995
2590,119319515,1,0.001481892,0.0009399308,0.003365587,-0.1161742,-0.03772552,-9.720319999999999,0,0,45.49063,1,1,753,995
2593,119321500,1,0.002080432,0.001387224,0.002411577,-0.1081338,-0.03560504,-9.729265,0,0,45.49063,1,1,753,995
2628,119324861,1,0.002437407,0.001828368,0.002301321,-0.08993234999999999,-0.03236089,-9.749001,0,0,45.49063,1,1,753,995
2631,119326584,1,0.0005137048,0.001481046,0.001658342,-0.0639591,-0.008776551,-9.75529,0,0,45.49063,1,1,753,995
2635,119329489,1,-0.0001202944,0.00261151,0.001333687,-0.05342992,0.005914144,-9.743217,0,0,45.4908,1,1,753,995
2638,119331925,1,0.0004600566,0.003409617,0.002058551,-0.0487901,0.01429314,-9.741514,0,0,45.4908,1,1,753,995
2673,119334376,1,0.002249954,0.003040971,0.00334664,-0.06273564,0.01289445,-9.785360000000001,0,0,45.4908,1,1,753,995
2676,119337555,1,0.003257542,0.003310075,0.004692073,-0.08012013,0.009528946,-9.828382,0,0,45.4908,1,1,753,995
2680,119339491,1,0.004396477,0.002218778,0.004070088,-0.0930718,0.001504816,-9.846045,0,0,45.49096,1,1,753,995
2683,119342046,1,0.005516132,0.001929741,0.002651613,-0.104583,-0.01498708,-9.863358,0,0,45.49096,1,1,753,995
2718,119344990,1,0.005514579,0.0003357984,0.001811681,-0.09535119,-0.03966616,-9.8719,0,0,45.49096,1,1,753,995
2721,119346592,1,0.005018765,-0.0009572071,-0.0004689279,-0.07260266999999999,-0.06547777,-9.863163,0,0,45.49096,1,1,753,995
2724,119350044,1,0.005322075,-0.0007386777,-0.001460935,-0.05667767,-0.07665274,-9.852180000000001,0,0,45.49096,1,1,753,995
2727,119352116,1,0.006126574,-0.001067405,-0.001851215,-0.0473153,-0.07396732,-9.8393,0,0,45.49113,1,1,753,995
2765,119354634,1,0.008436135000000001,0.001921903,-0.002374155,-0.03379176,-0.06729678,-9.799731,0,0,45.49113,1,1,753,995
2768,119357558,1,0.009139377000000001,0.003120862,-0.002325716,-0.02356845,-0.06570838,-9.776092999999999,0,0,45.49113,1,1,753,995
2773,119359551,1,0.007813435000000001,0.002699423,-0.0002790021,-0.01533842,-0.06370824999999999,-9.762854000000001,0,0,45.49113,1,1,753,995
2776,119362516,1,0.003579905,0.004428902,0.002158559,-0.007136174,-0.05703642,-9.736124,0,0,45.49131,1,1,753,995
2811,119364890,1,0.0006028605,0.007967248,0.004513951,-0.006632882,-0.04899842,-9.716340000000001,0,0,45.49131,1,1,753,995
2814,119368227,1,-0.0003567176,0.01065316,0.007062997,-0.01248769,-0.04517004,-9.722159,0,0,45.49131,1,1,753,995
2817,119369950,1,0.002220909,0.009191464999999999,0.006974832,-0.02117922,-0.05279726,-9.731873999999999,0,0,45.49131,1,1,753,995
2820,119372924,1,0.005772737,0.003270495,0.005532192,-0.03730856,-0.06075675,-9.758304000000001,0,0,45.4915,1,1,753,995
2855,119375816,1,0.006896593,-0.0005550667,0.005093158,-0.04412864,-0.05777551,-9.774532000000001,0,0,45.4915,1,1,753,995
2858,119377937,1,0.007073644,-0.001733658,0.005678569,-0.04838903,-0.05088447,-9.773827000000001,0,0,45.4915,1,1,753,995
2862,119380864,1,0.004227798,-0.0008453724,0.005020733,-0.04199744,-0.06222701,-9.767780999999999,0,0,45.4915,1,1,753,995
2866,119382866,1,0.001718621,0.00273752,0.002562142,-0.01409547,-0.08416991,-9.754708000000001,0,0,45.49169,1,1,753,995
2901,119385072,1,0.001239662,0.003620294,0.002008524,0.001700322,-0.09419747000000001,-9.750845,0,0,45.49169,1,1,753,995
2904,119387707,1,0.0009987868,0.004295657,0.006070713,0.005061128,-0.08999338,-9.764525000000001,0,0,45.49169,1,1,753,995
2907,119390885,1,0.001565301,0.003750834,0.006934852,-0.006488253,-0.08604307999999999,-9.774093000000001,0,0,45.49169,1,1,753,995
2910,119393912,1,0.00191205,0.001812656,0.007588313,-0.02634719,-0.07523384,-9.798854,0,0,45.49169,1,1,753,995
2945,119396188,1,-0.001506434,-0.003004403,0.005521581,-0.03773855,-0.07273604,-9.823524000000001,0,0,45.49187,1,1,753,995
2949,119399216,1,-0.004623765,-0.004742805,0.002555063,-0.04068477,-0.08872291,-9.816583,0,0,45.49187,1,1,753,995
2953,119401455,1,-0.005149326,-0.003928898,0.001927122,-0.04645923,-0.1037336,-9.791753999999999,0,0,45.49187,1,1,753,995
2956,119404568,1,-0.003393702,-0.002448831,0.003195209,-0.0448002,-0.1143538,-9.741884000000001,0,0,45.49187,1,1,753,995
2991,119407922,1,-0.001315017,-0.002151727,0.005794427,-0.04973365,-0.1164691,-9.671681,0,0,45.49206,1,1,753,995
2996,119410059,1,-0.002305971,-0.003370213,0.005787238,-0.06765401,-0.1124223,-9.62011,0,0,45.49206,1,1,753,995
2999,119412303,1,-0.003472457,-0.00400596,0.002792074,-0.07276486,-0.1047921,-9.603705,0,0,45.49206,1,1,753,995
3002,119417863,1,-0.0009487639,0.0001461747,-0.004339957,-0.08033817,-0.05397502,-9.656549999999999,0,0,45.49226,1,1,753,995
3037,119423902,1,-0.005220765,0.003405979,-0.00451066,-0.09652352,-0.006259654,-9.719393999999999,0,0,45.49226,1,1,753,995
3041,119426838,1,-0.00711528,0.007094687,-0.003837996,-0.1003224,0.001204785,-9.722151,0,0,45.49226,1,1,753,995
3044,119428640,1,-0.01107346,0.01040474,-0.002429966,-0.1082213,-0.009343181000000001,-9.716685,0,0,45.49244,1,1,753,995
3081,119431453,1,-0.01194463,0.008471005,-0.003614089,-0.1149607,-0.02545009,-9.714211000000001,0,0,45.49244,1,1,753,995
3084,119434398,1,-0.01179717,0.004539254,-0.007908805,-0.1247141,-0.04466506,-9.723613,0,0,45.49244,1,1,753,995
3088,119436145,1,-0.009478914,0.002905381,-0.009635418999999999,-0.1246015,-0.04824205,-9.737368999999999,0,0,45.49244,1,1,753,995
3091,119438886,1,-0.006117089,0.002276102,-0.008074407,-0.1155935,-0.03102994,-9.762559,0,0,45.49259,1,1,753,995
3126,119441975,1,-0.005354452,0.003416304,-0.003159022,-0.09892508999999999,-0.01644785,-9.77548,0,0,45.49259,1,1,753,995
3129,119444570,1,-0.006486111,0.005475117,0.0003010651,-0.08375257999999999,-0.007672918,-9.753386000000001,0,0,45.49259,1,1,753,995
3133,119446108,1,-0.005499194,0.007015929,0.0007789133,-0.06618308000000001,-0.008373739999999999,-9.723826000000001,0,0,45.49259,1,1,753,995
3136,119448706,1,-0.002404915,0.006403887,0.00181761,-0.045087,-0.009041125000000001,-9.711835000000001,0,0,45.49274,1,1,753,995
3171,119451342,1,-0.0009653355,0.005564427,0.002159857,-0.03563745,-0.007925150000000001,-9.721410000000001,0,0,45.49274,1,1,753,995
3174,119454087,1,0.003275449,0.004169174,0.0007118508,-0.02378225,0.002388107,-9.745908999999999,0,0,45.49274,1,1,753,995
3177,119456600,1,0.003215021,0.003819268,9.11574e-05,-0.01754752,0.02156489,-9.762231,0,0,45.49274,1,1,753,995
3183,119458950,1,0.002269759,0.002757325,-0.00239232,-0.006831395,0.04059382,-9.767379999999999,0,0,45.49274,1,1,753,995
3218,119461886,1,-0.0001758969,0.002773362,-0.004709371,-0.0108148,0.05016267,-9.757742,0,0,45.49292,1,1,753,995
3222,119464250,1,-0.003366671,0.003479775,-0.005906433,-0.01112109,0.05958968,-9.747586,0,0,45.49292,1,1,753,995
3226,119466911,1,-0.00586387,0.005268233,-0.005286712,-0.01902986,0.0609815,-9.743437,0,0,45.49292,1,1,753,995
3229,119468588,1,-0.007631338,0.007894732,-0.002027689,-0.03803868,0.04277944,-9.758946999999999,0,0,45.49292,1,1,753,995
3264,119471129,1,-0.00772668,0.008723916999999999,-0.0002836309,-0.04991581,0.02362068,-9.791551999999999,0,0,45.49311,1,1,753,995
3268,119474086,1,-0.00207869,0.008968848999999999,0.0008809283,-0.06841938,0.0008918528,-9.847124000000001,0,0,45.49311,1,1,753,995
3271,119476493,1,0.0002739406,0.007947045999999999,0.0002579057,-0.07602399999999999,-0.008668067,-9.879982,0,0,45.49311,1,1,753,995
3274,119479320,1,2.655332e-05,0.004746161,0.0002357269,-0.08393542,-0.02101451,-9.915956,0,0,45.49311,1,1,753,995
3309,119481485,1,-0.004336888,0.005432986,0.0002496371,-0.07190522000000001,-0.02183358,-9.921723999999999,0,0,45.49332,1,1,753,995
3312,119484390,1,-0.004949259,0.005592803,-0.0004763651,-0.05946631,-0.01855811,-9.912875,0,0,45.49332,1,1,753,995
3316,119487611,1,-0.003752034,0.004447241,-0.00186519,-0.040066,-0.01584208,-9.885139000000001,0,0,45.49332,1,1,753,995
3319,119489339,1,-0.003523353,0.004177224,-0.001694801,-0.025808,-0.01099615,-9.864305999999999,0,0,45.49332,1,1,753,995
3354,119492405,1,-0.003567242,0.00509116,-0.0005511416,-0.01283909,0.002029385,-9.842229,0,0,45.49332,1,1,753,995
3357,119494168,1,-0.002113208,0.006503682,-2.743303e-05,-0.005076999,0.008884649,-9.822901,0,0,45.49352,1,1,753,995
3361,119497290,1,0.0006254903,0.006356181,-0.0005147385,0.006392162,0.01396227,-9.802360999999999,0,0,45.49352,1,1,753,995
3364,119499543,1,0.001792083,0.005645175,0.0007862778,0.009614882999999999,0.01010468,-9.781826000000001,0,0,45.49352,1,1,753,995
3399,119501717,1,-0.001745275,0.003877701,0.004243235,0.007648591,-0.008821749,-9.756943,0,0,45.49352,1,1,753,995
3403,119505401,1,-0.003254704,0.002966919,0.006202787,-0.001808334,-0.0187358,-9.752305,0,0,45.49371,1,1,753,995
3406,119506641,1,-0.002243723,0.002595464,0.007463169,-0.01539855,-0.02124989,-9.755717000000001,0,0,45.49371,1,1,753,995
3409,119509618,1,-0.001076971,0.001871301,0.007452449,-0.0263073,-0.02906265,-9.758317,0,0,45.49371,1,1,753,995
3444,119513273,1,0.0005278564,-0.0006718017,0.006429774,-0.032823,-0.05066415,-9.757539,0,0,45.49371,1,1,753,995
3447,119515286,1,0.001730725,-0.003063955,0.004638134,-0.04895313,-0.07377831999999999,-9.736779,0,0,45.4939,1,1,753,995
3450,119517374,1,0.002197642,-0.002888606,0.004170144,-0.05952967,-0.08212165,-9.728699000000001,0,0,45.4939,1,1,753,995
3453,119519646,1,0.00373428,-0.001514084,0.002669861,-0.06213708,-0.08151512,-9.727376,0,0,45.4939,1,1,753,995
3488,119522795,1,0.004630372,0.0008139087,0.002299037,-0.05992285,-0.07311359000000001,-9.737041,0,0,45.4939,1,1,753,995
3491,119524839,1,0.001755821,0.002476637,0.003505173,-0.05538755,-0.06241251,-9.760975999999999,0,0,45.4939,1,1,753,995
3495,119527829,1,-0.003312819,0.003360975,0.002294768,-0.05408182,-0.05640919,-9.773915000000001,0,0,45.49409,1,1,753,995
3499,119529909,1,-0.004194796,-0.0008612275,-0.002104896,-0.04687275,-0.04567806,-9.754466000000001,0,0,45.49409,1,1,753,995
3534,119532566,1,-0.003259182,-0.003494755,-0.003245488,-0.03573594,-0.04019899,-9.733826000000001,0,0,45.49409,1,1,753,995
3538,119535323,1,-0.0005802374,-0.008921610999999999,-0.001082186,-0.01573952,-0.01577565,-9.701219999999999,0,0,45.49409,1,1,753,995
3542,119537345,1,0.0002517152,-0.01055973,0.0001611993,-0.00879024,-0.002583837,-9.674806999999999,0,0,45.49432,1,1,753,995
3545,119540394,1,0.0007925911,-0.01262078,0.00319195,-0.006082749,0.01506235,-9.637530999999999,0,0,45.49432,1,1,753,995
3580,119543032,1,-0.001531697,-0.007986959,0.004586314,-0.007490745,0.03216673,-9.606004,0,0,45.49432,1,1,753,995
3583,119545519,1,-0.002044978,-0.006230924,0.005056201,-0.01026466,0.03940484,-9.598439000000001,0,0,45.49432,1,1,753,995
3586,119548330,1,-0.00406977,-0.003750313,0.005937097,-0.01920986,0.03189776,-9.589626000000001,0,0,45.49456,1,1,753,995
3589,119550897,1,-0.004887159,-0.00320918,0.005733746,-0.02722929,0.0241691,-9.587006000000001,0,0,45.49456,1,1,753,995
3624,119553248,1,-0.002898485,-0.00150419,0.006040818,-0.04271043,0.01748125,-9.613806,0,0,45.49456,1,1,753,995
3627,119556007,1,0.004364872,-0.001782466,0.004102413,-0.05988442,0.003398654,-9.666717,0,0,45.49456,1,1,753,995
3631,119558510,1,0.005188313,-0.002129259,0.002713807,-0.06122355,-0.01230518,-9.704305,0,0,45.49456,1,1,753,995
3637,119561453,1,0.003828441,-0.003095972,0.0020745,-0.06407759,-0.04457991,-9.749855999999999,0,0,45.49483,1,1,753,995
3672,119564280,1,-0.0006359355,-0.00541648,0.00124803,-0.0590257,-0.07758801999999999,-9.799046000000001,0,0,45.49483,1,1,753,995
3676,119566623,1,-0.001882577,-0.00648238,0.0004149136,-0.05255981,-0.09990860999999999,-9.830113000000001,0,0,45.49483,1,1,753,995
3679,119568952,1,-0.001821588,-0.007171374,-0.0003312614,-0.05056601,-0.1093326,-9.854117,0,0,45.49483,1,1,753,995
3682,119571488,1,0.0001596503,-0.005544686,-6.712365000000001e-05,-0.04923573,-0.0964931,-9.853263,0,0,45.49513,1,1,753,995
3717,119574409,1,0.002368488,-0.003850304,0.0002723873,-0.04220805,-0.05948561,-9.839028000000001,0,0,45.49513,1,1,753,995
3720,119577049,1,0.005645117,-0.003479238,0.001653789,-0.02718405,-0.03129495,-9.822297000000001,0,0,45.49513,1,1,753,995
3724,119579133,1,0.005040326,-0.002439296,0.002245993,-0.01433498,-0.02019004,-9.812125999999999,0,0,45.49513,1,1,753,995
3727,119581467,1,0.0003139103,-0.0002524335,0.001950842,-0.009876563,-0.01390745,-9.805833,0,0,45.49542,1,1,753,995
3762,119583816,1,-0.006086537,0.001585703,0.0008951706,-0.008096633000000001,-0.03001331,-9.789695999999999,0,0,45.49542,1,1,753,995
3765,119586827,1,-0.007839754000000001,0.002622999,-0.0003919997,-0.01426911,-0.04514626,-9.780137,0,0,45.49542,1,1,753,995
3770,119589609,1,-0.008054914,0.005662651,-0.005263167,-0.02979764,-0.07070065,-9.767141000000001,0,0,45.49542,1,1,753,995
3773,119591537,1,-0.007766963,0.00523104,-0.006595999,-0.04274293,-0.08420909,-9.773304,0,0,45.49542,1,1,753,995
3808,119593856,1,-0.006833906,0.003402766,-0.009464957,-0.05842025,-0.09467320999999999,-9.805386,0,0,45.49572,1,1,753,995
3811,119596414,1,-0.007288279,-0.00077849,-0.0100615,-0.06570614,-0.08807400999999999,-9.830795999999999,0,0,45.49572,1,1,753,995
3814,119599870,1,-0.00475934,-0.003420378,-0.008280088,-0.08440211,-0.05264166,-9.863719,0,0,45.49572,1,1,753,995
3817,119602049,1,-0.0003937087,-0.001715082,-0.003293178,-0.09611633,-0.02006102,-9.891004000000001,0,0,45.49572,1,1,753,995
3852,119604578,1,0.003992105,0.002397097,0.001191685,-0.09614006999999999,0.02985694,-9.939914999999999,0,0,45.49605,1,1,753,995
3855,119607013,1,0.004955018,0.003803384,0.001210557,-0.08630138,0.04071982,-9.939621000000001,0,0,45.49605,1,1,753,995
3859,119610544,1,0.005318325,0.005280071,-0.0001091414,-0.06662324999999999,0.04594369,-9.927194,0,0,45.49605,1,1,753,995
3862,119612951,1,0.004200853,0.005299271,-0.002399605,-0.04043387,0.03854352,-9.894591999999999,0,0,45.49605,1,1,753,995
3867,119614935,1,-0.0001490919,0.004923742,-0.003118398,-0.03274086,0.02328092,-9.876056,0,0,45.49638,1,1,753,995
3902,119617395,1,-0.005319121,0.006858258,-0.004302328,-0.02866942,-0.006690273,-9.855665,0,0,45.49638,1,1,753,995
3905,119620236,1,-0.008728417,0.008322556,-0.007118789,-0.02822197,-0.02055433,-9.849071,0,0,45.49638,1,1,753,995
3908,119628550,1,-0.00668271,0.005299697,-0.006050454,0.009834539,-0.07667332,-9.84263,0,0,45.4967,1,1,753,995
3944,119631514,1,-0.006321039,0.003589892,-0.004694869,0.0223263,-0.07641206,-9.829155,0,0,45.4967,1,1,753,995
3949,119633955,1,-0.007183301,-0.0005344232,-0.002651513,0.02919597,-0.06919134,-9.796782,0,0,45.4967,1,1,753,995
3952,119636793,1,-0.006219981,-0.000805216,-0.002564247,0.02268904,-0.06435414,-9.786208,0,0,45.4967,1,1,753,995
3955,119638678,1,-0.001890213,-0.0002657427,-0.002046088,0.001512664,-0.05708862,-9.762575,0,0,45.49702,1,1,753,995
3991,119641307,1,0.0014422,0.0001216365,-0.0006660466,-0.01044083,-0.0497455,-9.753812,0,0,45.49702,1,1,753,995
3995,119644038,1,0.001388516,-0.0007338825,-0.0005190907,-0.02118192,-0.04188458,-9.767597,0,0,45.49702,1,1,753,995
3998,119646480,1,-0.003327061,-9.38776e-05,-0.005769625,-0.0291543,-0.0350324,-9.785145999999999,0,0,45.49702,1,1,753,995
4001,119649028,1,-0.003065882,0.002709118,-0.006628685,-0.02192714,-0.03849886,-9.806471,0,0,45.49734,1,1,753,995
4037,119652220,1,-0.002083204,0.002128418,-0.005242082,-0.01213321,-0.03184308,-9.823406,0,0,45.49734,1,1,753,995
4040,119654047,1,-0.002317575,-0.003156075,-0.0002250198,-0.008894054,-0.03118841,-9.821781,0,0,45.49734,1,1,753,995
4043,119656064,1,-0.003226746,-0.004686261,0.0002917185,-0.01056982,-0.04012727,-9.803860999999999,0,0,45.49734,1,1,753,995
4046,119659400,1,-0.004855679,-0.005863966,0.001029127,-0.01458595,-0.04801802,-9.753043,0,0,45.49765,1,1,753,995
4081,119662144,1,-0.001402195,-0.002173321,0.002332167,-0.02318812,-0.04201512,-9.711494,0,0,45.49765,1,1,753,995
4089,119664612,1,0.00101909,-0.001733747,0.002020882,-0.03840696,-0.02624183,-9.696895,0,0,45.49765,1,1,753,995
4092,119666690,1,0.004330427,-0.00293852,0.0004822038,-0.06939635,-0.009635094,-9.680600999999999,0,0,45.49765,1,1,753,995
4096,119669942,1,0.006996041,-0.005689462,-0.001718306,-0.07006931,-0.01182428,-9.670588,0,0,45.49765,1,1,753,995
4131,119672637,1,0.00896953,-0.00579753,-0.003034819,-0.04215592,-0.00741718,-9.647002000000001,0,0,45.49796,1,1,753,995
4134,119675598,1,0.007786848,-0.000793479,-0.0008862301,-0.004462277,-0.002423147,-9.63838,0,0,45.49796,1,1,753,995
4137,119677499,1,0.007076604,0.001120548,0.0005145285000000001,0.02226255,-0.004282926,-9.649049,0,0,45.49796,1,1,753,995
4140,119679927,1,0.00459564,0.004463408,0.001316767,0.04502975,0.00354228,-9.690182,0,0,45.49796,1,1,753,995
4175,119682852,1,0.002304728,0.005992057,0.001613209,0.05416949,0.01275163,-9.730373,0,0,45.49826,1,1,753,995
4178,119684870,1,0.002738487,0.007328362,-0.0008857498,0.05040293,0.01044635,-9.799849,0,0,45.49826,1,1,753,995
4181,119687853,1,0.00434998,0.005992321,-0.003483215,0.04118644,0.005503541,-9.838129,0,0,45.49826,1,1,753,995
4185,119689935,1,0.004159207,0.002458605,-0.006802236,0.01734892,0.009563222,-9.875575,0,0,45.49826,1,1,753,995
4220,119693020,1,0.003382549,0.0018303,-0.008011064,-0.003881545,0.01650118,-9.893656999999999,0,0,45.49855,1,1,753,995
4223,119694933,1,-0.0001076717,0.0009724732,-0.005240653,-0.03550329,0.01261293,-9.895223,0,0,45.49855,1,1,753,995
4226,119697878,1,-0.0002080121,0.001147282,-0.003681529,-0.05211158,0.004472907,-9.885933,0,0,45.49855,1,1,753,995
4229,119700029,1,0.001315421,0.00210084,-0.001731267,-0.06491711999999999,-0.02305795,-9.891717999999999,0,0,45.49855,1,1,753,995
4264,119702949,1,0.001388389,0.002617386,0.0001005538,-0.07318837,-0.04313405,-9.893507,0,0,45.49855,1,1,753,995
4268,119706067,1,-0.001399177,0.003440045,0.002065951,-0.08874158,-0.06110076,-9.891173999999999,0,0,45.49881,1,1,753,995
4271,119707346,1,-0.006121799,0.004743507,0.001590394,-0.08678132,-0.09641945,-9.891207,0,0,45.49881,1,1,753,995
4274,119709886,1,-0.01038079,0.005763902,-0.0002537494,-0.08734243999999999,-0.1173925,-9.877069000000001,0,0,45.49881,1,1,753,995
4309,119712627,1,-0.01064397,0.00631272,-0.0008090289,-0.09203260000000001,-0.1268339,-9.861459999999999,0,0,45.49881,1,1,753,995
4313,119714971,1,-0.004486717,0.006036321,0.002202312,-0.08468114,-0.1287493,-9.855826,0,0,45.49905,1,1,753,995
4316,119717548,1,-0.002667437,0.005918548,0.0035174,-0.07323604,-0.1211249,-9.847536,0,0,45.49905,1,1,753,995
4319,119720259,1,-0.0001984494,0.003685268,0.008994446,-0.07559407,-0.08367049,-9.874313000000001,0,0,45.49905,1,1,753,995
4354,119723093,1,-0.0006176953999999999,0.002176338,0.01091891,-0.08116907,-0.04875491,-9.896354000000001,0,0,45.49905,1,1,753,995
4357,119726097,1,-0.001856389,0.002164922,0.01013889,-0.08108638,-0.02915914,-9.902473000000001,0,0,45.49929,1,1,753,995
4360,119727340,1,-0.004433963,0.0009963101000000001,0.005783726,-0.07491641,-0.0005139545,-9.891092,0,0,45.49929,1,1,753,995
4363,119729938,1,-0.005257358,-0.001085053,0.004335893,-0.07492259,0.002551263,-9.876125,0,0,45.49929,1,1,753,995
4398,119732539,1,-0.005237612,-0.004024027,0.001291072,-0.0850733,-0.01167567,-9.867772,0,0,45.49929,1,1,753,995
4402,119735410,1,-0.004329696,-0.00336886,-0.002084862,-0.09080958,-0.01477331,-9.860612,0,0,45.49929,1,1,753,995
4405,119737921,1,-0.003856002,-0.003133999,-0.002685446,-0.09483902,-0.01939685,-9.855570999999999,0,0,45.49957,1,1,753,995
4408,119739997,1,-0.006115643,-0.002200547,-0.0007517302,-0.08984839999999999,-0.03424301,-9.849221,0,0,45.49957,1,1,753,995
4443,119742553,1,-0.006221056,-0.001713028,-0.0005015348,-0.07946718,-0.03472137,-9.836721000000001,0,0,45.49957,1,1,753,995
4447,119745373,1,-0.006143262,-0.0006130462,-0.001309691,-0.05083838,-0.02401386,-9.822478,0,0,45.49957,1,1,753,995
4450,119747701,1,-0.004747632,0.0004507919,-0.001146958,-0.03135177,-0.01676307,-9.816167999999999,0,0,45.49987,1,1,753,995
4453,119750523,1,-0.003014126,0.001128417,6.41846e-05,-0.01330715,-0.001692237,-9.807286,0,0,45.49987,1,1,753,995
4488,119753077,1,-0.001893228,0.002117174,0.0009151503,-0.003113513,0.01903952,-9.795748,0,0,45.49987,1,1,753,995
4492,119755543,1,0.0006893912,0.002569797,0.001692818,0.006497714,0.02703777,-9.792999999999999,0,0,45.49987,1,1,753,995
4495,119757956,1,0.001468823,0.001869429,0.001167603,0.01013637,0.03570735,-9.783554000000001,0,0,45.50019,1,1,753,995
4498,119760543,1,-0.0007589475,0.0004865825,-0.002500589,-0.002236359,0.03497237,-9.769488000000001,0,0,45.50019,1,1,753,995
4533,119763700,1,-0.0017021,0.001238376,-0.003550795,-0.03321556,0.02876381,-9.735158999999999,0,0,45.50019,1,1,753,995
4539,119766058,1,-0.002992386,0.002559021,-0.001787962,-0.06017495,0.04233398,-9.717720999999999,0,0,45.50019,1,1,753,995
4542,119767931,1,-0.004900938,0.0027188,-0.0002124687,-0.06315817,0.05256639,-9.720115,0,0,45.50019,1,1,753,995
4546,119770575,1,-0.006013564,0.002416603,0.0001178236,-0.05272124,0.05521008,-9.717399,0,0,45.50053,1,1,753,995
4581,119772942,1,-0.008704023999999999,-0.0007481539,-0.001740671,-0.03482879,0.06431779,-9.728730000000001,0,0,45.50053,1,1,753,995
4585,119775747,1,-0.008579029,-0.001309845,-0.001933487,-0.01824994,0.05779194,-9.736344000000001,0,0,45.50053,1,1,753,995
4588,119778476,1,-0.006521984,-0.001483445,-0.002146151,-0.00407572,0.03026285,-9.739405,0,0,45.50053,1,1,753,995
4591,119780829,1,-0.0006198829,-0.002580844,-0.0005935577,-0.008382255,0.01226228,-9.752533,0,0,45.50089,1,1,753,995
4626,119783301,1,0.001709726,-0.002256149,0.001412955,-0.01937244,-0.005099819,-9.784744999999999,0,0,45.50089,1,1,753,995
4629,119786101,1,-0.003490059,0.002541329,-0.001039481,-0.02935252,-0.01964061,-9.818422,0,0,45.50089,1,1,753,995
4632,119788953,1,-0.006622457,0.006361195,-0.003679405,-0.02613164,-0.02516217,-9.837823999999999,0,0,45.50089,1,1,753,995
4635,119791385,1,-0.008777444000000001,0.006892907,-0.003373351,-0.02165372,-0.009452709,-9.848459999999999,0,0,45.50126,1,1,753,995
4670,119793552,1,-0.009518436999999999,0.004774367,-0.00181553,-0.02471122,0.02219635,-9.825958,0,0,45.50126,1,1,753,995
4674,119796847,1,-0.008769954999999999,0.005229868,-0.001777754,-0.02336296,0.04574255,-9.809511000000001,0,0,45.50126,1,1,753,995
4677,119799252,1,-0.007709253,0.007999464,-0.002326258,-0.02753843,0.06010234,-9.810924,0,0,45.50126,1,1,753,995
4680,119801918,1,-0.005863964,0.009178308,-0.00366428,-0.03526203,0.05871914,-9.838602,0,0,45.50126,1,1,753,995
4715,119804917,1,-0.004057474,0.008039177,-0.004306521,-0.04489122,0.04227919,-9.892118,0,0,45.50166,1,1,753,995
4719,119806603,1,-0.00476157,0.007507563,-0.004732762,-0.05567066,0.03919376,-9.952042,0,0,45.50166,1,1,753,995
4722,119809503,1,-0.005137627,0.007105495,-0.003802652,-0.06347016,0.03864719,-9.977467000000001,0,0,45.50166,1,1,753,995
4726,119812075,1,-0.001463825,0.006622153,-0.001835772,-0.08140747,0.02700468,-9.983179,0,0,45.50166,1,1,753,995
4761,119814949,1,0.003420278,0.005237747,0.001181211,-0.1046834,0.0113571,-9.949334,0,0,45.50206,1,1,753,995
4764,119817343,1,0.006042575,0.003380754,0.005825864,-0.1185121,0.005422586,-9.918283000000001,0,0,45.50206,1,1,753,995
4769,119819715,1,0.006949998,0.002962993,0.007686607,-0.1292708,0.003382649,-9.885292,0,0,45.50206,1,1,753,995
4772,119821722,1,0.00736778,0.002513007,0.00652642,-0.1379003,0.01116362,-9.843897,0,0,45.50206,1,1,753,995
4807,119824331,1,0.005883893,0.00264313,0.004070689,-0.136933,0.02261713,-9.827545000000001,0,0,45.50248,1,1,753,995
4811,119834108,1,-0.0005016928,-0.006399809,-0.005587303,-0.09707892999999999,0.06234051,-9.743568,0,0,45.50248,1,1,753,995
4846,119836718,1,0.002765714,-0.003430685,-0.002735352,-0.09353391,0.06995653,-9.699636,0,0,45.50287,1,1,753,995
4850,119839757,1,0.005461247,0.001834079,-0.00222796,-0.09502719,0.07353687,-9.677133,0,0,45.50287,1,1,753,995
4853,119841693,1,0.005540011,0.003914561,-0.001819147,-0.09748833,0.06611955999999999,-9.658913999999999,0,0,45.50287,1,1,753,995
4856,119844278,1,0.004347369,0.005762092,0.001688964,-0.0870017,0.04816676,-9.649588,0,0,45.50287,1,1,753,995
4891,119847364,1,0.003984069,0.003940376,0.006582035,-0.06063845,0.02941263,-9.662077,0,0,45.50327,1,1,753,995
4895,119848963,1,0.004606209,0.002645094,0.007580401,-0.04491537,0.01655594,-9.675416,0,0,45.50327,1,1,753,995
4898,119852299,1,0.005588636,0.001452566,0.008027685999999999,-0.0335435,-0.002576926,-9.676550000000001,0,0,45.50327,1,1,753,995
4901,119854291,1,0.005822761,0.0002043657,0.009134323,-0.02945486,-0.02719404,-9.676595000000001,0,0,45.50327,1,1,753,995
4936,119856937,1,0.003889592,-0.001336408,0.009126669,-0.03098159,-0.06442005000000001,-9.705614000000001,0,0,45.50365,1,1,753,995
4941,119859703,1,-0.0002678504,-0.002284627,0.007646962,-0.03613227,-0.07021966,-9.740811000000001,0,0,45.50365,1,1,753,995
4944,119861506,1,-0.003624469,-0.002049468,0.00591452,-0.04135115,-0.06749921,-9.783087999999999,0,0,45.50365,1,1,753,995
4947,119864702,1,-0.004743817,-0.001394005,0.004926329,-0.03647234,-0.05217743,-9.835089999999999,0,0,45.50365,1,1,753,995
4982,119866869,1,-0.004897023,0.0009612924,0.002906616,-0.02702708,-0.0474348,-9.876018999999999,0,0,45.50365,1,1,753,995
4988,119870347,1,-0.001358054,0.001122296,0.0015551,-0.0270433,-0.05324503,-9.894149000000001,0,0,45.50402,1,1,753,995
4991,119872343,1,0.0004496932,0.0008175932,0.001278054,-0.02860423,-0.05945182,-9.883259000000001,0,0,45.50402,1,1,753,995
4995,119875369,1,0.003314552,-0.0005339007,0.003534239,-0.02891155,-0.07370566000000001,-9.845283999999999,0,0,45.50402,1,1,753,995
5030,119878153,1,0.004736571,-0.002438062,0.007453043,-0.037951,-0.0952264,-9.724012,0,0,45.50402,1,1,753,995
5034,119880525,1,0.001516304,-0.001847815,0.00565385,-0.04453256,-0.1032496,-9.673087000000001,0,0,45.50438,1,1,753,995
5037,119883485,1,6.904002e-05,0.0001837046,0.003445145,-0.04474606,-0.09577075,-9.633585,0,0,45.50438,1,1,753,995
5040,119885579,1,0.0005890923,0.00134226,0.002680682,-0.0451985,-0.08531046,-9.630905,0,0,45.50438,1,1,753,995
5075,119888488,1,0.003069915,0.001223811,0.001953159,-0.04518357,-0.07494029000000001,-9.656188999999999,0,0,45.50438,1,1,753,995
5078,119890559,1,0.003325451,0.0006851055,0.002065943,-0.04524691,-0.0751976,-9.696275,0,0,45.50473,1,1,753,995
5081,119892921,1,0.001639195,-0.002015928,0.004445724,-0.04383532,-0.07729961,-9.739568,0,0,45.50473,1,1,753,995
5084,119896035,1,-0.002115516,-0.006652986,0.006273738,-0.04226591,-0.07878873,-9.747994,0,0,45.50473,1,1,753,995
5119,119899307,1,-0.005148559,-0.003615355,0.004762543,-0.04647773,-0.06323585,-9.768879999999999,0,0,45.50473,1,1,753,995
5123,119900954,1,-0.0040241,-0.001570823,0.0046753,-0.05072771,-0.05072602,-9.785295,0,0,45.50509,1,1,753,995
5126,119903716,1,-0.0004771737,0.001986366,0.004006747,-0.05128392,-0.02871939,-9.804359,0,0,45.50509,1,1,753,995
5130,119906714,1,0.0007466161,0.001641257,0.002190277,-0.05043335,0.009317913000000001,-9.831804,0,0,45.50509,1,1,753,995
5165,119909101,1,0.002507844,0.000393651,0.0007333303999999999,-0.04672162,0.03786727,-9.846704000000001,0,0,45.50509,1,1,753,995
5168,119912801,1,0.002094958,0.001926968,0.003466128,-0.04541625,0.05630834,-9.835345999999999,0,0,45.50545,1,1,753,995
5171,119914102,1,0.001704154,0.002295345,0.003503575,-0.04546071,0.06472617,-9.830387,0,0,45.50545,1,1,753,995
5174,119916793,1,0.001940345,0.002743032,0.002452683,-0.04709242,0.06686019,-9.813580999999999,0,0,45.50545,1,1,753,995
5209,119920037,1,0.001997821,0.001152865,0.002603834,-0.05023884,0.05985418,-9.798128999999999,0,0,45.50545,1,1,753,995
5213,119921912,1,0.001869741,4.84458e-05,0.002751563,-0.05628976,0.04144775,-9.779654000000001,0,0,45.50545,1,1,753,995
5216,119924802,1,0.002573704,0.002155958,0.001116739,-0.05630728,0.01409752,-9.76721,0,0,45.50582,1,1,753,995
5219,119926614,1,0.001365109,0.003256776,-0.0003576498,-0.04908776,-0.01825585,-9.762592,0,0,45.50582,1,1,753,995
5256,119929339,1,-0.0003333279,0.003030472,-0.0007722736,-0.04046323,-0.02976398,-9.762528,0,0,45.50582,1,1,753,995
5260,119932481,1,-0.0002106284,0.001549622,0.001384203,-0.03392343,-0.02919199,-9.781203,0,0,45.50582,1,1,753,995
5263,119933927,1,-0.001062547,0.001316922,0.002409803,-0.03125285,-0.02864147,-9.794468,0,0,45.50618,1,1,753,995
5266,119937145,1,-0.007194716,0.003422433,0.001391189,-0.0221469,-0.03576555,-9.797396000000001,0,0,45.50618,1,1,753,995
5301,119939815,1,-0.009849382,0.002999762,0.001157702,-0.02852846,-0.03653804,-9.777206,0,0,45.50618,1,1,753,995
5304,119942160,1,-0.009926196,0.002680166,0.0004805238,-0.02960169,-0.03403892,-9.764010000000001,0,0,45.50618,1,1,753,995
5307,119945320,1,-0.003664358,0.004223988,-0.0005778868,-0.02449563,-0.04315588,-9.779639,0,0,45.50653,1,1,753,995
5310,119947347,1,-0.002249844,0.005517451,-0.001633025,-0.01621387,-0.03817116,-9.807657000000001,0,0,45.50653,1,1,753,995
5345,119950206,1,-0.0007209469,0.005907615,-0.005216786,-0.01411037,-0.02861985,-9.840593,0,0,45.50653,1,1,753,995
5349,119952350,1,-0.001142179,0.004689119,-0.006795596,-0.02164803,-0.03100425,-9.85971,0,0,45.50653,1,1,753,995
5352,119954598,1,-0.002057751,0.004553077,-0.00133983,-0.03922321,-0.03273796,-9.875641999999999,0,0,45.50653,1,1,753,995
5355,119957816,1,-0.003530188,0.004730589,0.005002652,-0.04564975,-0.03734546,-9.88448,0,0,45.50688,1,1,753,995
5390,119960809,1,-0.004759077,0.004019674,0.008099735,-0.0505208,-0.06087733,-9.90939,0,0,45.50688,1,1,753,995
5393,119962950,1,-0.004546518,0.002249062,0.007422445,-0.03978573,-0.06998302000000001,-9.908258,0,0,45.50688,1,1,753,995
5396,119965488,1,-0.00144966,-0.0006259971,0.004241778,-0.03113226,-0.0729582,-9.901909,0,0,45.50688,1,1,753,995
5399,119967979,1,0.001274424,-0.005305367,0.0007078515,-0.02194425,-0.07096079,-9.871881,0,0,45.50722,1,1,753,995
5434,119970942,1,0.00261292,-0.007175295,-0.001000266,-0.01310521,-0.06451206,-9.851103,0,0,45.50722,1,1,753,995
5441,119973702,1,0.003078758,-0.004295786,-0.0003549059,-0.002997147,-0.06245307,-9.849030000000001,0,0,45.50722,1,1,753,995
5444,119975382,1,0.003138145,-0.001522961,-0.0006158942,0.009625682,-0.05309523,-9.849268,0,0,45.50722,1,1,753,995
5448,119978236,1,0.003086196,0.001489704,0.0002996116,0.03145164,-0.03372999,-9.883205999999999,0,0,45.50755,1,1,753,995
5483,119981065,1,0.001255877,-0.002169797,0.002321969,0.04344797,-0.01282442,-9.937987,0,0,45.50755,1,1,753,995
5486,119983042,1,-0.0002520209,-0.003119414,0.002824175,0.04445823,-0.001406612,-9.956217000000001,0,0,45.50755,1,1,753,995
5491,119986024,1,-0.00199962,-0.00360047,-0.001603446,0.04214014,0.006597486,-9.952327,0,0,45.50755,1,1,753,995
5494,119987860,1,-0.001184707,-0.005002479,-0.003027886,0.03509912,0.01290916,-9.914713000000001,0,0,45.50755,1,1,753,995
5529,119990600,1,-0.000892102,-0.008265026,-0.00276846,0.01920861,0.003202878,-9.879778,0,0,45.50788,1,1,753,995
5533,119992891,1,-0.001484544,-0.008087732,-0.00143361,0.005532827,-0.01814628,-9.849323999999999,0,0,45.50788,1,1,753,995
5536,119995701,1,-0.0009794694000000001,-0.00698179,-0.0006892498,-0.001009716,-0.04005441,-9.817532999999999,0,0,45.50788,1,1,753,995
5539,119998353,1,0.0007997931,-0.00481817,0.0006488106,0.008291543,-0.06233,-9.779968999999999,0,0,45.50788,1,1,753,995
5574,120001309,1,0.002286831,-0.004588401,0.000417599,0.03289606,-0.06674898999999999,-9.751544000000001,0,0,45.5082,1,1,753,995
5578,120003688,1,0.002680928,-0.004505817,-0.0001476666,0.03382602,-0.06474634,-9.763502000000001,0,0,45.5082,1,1,753,995
5583,120006325,1,0.005741331,-0.003532989,-0.00246339,0.01929503,-0.04827693,-9.803969,0,0,45.5082,1,1,753,995
5586,120008694,1,0.006144153,-0.00262895,-0.004195661,0.01249856,-0.03548443,-9.814484,0,0,45.5082,1,1,753,995
5621,120017486,1,0.006704859,0.006337432,-0.00465891,-0.0338383,0.01833103,-9.839821000000001,0,0,45.50852,1,1,753,995
5624,120019879,1,0.007870013,0.004532671,0.000526752,-0.04196633,0.01859932,-9.849938999999999,0,0,45.50852,1,1,753,995
5659,120023580,1,0.008322955999999999,6.66309e-05,0.006454846,-0.04882311,0.01183179,-9.864795000000001,0,0,45.50882,1,1,753,995
5662,120026240,1,0.007873221,-0.003453351,0.01028325,-0.06366260999999999,-0.007966213999999999,-9.882432,0,0,45.50882,1,1,753,995
5665,120027812,1,0.006827289,-0.004172188,0.01164285,-0.08337246,-0.03065721,-9.892814,0,0,45.50882,1,1,753,995
5669,120030218,1,0.005829191,-0.003615567,0.0109399,-0.08793438000000001,-0.0380008,-9.898101,0,0,45.50882,1,1,753,995
5704,120032888,1,0.002784699,-0.003510222,0.008854089000000001,-0.08534206,-0.04610794,-9.912679000000001,0,0,45.50907,1,1,753,995
5707,120035797,1,0.0007001357,-0.001516403,0.005741043,-0.08433277,-0.04755819,-9.920095,0,0,45.50907,1,1,753,995
5710,120038210,1,0.001492802,0.002177891,0.004295432,-0.09219731,-0.03677431,-9.939657,0,0,45.50907,1,1,753,995
5714,120039915,1,0.002915182,0.005353509,0.004692316,-0.09998029999999999,-0.01743144,-9.960362999999999,0,0,45.50907,1,1,753,995
5749,120042831,1,0.001578774,0.005222761,0.003825394,-0.1122827,-0.0139037,-9.995837999999999,0,0,45.50907,1,1,753,995
5752,120045332,1,0.0008130769,0.003996986,0.002847677,-0.1144022,-0.02295199,-10.00434,0,0,45.5093,1,1,753,995
5755,120047824,1,0.0006357343,0.0002579066,0.002013882,-0.1068323,-0.02323998,-9.982869000000001,0,0,45.5093,1,1,753,995
5758,120050414,1,0.001433115,-0.001157768,0.001482281,-0.09539116,-0.01848033,-9.964585,0,0,45.5093,1,1,753,995
5793,120053366,1,0.0001057777,-0.003612639,0.002257934,-0.07749034,-0.01692036,-9.923337999999999,0,0,45.5093,1,1,753,995
5796,120055273,1,-0.004399316,-0.005340945,0.00360032,-0.06546109,-0.01990463,-9.89104,0,0,45.50953,1,1,753,995
5799,120058336,1,-0.007580538,-0.004286998,0.005038305,-0.05363409,-0.01398593,-9.84249,0,0,45.50953,1,1,753,995
5803,120060391,1,-0.008311167,-0.003567553,0.00620339,-0.05134668,-0.00511954,-9.816656999999999,0,0,45.50953,1,1,753,995
5838,120063081,1,-0.006724579,-0.00170189,0.007958606,-0.05367468,0.01194739,-9.812830999999999,0,0,45.50953,1,1,753,995
5841,120066063,1,-0.00762694,-0.001023348,0.004060606,-0.06502485,0.0230864,-9.824598,0,0,45.50953,1,1,753,995
5844,120067965,1,-0.00774156,0.0002486799,-0.0005470018,-0.09170621,0.011557,-9.838015,0,0,45.50974,1,1,753,995
5847,120070994,1,-0.007771668,0.001391537,-0.004620021,-0.1007564,-0.01362099,-9.8203,0,0,45.50974,1,1,753,995
5882,120073363,1,-0.006693745,0.002013817,-0.006091262,-0.1014388,-0.05143792,-9.7752,0,0,45.50974,1,1,753,995
5888,120076234,1,-0.004457047,0.002425389,-0.003703643,-0.09390695,-0.06304836,-9.755801,0,0,45.50974,1,1,753,995
5891,120079104,1,-0.002844085,0.002081018,-0.0006792092,-0.0923498,-0.08169542,-9.73922,0,0,45.50997,1,1,753,995
5895,120081513,1,-0.002781383,0.002086946,6.678704e-05,-0.09036317000000001,-0.09740902999999999,-9.722037,0,0,45.50997,1,1,753,995
5930,120084612,1,-0.003911023,0.00110622,-0.0009582440999999999,-0.07528131,-0.1133478,-9.726486,0,0,45.50997,1,1,753,995
5934,120086720,1,-0.007398268,-0.002112324,-0.001214345,-0.06115049,-0.1091623,-9.7356,0,0,45.50997,1,1,753,995
5937,120089350,1,-0.009530131000000001,-0.003355088,-0.0006690249,-0.05631239,-0.1107655,-9.749579000000001,0,0,45.51022,1,1,753,995
5941,120092119,1,-0.01100925,-0.005110889,-0.002165602,-0.060196,-0.1087361,-9.765401000000001,0,0,45.51022,1,1,753,995
5976,120095306,1,-0.00773926,-0.004346045,-0.00343022,-0.08013175,-0.08650521,-9.778516,0,0,45.51022,1,1,753,995
5979,120097157,1,-0.00573226,-0.002850865,-0.003238649,-0.08602978,-0.06486450000000001,-9.786645,0,0,45.51022,1,1,753,995
5982,120099597,1,-0.003229677,0.0003650113,-0.002015975,-0.09282236000000001,-0.04641668,-9.781544,0,0,45.51049,1,1,753,995
5985,120102249,1,-0.002946218,0.00111905,-0.00249605,-0.09772403,-0.04086803,-9.785589999999999,0,0,45.51049,1,1,753,995
6020,120105414,1,-0.005311743,0.002626565,-0.003388156,-0.08284780999999999,-0.0360659,-9.808157,0,0,45.51049,1,1,753,995
6023,120107710,1,-0.007205154,0.002710749,-0.004168252,-0.06594940000000001,-0.03903624,-9.818217000000001,0,0,45.51049,1,1,753,995
6026,120109827,1,-0.009596996,0.00284973,-0.003931388,-0.04708304,-0.03345887,-9.822073,0,0,45.51078,1,1,753,995
6030,120112293,1,-0.007083,0.0008723498,-0.001899488,-0.04104788,-0.02452383,-9.840444,0,0,45.51078,1,1,753,995
6065,120114855,1,-0.002942851,-0.001066861,0.0001040137,-0.03312146,-0.02889744,-9.857412,0,0,45.51078,1,1,753,995
6068,120117707,1,-0.002361029,-0.001318232,0.0005204616,-0.03124436,-0.04259126,-9.853021999999999,0,0,45.51078,1,1,753,995
6071,120120094,1,-0.004110354,-0.001204552,-0.002531628,-0.03564079,-0.05186806,-9.852570999999999,0,0,45.51078,1,1,753,995
6074,120122290,1,-0.004395397,-0.001678497,-0.005408,-0.04691024,-0.05015074,-9.865886,0,0,45.5111,1,1,753,995
6109,120124849,1,-0.004465979,-0.002617606,-0.009608499,-0.06477951999999999,-0.0599607,-9.885529999999999,0,0,45.5111,1,1,753,995
6112,120127380,1,-0.004448012,-0.002921897,-0.009270478,-0.07476314000000001,-0.06670302,-9.902652,0,0,45.5111,1,1,753,995
6115,120130821,1,-0.003899798,-0.002538602,-0.007604785,-0.07802162999999999,-0.07551031,-9.926205,0,0,45.5111,1,1,753,995
6119,120133375,1,-0.001357254,-0.002417446,-0.004171915,-0.06911802,-0.08451678999999999,-9.930914,0,0,45.51144,1,1,753,995
6154,120135800,1,0.001023789,0.0001079543,-0.004596628,-0.05311171,-0.1106873,-9.909542,0,0,45.51144,1,1,753,995
6157,120138528,1,0.0004295461,0.0007394547,-0.005919857,-0.05070136,-0.1129604,-9.890836,0,0,45.51144,1,1,753,995
6160,120141439,1,-0.0003787814,0.002399145,-0.004703727,-0.05463523,-0.1006769,-9.867974,0,0,45.51144,1,1,753,995
6163,120143516,1,-0.0008218967,0.004398865,-0.00361789,-0.05806415,-0.08448403,-9.8651,0,0,45.5118,1,1,753,995
6198,120146562,1,6.054813e-07,0.01153038,-0.001769332,-0.06636127,-0.0535483,-9.85867,0,0,45.5118,1,1,753,995
6201,120148654,1,0.0003209424,0.0116018,-0.002575844,-0.07596856,-0.03575301,-9.839746,0,0,45.5118,1,1,753,995
6204,120150918,1,-1.149848e-06,0.009004201,-0.005827803,-0.08244389000000001,-0.01320804,-9.802167000000001,0,0,45.5118,1,1,753,995
6208,120153850,1,-7.306352e-06,0.004444572,-0.007710293,-0.07788374000000001,-0.003701511,-9.783707,0,0,45.5118,1,1,753,995
6243,120156513,1,-0.0001460647,0.001422718,-0.007619658,-0.06186105,-0.004442341,-9.764049,0,0,45.51219,1,1,753,995
6247,120159076,1,0.001764781,8.426736e-05,-0.005720494,-0.0423754,-0.0460529,-9.751970999999999,0,0,45.51219,1,1,753,995
6250,120161332,1,0.005590823,-0.0004312334,-0.005282864,-0.03299766,-0.07058681999999999,-9.729755000000001,0,0,45.51219,1,1,753,995
6254,120164646,1,0.007125066,0.0004418121,-0.004032994,-0.02383473,-0.08345227,-9.715401,0,0,45.51219,1,1,753,995
6289,120167191,1,0.006561152,0.001306843,-0.002236019,-0.02247208,-0.08751053,-9.747513,0,0,45.51259,1,1,753,995
6292,120170094,1,0.004916826,0.001920679,-0.00240693,-0.02361292,-0.09352733000000001,-9.760524999999999,0,0,45.51259,1,1,753,995
6295,120172282,1,0.003391605,6.656584e-05,-0.003798692,-0.03880238,-0.1031226,-9.764167,0,0,45.51259,1,1,753,995
6298,120175028,1,0.002523701,-0.0009811899,-0.003827056,-0.05933307,-0.09861873,-9.769918000000001,0,0,45.51259,1,1,753,995
6333,120177525,1,-0.0002570675,0.0008058489,-0.003638153,-0.09389198999999999,-0.08779858,-9.785944000000001,0,0,45.51302,1,1,753,995
6340,120180344,1,-0.004636992,0.001269651,-0.003285843,-0.09895108,-0.07167975,-9.792071,0,0,45.51302,1,1,753,995
6343,120182657,1,-0.003399642,-0.0003771943,-0.001913326,-0.09138214,-0.05939198,-9.795199999999999,0,0,45.51302,1,1,753,995
6348,120185601,1,-0.002342565,0.0001104886,-0.001812313,-0.08081849000000001,-0.04553365,-9.805823,0,0,45.51302,1,1,753,995
6383,120188865,1,-0.005238884,0.005276409,-0.007867537000000001,-0.05563315,-0.02195311,-9.803687999999999,0,0,45.51346,1,1,753,995
6386,120190396,1,2.428656e-05,0.008044127,-0.01370061,-0.02893908,-0.013608,-9.783353999999999,0,0,45.51346,1,1,753,995
6389,120193151,1,0.004807579,0.0051777,-0.01362828,-0.0212024,-0.01216172,-9.779484999999999,0,0,45.51346,1,1,753,995
6392,120195838,1,0.009120339,-0.0007117878,-0.01408515,-0.01737603,-0.007964854,-9.761106,0,0,45.51346,1,1,753,995
6427,120198801,1,0.002350588,-0.002257275,-0.0199285,-0.007790839,0.01275889,-9.731633,0,0,45.51392,1,1,753,995
6430,120201029,1,0.0004679392,0.001691264,-0.02466267,0.02879105,0.04332287,-9.671608000000001,0,0,45.51392,1,1,753,995
6434,120203380,1,0.006644571,0.002724855,-0.02164489,0.05624511,0.0371597,-9.659478,0,0,45.51392,1,1,753,995
6438,120205664,1,0.005837893,0.003477514,-0.01742821,0.07374844999999999,0.01579154,-9.681179999999999,0,0,45.51392,1,1,753,995
6473,120208257,1,4.460791e-05,0.004885387,-0.016472,0.0886081,-0.001336557,-9.698714000000001,0,0,45.51392,1,1,753,995
6477,120211461,1,-0.004460682,0.004477571,-0.01757138,0.1096314,0.04832284,-9.661006,0,0,45.5144,1,1,753,995
6482,120213648,1,0.003630353,-0.0007441934,-0.01820051,0.1170429,0.05729932,-9.642837,0,0,45.5144,1,1,753,995
6485,120216059,1,0.01565739,-0.0103281,-0.01840554,0.09474614000000001,0.0293873,-9.652616,0,0,45.5144,1,1,753,995
6520,120225571,1,0.02372669,-0.006924211,0.01027762,-0.04044903,0.0153805,-9.707533,0,0,45.51489,1,1,753,995
6524,120227808,1,0.00365703,-0.01070405,0.02063413,-0.06251473,-0.09658661,-9.72739,0,0,45.51489,1,1,753,995
6559,120230636,1,-0.01840164,-0.007327124,0.02115403,-0.07684501000000001,-0.1099926,-9.726577000000001,0,0,45.51489,1,1,753,995
6562,120233087,1,-0.03025438,-0.001804604,0.02051444,-0.06511156999999999,-0.08339225,-9.730665,0,0,45.5154,1,1,753,995
6565,120236016,1,0.006192347,-0.008009858999999999,0.01891522,-0.05301141,-0.1278172,-9.747458999999999,0,0,45.5154,1,1,753,995
6569,120238348,1,0.01844245,-0.01348287,0.02106713,-0.08329974,-0.226618,-9.779953000000001,0,0,45.5154,1,1,753,995
6604,120240832,1,-0.01546802,0.00215434,0.0250514,-0.09787192,-0.1588926,-9.765402,0,0,45.5154,1,1,753,995
6607,120243355,1,-0.02353005,0.01522901,0.02626635,-0.06725009,-0.06714346,-9.771129,0,0,45.51593,1,1,753,995
6610,120245930,1,0.01206578,-0.0002337373,0.02264691,-0.04684119,-0.06527148000000001,-9.836054000000001,0,0,45.51593,1,1,753,995
6613,120248587,1,0.0170378,-0.016155,0.01794894,-0.06955383,-0.1051569,-9.894059,0,0,45.51593,1,1,753,995
6648,120251687,1,-0.01799804,-0.01015304,0.01588069,-0.07206991,-0.0508378,-9.920082000000001,0,0,45.51593,1,1,753,995
6651,120254588,1,-0.0226796,-0.002727145,0.01261271,-0.0452707,0.005737793,-9.905284999999999,0,0,45.51647,1,1,753,995
6654,120256523,1,0.003088152,-0.005815696,0.01232159,-0.04819424,-0.03692451,-9.901605999999999,0,0,45.51647,1,1,753,995
6658,120259242,1,0.0002634739,-0.002110026,0.01162548,-0.08442918000000001,-0.07602459,-9.877374,0,0,45.51647,1,1,753,995
6693,120262090,1,-0.01903257,0.01332097,0.01101009,-0.08148466,-0.006726739,-9.818854999999999,0,0,45.51647,1,1,753,995
6696,120264296,1,-0.007986162,0.01097578,0.01070283,-0.0519046,0.02977996,-9.776395000000001,0,0,45.51701,1,1,753,995
6699,120267371,1,0.01511721,-0.01098116,0.006533545,-0.06226148,0.005598408,-9.761120999999999,0,0,45.51701,1,1,753,995
6702,120269301,1,0.002982892,-0.01293925,0.005715873,-0.08958218,-0.02296736,-9.766356,0,0,45.51701,1,1,753,995
6737,120271983,1,-0.01723109,0.007951809000000001,0.007763379,-0.06073029,0.001528365,-9.727262,0,0,45.51701,1,1,753,995
6740,120274849,1,-0.01404818,0.01738738,0.006705176,-0.005288635,0.003027237,-9.722239,0,0,45.51701,1,1,753,995
6743,120276571,1,0.0177655,0.0157194,0.001473946,-0.0009296835,-0.07092087,-9.796491,0,0,45.51753,1,1,753,995
6747,120279845,1,0.01406468,0.01090857,0.0001929661,-0.04214194,-0.1067479,-9.85777,0,0,45.51753,1,1,753,995
6782,120282412,1,-0.02237445,0.01018893,0.0008786405,-0.05195927,-0.06393868,-9.863519999999999,0,0,45.51753,1,1,753,995
6788,120285636,1,-0.0058989,-0.00252703,-0.001648595,-0.01826447,-0.02489621,-9.837766,0,0,45.51753,1,1,753,995
6791,120287124,1,0.006705286,-0.01213286,-0.003383054,-0.03017971,-0.06077195,-9.829658999999999,0,0,45.51799,1,1,753,995
6795,120290144,1,0.007203841,-0.01487467,-0.003294695,-0.08252669999999999,-0.08810643,-9.814531000000001,0,0,45.51799,1,1,753,995
6830,120293268,1,-0.02287555,0.01432797,0.001731555,-0.07660024999999999,-0.01149147,-9.777383,0,0,45.51799,1,1,753,996
6833,120295914,1,-0.01775574,0.01832594,0.0005303077,-0.03561331,0.02440468,-9.751181000000001,0,0,45.51799,1,1,753,996
6836,120298063,1,0.006117947,0.006034377,-0.008944964,-0.02105674,-0.01425711,-9.764884,0,0,45.51843,1,1,753,996
6840,120300652,1,0.003995713,-0.006963804,-0.01867112,-0.04447045,-0.03500214,-9.786109,0,0,45.51843,1,1,753,996
6875,120303319,1,-0.01673681,0.001305249,-0.01945415,-0.05614832,-0.002775105,-9.750565999999999,0,0,45.51843,1,1,753,996
6878,120306382,1,-0.01059778,0.01661375,-0.01281206,-0.005544602,-0.003443843,-9.718363,0,0,45.51843,1,1,753,996
6881,120308870,1,0.01533799,0.016173,-0.01065555,0.02552368,-0.05786635,-9.748212000000001,0,0,45.51886,1,1,753,996
6885,120310859,1,0.01608536,0.005268299,-0.01169779,0.0004328444,-0.1301957,-9.804976,0,0,45.51886,1,1,753,996
6920,120313443,1,-0.01297003,0.009916848000000001,-0.01307384,-0.04481959,-0.12535,-9.82296,0,0,45.51886,1,1,753,996
6923,120315883,1,-0.02038783,0.02381312,-0.01195177,-0.0372383,-0.06647627,-9.846937,0,0,45.51886,1,1,753,996
6928,120319279,1,0.008514173,0.01433687,-0.01674165,0.005999418,-0.05942081,-9.860657,0,0,45.51886,1,1,753,996
6931,120321585,1,0.02634604,-0.0100137,-0.02154202,-0.02581939,-0.1210458,-9.892885,0,0,45.51928,1,1,753,996
6966,120324215,1,0.001855517,-0.006202186,-0.0158533,-0.1137723,-0.1318383,-9.889849999999999,0,0,45.51928,1,1,753,996
6969,120326840,1,-0.02211458,0.02414339,-0.01045299,-0.07065739,-0.04460251,-9.85693,0,0,45.51928,1,1,753,996
6972,120329337,1,-0.002405835,0.0281011,-0.01297302,-0.01936474,-0.01565155,-9.838960999999999,0,0,45.51928,1,1,753,996
6976,120331956,1,0.03014424,0.001241992,-0.0194589,-0.04000265,-0.03469676,-9.828400999999999,0,0,45.5197,1,1,753,996
7011,120335709,1,0.02555849,-0.005148799,-0.01907455,-0.07715232,-0.05239363,-9.825265,0,0,45.5197,1,1,753,996
7014,120337824,1,-0.01037122,0.01107352,-0.014107,-0.02753589,-0.05385848,-9.824498,0,0,45.5197,1,1,753,996
7017,120339924,1,-0.02416614,0.009522828000000001,-0.01605117,0.03839214,-0.02593815,-9.816476,0,0,45.5197,1,1,753,996
7020,120342546,1,0.002426562,-0.008266446,-0.01949487,0.006256763,-0.02026146,-9.816729,0,0,45.5201,1,1,753,996
7055,120344899,1,0.02283553,-0.00345899,-0.01516148,-0.04056661,-0.06327967,-9.835746,0,0,45.5201,1,1,753,996
7058,120348025,1,0.01798491,0.008348728999999999,-0.0103352,0.0002196238,-0.09356618,-9.856703,0,0,45.5201,1,1,753,996
7061,120350941,1,-0.02128969,0.0174611,-0.006950926,0.05196761,-0.1059317,-9.858347999999999,0,0,45.5201,1,1,753,996
7065,120352564,1,-0.02321758,0.008121362999999999,-0.01077572,0.05186924,-0.1098,-9.850682000000001,0,0,45.5201,1,1,753,996
7100,120355107,1,-0.006738151,-0.00642109,-0.01760769,0.01577206,-0.1131647,-9.853491999999999,0,0,45.52048,1,1,753,996
7103,120357929,1,0.007288278,-0.007948861999999999,-0.01602939,0.02139035,-0.1125697,-9.856942999999999,0,0,45.52048,1,1,753,996
7106,120359895,1,-0.001983523,-0.006164438,-0.006096439,0.02352535,-0.1095171,-9.847517,0,0,45.52048,1,1,753,996
7111,120362398,1,-0.01998417,-0.007432478,0.005540576,-0.01058649,-0.09666147,-9.830082000000001,0,0,45.52048,1,1,753,996
7146,120365521,1,-0.02448682,-0.009392060000000001,0.009289141000000001,-0.06582003,-0.05893429,-9.827576000000001,0,0,45.52085,1,1,753,996
7149,120367595,1,-0.009911692,-0.007795335,0.006926754,-0.08480573,-0.0349108,-9.856629999999999,0,0,45.52085,1,1,753,996
7152,120370273,1,0.001571473,-0.004335638,0.003096492,-0.1026053,-0.01374461,-9.888748,0,0,45.52085,1,1,753,996
7155,120372410,1,-0.001343059,-0.002170317,0.001741856,-0.1145005,-0.005814049,-9.88232,0,0,45.52085,1,1,753,996
7190,120375041,1,-0.01816047,0.001961826,0.003103788,-0.09806192,-0.005633686,-9.853909,0,0,45.52121,1,1,753,996
7193,120378033,1,-0.01702114,0.0007366231,0.003892772,-0.07812174,-0.0025387,-9.839808,0,0,45.52121,1,1,753,996
7196,120380026,1,-0.005331205,-0.0001667178,0.009335903,-0.06761729,-0.01251256,-9.825697,0,0,45.52121,1,1,753,996
7200,120382851,1,0.005816505,0.005892213,0.01616834,-0.05827558,-0.02445132,-9.806829,0,0,45.52121,1,1,753,996
7235,120385328,1,0.006318134,0.01273068,0.01703766,-0.0242673,-0.03371517,-9.773664,0,0,45.52121,1,1,753,996
7241,120387929,1,-2.439323e-05,0.008537594000000001,0.01110414,-0.005499979,-0.04655061,-9.762543000000001,0,0,45.52158,1,1,753,996
7244,120390641,1,-0.004606324,-0.001139121,0.005363073,-0.02691192,-0.05059465,-9.754977999999999,0,0,45.52158,1,1,753,996
7248,120393054,1,-0.002951774,0.0001769455,0.008503020999999999,-0.03380471,-0.0505374,-9.691571,0,0,45.52158,1,1,753,996
7284,120396077,1,0.008541226000000001,0.006554074,0.01605824,0.02211302,-0.07969656999999999,-9.630561,0,0,45.52158,1,1,753,996
7287,120398552,1,0.007192626,0.00586131,0.01631894,0.02764522,-0.1046636,-9.636799999999999,0,0,45.52196,1,1,753,996
7290,120400586,1,-0.006099653,0.009101364000000001,0.01493862,-0.01326568,-0.07714514,-9.703025999999999,0,0,45.52196,1,1,753,996
7294,120403292,1,-0.01087017,0.0136505,0.01151534,-0.01161306,-0.02221679,-9.756762999999999,0,0,45.52196,1,1,753,996
7329,120405584,1,0.0046508,0.004846208,0.007652777,0.006199892,0.01235207,-9.816758999999999,0,0,45.52196,1,1,753,996
7332,120408554,1,0.01368368,-0.009932897,0.003701639,-0.02266442,0.006792601,-9.833534999999999,0,0,45.52233,1,1,753,996
7335,120410926,1,-0.001789781,-0.006371207,0.005252854,-0.06221182,-0.001060702,-9.792249999999999,0,0,45.52233,1,1,753,996
7338,120413403,1,-0.0105173,0.002502966,0.007744937,-0.0528112,0.008303652,-9.739988,0,0,45.52233,1,1,753,996
7373,120416406,1,-0.00028572,0.01804447,0.008517106999999999,-0.04981227,-0.01289205,-9.718028,0,0,45.52233,1,1,753,996
7376,120418280,1,0.008879862000000001,0.01641282,0.006705701,-0.08148548999999999,-0.04686825,-9.758350999999999,0,0,45.52233,1,1,753,996
7381,120421342,1,0.01098718,0.01607886,0.002490237,-0.1201538,-0.08681422,-9.810518,0,0,45.52269,1,1,753,996
7385,120423248,1,-0.003291427,0.02254874,-0.0006489294,-0.1001577,-0.08659049000000001,-9.802114,0,0,45.52269,1,1,753,996
7422,120425965,1,-0.003086238,0.02016356,-0.002193877,-0.06432863,-0.07864449,-9.766166999999999,0,0,45.52269,1,1,753,996
7425,120431168,1,0.02471261,0.006104422,0.001800893,-0.06861763,-0.09419371999999999,-9.792218999999999,0,0,45.52304,1,1,753,996
7429,120433999,1,0.01448177,0.01346143,0.00220736,-0.004158946,-0.07070510000000001,-9.764174000000001,0,0,45.52304,1,1,753,996
7464,120440622,1,0.008180615,-0.008352089,-0.004877306,0.06001648,-0.1331416,-9.775297999999999,0,0,45.52304,1,1,753,996
7467,120442852,1,0.001362088,-0.004975284,-0.006995614,0.07298394,-0.1624093,-9.879272,0,0,45.52337,1,1,753,996
7471,120445074,1,0.0001881512,-0.005470945,-0.007246733,0.08754201,-0.1773217,-9.938399,0,0,45.52337,1,1,753,996
7506,120447704,1,-0.0005151182,-0.01286877,-0.002394598,0.07136389999999999,-0.2233642,-9.978775000000001,0,0,45.52337,1,1,753,996
7509,120450880,1,-0.003783375,-0.01482499,-5.739867e-05,0.06490675,-0.2512127,-9.959792,0,0,45.52337,1,1,753,996
7512,120453936,1,-0.02201938,-0.00768387,-0.003231733,0.06663284,-0.2381189,-9.919745000000001,0,0,45.5237,1,1,753,996
7516,120455617,1,-0.02457017,-0.003585576,-0.007705199,0.03724494,-0.1910417,-9.9231,0,0,45.5237,1,1,753,996
7551,120458397,1,-0.01676207,0.006345381,-0.01520046,-0.05570571,-0.09061608,-9.940891000000001,0,0,45.5237,1,1,753,996
7555,120461384,1,0.009907272,0.01445211,-0.01342008,-0.1130541,-0.009983547000000001,-9.936685000000001,0,0,45.5237,1,1,753,996
7558,120463539,1,0.01229615,0.01027722,-0.01085324,-0.1415867,0.01670355,-9.931964000000001,0,0,45.52403,1,1,753,996
7561,120466379,1,9.590833e-05,0.001562944,-0.005942158,-0.2091926,0.06891824000000001,-9.880945000000001,0,0,45.52403,1,1,753,996
7596,120469083,1,0.002231361,-0.002949486,-0.003103054,-0.2193631,0.1236437,-9.762288,0,0,45.52403,1,1,753,996
7599,120472099,1,0.01729773,-0.00581565,-0.00355335,-0.1823182,0.08998881,-9.711413,0,0,45.52403,1,1,753,996
7602,120473942,1,0.03524994,-0.01222216,-0.004041325,-0.1434116,-0.02961126,-9.730081,0,0,45.52434,1,1,753,996
7606,120477035,1,0.01135611,-0.009239878999999999,-0.003566618,-0.1144014,-0.07077066,-9.788997,0,0,45.52434,1,1,753,996
7641,120479937,1,-0.01708437,0.002221614,-0.001957712,-0.01489793,-0.07499359,-9.859688999999999,0,0,45.52434,1,1,753,996
7644,120482305,1,0.003987547,-0.003068781,-0.006428636,0.08026981,-0.1224711,-9.897914999999999,0,0,45.52434,1,1,753,996
7647,120485034,1,0.01439328,-0.009210859,-0.008937090999999999,0.1002654,-0.1738049,-9.895702,0,0,45.52434,1,1,753,996
7651,120486942,1,0.01082005,-0.01498534,-0.01265119,0.09808070000000001,-0.204116,-9.846313,0,0,45.52462,1,1,753,996
7686,120490077,1,-0.01441876,-0.01118506,-0.01320708,0.07843055,-0.1938371,-9.799609999999999,0,0,45.52462,1,1,753,996
7692,120492291,1,-0.03309305,-0.001637165,-0.01357057,0.01920991,-0.1629328,-9.744341,0,0,45.52462,1,1,753,996
7695,120494329,1,-0.0349089,0.009751612,-0.01687178,-0.03097482,-0.1328882,-9.689662,0,0,45.52462,1,1,753,996
7699,120497866,1,-0.02012928,0.01130454,-0.02219833,-0.08127442999999999,-0.05427508,-9.607155000000001,0,0,45.52487,1,1,753,996
7734,120500902,1,0.008256517999999999,0.005091819,-0.02869072,-0.1506066,0.01746953,-9.643598000000001,0,0,45.52487,1,1,753,996
7737,120503064,1,0.01883702,-0.002663205,-0.0301815,-0.1951687,0.01555478,-9.755345999999999,0,0,45.52487,1,1,753,996
7740,120505669,1,-0.00423842,-0.007290446,-0.02193012,-0.1624631,0.01705363,-9.803343,0,0,45.52487,1,1,753,996
7744,120508382,1,-0.02023748,-0.008644726,-0.01217278,-0.08968948,0.04281067,-9.808059999999999,0,0,45.52508,1,1,753,996
7779,120510575,1,0.003914698,-0.0001961242,-0.004175975,-0.02926485,0.01449835,-9.768402999999999,0,0,45.52508,1,1,753,996
7782,120513620,1,0.03134804,0.0164332,0.004350394,0.04182714,-0.03155858,-9.752977,0,0,45.52508,1,1,753,996
7785,120515902,1,0.02464372,0.02301616,0.009252583,0.1627565,-0.08240195,-9.752378,0,0,45.52508,1,1,753,996
7788,120518923,1,-0.008492927000000001,0.01791554,0.00623271,0.19431,-0.09443194000000001,-9.771171000000001,0,0,45.52527,1,1,753,996
7823,120521279,1,-0.03434924,0.01098618,0.002517856,0.1692656,-0.07871507,-9.742232,0,0,45.52527,1,1,753,996
7826,120524071,1,-0.0249141,0.00382758,0.002303594,0.1385035,-0.03271814,-9.627265,0,0,45.52527,1,1,753,996
7829,120526887,1,0.006533718,-0.005502816,0.004184335,0.07767074,-0.04684478,-9.590131,0,0,45.52527,1,1,753,996
7833,120528988,1,0.004173025,-0.0008319969,0.006845949,-0.09346237,-0.09326222000000001,-9.654750999999999,0,0,45.52544,1,1,753,996
7869,120532778,1,-0.03882506,0.01886778,0.008546549000000001,-0.2127832,-0.02657831,-9.762646999999999,0,0,45.52544,1,1,753,996
7872,120534409,1,-0.04928709,0.020207,0.002745208,-0.2364117,0.06344488,-9.81948,0,0,45.52544,1,1,753,996
7875,120537968,1,0.0007426389,-0.0009758925,-0.006964115,-0.2854581,0.06800146,-9.859435,0,0,45.52544,1,1,753,996
7878,120539503,1,0.02908623,-0.003635109,-0.00834092,-0.309747,-0.006346506,-9.833949,0,0,45.52544,1,1,753,996
7913,120542084,1,-0.003920165,0.01922817,-0.00328927,-0.2098543,-0.03282025,-9.753185,0,0,45.5256,1,1,753,996
7916,120545110,1,-0.02133443,0.02958867,-0.0007759267,-0.09103132999999999,0.02411668,-9.748730999999999,0,0,45.5256,1,1,753,996
7919,120546872,1,0.005840591,0.01828495,0.003570848,0.03524068,0.07527774,-9.786095,0,0,45.5256,1,1,753,996
7924,120549719,1,0.02379644,0.008818303,0.00496323,0.07487953,0.0401114,-9.802721999999999,0,0,45.5256,1,1,753,996
7959,120552562,1,0.02581507,0.003472208,0.009075392,0.137146,-0.0338734,-9.786714,0,0,45.52577,1,1,753,996
7962,120555102,1,-0.02462671,0.008540854000000001,0.01843254,0.1869725,-0.05988424,-9.790101,0,0,45.52577,1,1,753,996
7965,120557087,1,-0.02837956,0.001300504,0.02002225,0.174363,-0.06536531,-9.815242,0,0,45.52577,1,1,753,996
7970,120559809,1,-0.007072948,-0.01919172,0.02129158,0.06421664000000001,-0.1358403,-9.838246,0,0,45.52577,1,1,753,996
8005,120562707,1,0.00829003,-0.01889094,0.02248223,-0.03439039,-0.215766,-9.815059,0,0,45.52592,1,1,753,996
8008,120564876,1,-0.01182698,0.006728742,0.02293828,-0.1362247,-0.2581791,-9.741664,0,0,45.52592,1,1,753,996
8011,120567835,1,-0.02565105,0.02298838,0.01604479,-0.1806017,-0.214826,-9.716612,0,0,45.52592,1,1,753,996
8014,120569852,1,-0.003463899,0.0170377,0.001930989,-0.2622583,-0.1530723,-9.784941,0,0,45.52592,1,1,753,996
8049,120572492,1,0.01603439,0.007569331,-0.007063222,-0.2910965,-0.133575,-9.891942999999999,0,0,45.52592,1,1,753,996
8052,120575273,1,0.003433379,0.004404805,-0.00560589,-0.2619525,-0.09001919999999999,-9.984792000000001,0,0,45.52607,1,1,753,996
8055,120577368,1,-0.006637875,0.001186201,-0.003193063,-0.1264877,-0.008099776,-9.993783000000001,0,0,45.52607,1,1,753,996
8059,120580095,1,-0.003575878,-0.02046135,0.0058062,0.03572415,0.01957442,-9.865441000000001,0,0,45.52607,1,1,753,996
8094,120582587,1,0.009135969000000001,-0.02214423,0.01219103,0.149829,-0.02261023,-9.726988,0,0,45.52607,1,1,753,996
8097,120585338,1,0.009258774000000001,-0.01378655,0.01437701,0.1909366,-0.0632949,-9.668441,0,0,45.52623,1,1,753,996
8100,120588180,1,-0.00582155,0.01376363,0.01026388,0.2203875,-0.09922548,-9.626607,0,0,45.52623,1,1,753,996
8103,120590349,1,-0.006070408,0.01075585,0.005832987,0.2082356,-0.110088,-9.614552,0,0,45.52623,1,1,753,996
8138,120593395,1,0.001682487,-0.01329457,-0.001032231,0.1006894,-0.1401158,-9.640542999999999,0,0,45.52623,1,1,753,996
8144,120595298,1,0.003209527,-0.03394043,-0.002515752,-0.000592992,-0.1430195,-9.721819,0,0,45.52639,1,1,753,996
8147,120597588,1,-0.004576052,-0.03373005,-0.0007380382,-0.1339878,-0.1047664,-9.861696999999999,0,0,45.52639,1,1,753,996
8152,120600844,1,-0.006579969,-0.02002821,0.008048616999999999,-0.1887294,-0.08484785,-9.886469,0,0,45.52639,1,1,753,996
8187,120603281,1,0.001124203,-0.01301469,0.01859464,-0.1898391,-0.09648857,-9.826585,0,0,45.52639,1,1,753,996
8190,120606394,1,0.006138509,-0.01194029,0.01989334,-0.1663304,-0.129553,-9.748441,0,0,45.52654,1,1,753,996
8195,120608596,1,-0.001116115,-0.004437787,0.01098172,-0.1628701,-0.1469079,-9.718522999999999,0,0,45.52654,1,1,753,996
8198,120613864,1,-0.007100862,0.01987068,-0.01268474,0.02261547,-0.06282735,-9.745620000000001,0,0,45.52654,1,1,753,996
8233,120619640,1,0.01785611,-0.01983606,-0.01544998,0.09065987,-0.007398836,-9.861890000000001,0,0,45.52667,1,1,753,996
8238,120622227,1,-0.006274863,-0.004935752,-0.005125981,0.1401394,0.0521166,-9.814721,0,0,45.52667,1,1,753,996
8241,120624647,1,-0.01189101,0.006615641,-0.003645076,0.1984646,0.0730112,-9.751355,0,0,45.52667,1,1,753,996
8276,120627597,1,0.01105589,-0.009669677,-0.01533885,0.1445046,-0.01712199,-9.715093,0,0,45.52667,1,1,753,996
8279,120630010,1,0.01487662,-0.009077264999999999,-0.0256054,0.01800711,-0.1159196,-9.734177000000001,0,0,45.5268,1,1,753,996
8282,120632114,1,-0.01559416,0.0317254,-0.02328187,-0.09727497,-0.2294802,-9.720383,0,0,45.5268,1,1,753,996
8285,120634527,1,-0.025853,0.05027871,-0.0201738,-0.0904789,-0.266115,-9.692907,0,0,45.5268,1,1,753,996
8320,120637209,1,0.005447451,0.0190616,-0.02401027,-0.1206003,-0.3046312,-9.77833,0,0,45.5268,1,1,753,996
8323,120640602,1,0.01651772,-0.00377394,-0.02515877,-0.2118543,-0.3333755,-9.903594,0,0,45.52691,1,1,753,996
8327,120643340,1,0.0007620300999999999,-0.01598085,-0.01756514,-0.2786372,-0.3015681,-10.01202,0,0,45.52691,1,1,753,996
8330,120644894,1,-0.03981773,0.006385906,0.0005720451,-0.1208995,-0.1883882,-9.938788000000001,0,0,45.52691,1,1,753,996
8365,120647343,1,-0.01509729,-0.00893236,0.001261258,-0.05304396,-0.1549408,-9.822798000000001,0,0,45.52691,1,1,753,996
8369,120650378,1,-0.0007568796,0.0008703765,0.0006126143,-0.1239316,-0.186332,-9.796309000000001,0,0,45.52702,1,1,753,996
8374,120653050,1,-0.0109191,0.0245548,0.001872837,-0.147924,-0.1913726,-9.77388,0,0,45.52702,1,1,753,996
8377,120655640,1,-0.03440223,0.06324317,-0.001767844,-0.02126135,-0.1328139,-9.721054000000001,0,0,45.52702,1,1,753,996
8412,120658133,1,-0.01569896,0.03578044,-0.02270655,0.03055996,-0.1173569,-9.709414000000001,0,0,45.52702,1,1,753,996
8415,120660827,1,0.01011893,-0.0226983,-0.03449758,-0.09140668,-0.1456424,-9.766335,0,0,45.52712,1,1,753,996
8418,120663290,1,-0.002884877,-0.01636777,-0.02700964,-0.09877693,-0.1151261,-9.785085,0,0,45.52712,1,1,753,996
8422,120666299,1,-0.03043488,0.01621498,-0.0006791812,-0.02206456,-0.02096864,-9.73897,0,0,45.52712,1,1,753,996
8459,120669037,1,-0.00609241,0.01272938,0.003713525,-0.0519885,-0.01233959,-9.652886000000001,0,0,45.52712,1,1,753,996
8462,120672048,1,0.005915445,0.0154236,0.002203167,-0.1021231,-0.04715955,-9.57891,0,0,45.52712,1,1,753,996
8466,120673630,1,-0.001997,0.046521,-0.0150178,-0.06137766,-0.09750927,-9.481652,0,0,45.52722,1,1,753,996
8470,120676746,1,-0.01149196,0.04493906,-0.02319833,-0.0181048,-0.129158,-9.449805,0,0,45.52722,1,1,753,996
8505,120679720,1,-0.01999814,0.01456233,-0.03643098,-0.03434547,-0.1542931,-9.464429000000001,0,0,45.52722,1,1,753,996
8508,120681844,1,-0.01355595,-0.0131546,-0.02947152,-0.08062845,-0.1631994,-9.550197000000001,0,0,45.52722,1,1,753,996
8511,120683611,1,-0.004132323,-0.01674949,-0.003490007,-0.07130056999999999,-0.1559076,-9.764074000000001,0,0,45.5273,1,1,753,996
8514,120686214,1,-0.003066848,-0.01476808,0.02056899,-0.02874819,-0.1546363,-9.862195,0,0,45.5273,1,1,753,996
8549,120688974,1,-0.008966485999999999,-0.01297467,0.02507141,-0.002163971,-0.1133525,-9.814888,0,0,45.5273,1,1,753,996
8552,120691906,1,-0.009691576,-0.008223331,0.02091759,0.02116201,-0.06394957,-9.703275,0,0,45.5273,1,1,753,996
8556,120694321,1,0.001680512,0.01059013,0.001271725,0.06893381,-0.04451663,-9.614392,0,0,45.5273,1,1,753,996
8560,120696180,1,0.0008193862,0.01211391,-0.005223115,0.05403724,-0.0643394,-9.643762000000001,0,0,45.52737,1,1,753,996
8598,120699076,1,-0.01548587,0.0153042,-0.01132901,-0.03187018,-0.04097612,-9.726308,0,0,45.52737,1,1,753,996
8601,120701629,1,-0.02056735,0.01561301,-0.004222423,-0.06087596,0.01538413,-9.798211999999999,0,0,45.52737,1,1,753,996
8605,120704612,1,0.009827377,-0.004787127,0.007245561,-0.0594345,0.01299444,-9.953639000000001,0,0,45.52737,1,1,753,996
8608,120706630,1,0.02805049,-0.03392779,0.01521666,-0.08616023,-0.04688367,-10.04196,0,0,45.52744,1,1,753,996
8643,120709194,1,0.00159675,-0.03437762,0.01841717,-0.1062262,-0.05018731,-9.997487,0,0,45.52744,1,1,753,996
8646,120711329,1,-0.01901004,-0.01346717,0.01500201,-0.05428664,0.007185593,-9.829435,0,0,45.52744,1,1,753,996
8651,120713856,1,0.01474978,-0.005905266,0.00420511,0.03204245,0.02530111,-9.611547,0,0,45.52744,1,1,753,996
8654,120717049,1,0.03658178,-0.006317565,-0.001963873,0.009780092000000001,-0.04231348,-9.564788,0,0,45.52744,1,1,753,996
8689,120720019,1,0.003990191,0.01122293,-0.004012133,-0.0645954,-0.1212961,-9.590282,0,0,45.5275,1,1,753,996
8692,120722271,1,-0.03907112,0.01585926,0.005872137,-0.04202537,-0.05475908,-9.638913000000001,0,0,45.5275,1,1,753,996
8696,120724674,1,-0.03165631,0.007354108,0.01047249,-0.05378493,-0.0193691,-9.743995,0,0,45.5275,1,1,753,996
8699,120727542,1,0.03712638,-0.03102201,0.01954583,-0.1224517,-0.1049374,-9.917643,0,0,45.5275,1,1,753,996
8734,120730352,1,0.01689213,-0.03315039,0.02466952,-0.08308351999999999,-0.1725479,-9.835917999999999,0,0,45.52756,1,1,753,996
8737,120732651,1,-0.005032884,-0.02717202,0.02529021,-0.02073911,-0.1176783,-9.650839,0,0,45.52756,1,1,753,996
8740,120735048,1,-0.009776531,-0.009039706,0.02037009,-0.0001314935,-0.04101914,-9.478486999999999,0,0,45.52756,1,1,753,996
8743,120738611,1,0.004084798,0.002793387,0.01617576,-0.02007931,-0.06153382,-9.527677000000001,0,0,45.52756,1,1,753,996
8746,120740365,1,0.003348107,0.02615798,0.009220491000000001,-0.03154699,-0.08272959000000001,-9.692691999999999,0,0,45.5276,1,1,753,996
8781,120743267,1,-0.03446203,0.01646802,0.002988321,-0.03254387,0.03856517,-9.803585,0,0,45.5276,1,1,753,996
8785,120745581,1,-0.01801556,-0.001799356,0.001725043,-0.045525,0.09282360000000001,-9.881653,0,0,45.5276,1,1,753,996
8788,120748619,1,0.04027918,-0.04140555,0.006251995,-0.07365813,-0.009980457999999999,-9.970331,0,0,45.5276,1,1,753,996
8791,120751053,1,0.02673288,-0.03695188,0.01101314,-0.0604794,-0.06872886,-9.936914,0,0,45.52763,1,1,753,996
8826,120753517,1,-0.01752034,0.008605414,0.01836174,0.01591738,0.07106822,-9.642493999999999,0,0,45.52763,1,1,753,996
8829,120756227,1,0.03212639,0.03176443,0.008560675,0.02567011,0.09119101,-9.552583,0,0,45.52763,1,1,753,996
8832,120758626,1,0.05011507,0.03674682,-0.005077898,0.02776095,0.05828794,-9.542351999999999,0,0,45.52763,1,1,753,996
8835,120761279,1,0.02280293,0.03330274,-0.00916666,0.01848532,-0.01672006,-9.526173,0,0,45.52763,1,1,753,996
8870,120764095,1,-0.05611373,0.005686074,-0.007113868,-0.01782307,0.130796,-9.527222,0,0,45.52765,1,1,753,996
8874,120766349,1,-0.03730779,-0.005815917,-0.002804708,-0.03894116,0.1927704,-9.627912999999999,0,0,45.52765,1,1,753,996
8877,120769560,1,0.02060723,-0.02083749,0.009109600000000001,-0.04673541,0.06469177,-9.824747,0,0,45.52765,1,1,753,996
8880,120771269,1,0.008808705,-0.01316928,0.02272965,-0.05059091,0.01487741,-9.835476999999999,0,0,45.52765,1,1,753,996
8915,120773565,1,-0.03053036,0.01558276,0.02722097,-0.03889018,0.1479238,-9.649775999999999,0,0,45.52765,1,1,753,996
8918,120776705,1,-7.411418e-05,0.0387944,0.01330119,-0.004005315,0.200308,-9.56758,0,0,45.52765,1,1,753,996
8921,120779214,1,0.03895598,0.04096547,-0.009676618,0.009030807,0.1366371,-9.592411999999999,0,0,45.52765,1,1,753,996
8924,120781053,1,0.02578424,0.0399806,-0.01760825,-0.06407280999999999,0.0551642,-9.684443999999999,0,0,45.52765,1,1,753,996
8959,120783513,1,-0.005874825,0.03812363,-0.02150083,-0.08811218,0.08618441,-9.696031,0,0,45.52765,1,1,753,996
8963,120785975,1,-0.03113024,0.01649024,-0.02015029,-0.09457763,0.1405067,-9.785413999999999,0,0,45.52765,1,1,753,996
8968,120789334,1,0.02181363,-0.02207215,-0.01002191,-0.1402461,-0.06030729,-9.968368999999999,0,0,45.52765,1,1,753,996
8971,120791488,1,0.01545919,-0.0211976,0.004235319,-0.1810102,-0.1349767,-9.987959999999999,0,0,45.52765,1,1,753,996
9006,120794477,1,-0.03388536,0.0256443,0.01050967,-0.09301637,-0.01148557,-9.779906,0,0,45.52765,1,1,753,996
9010,120796595,1,-0.008167719,0.05204111,-0.0008525242,0.008008425,0.0415175,-9.647015,0,0,45.52767,1,1,753,996
9013,120799023,1,0.04578206,0.03457416,-0.02095897,0.04166166,-0.08363675,-9.604668,0,0,45.52767,1,1,753,996
9019,120802251,1,0.008025063000000001,0.01600605,-0.02905701,0.01022489,-0.1476054,-9.572874000000001,0,0,45.52767,1,1,753,996
9054,120805102,1,-0.05698477,0.005910992,-0.01167503,0.002665435,-0.01301826,-9.488616,0,0,45.52767,1,1,753,996
9058,120807307,1,-0.02988522,-0.006532681,-0.004151896,0.002816622,-0.01692518,-9.612602000000001,0,0,45.52771,1,1,753,996
9061,120809874,1,0.02773896,-0.03242377,0.009364701,-0.04217651,-0.1270671,-9.810447,0,0,45.52771,1,1,753,996
9064,120812350,1,0.001047614,-0.02382888,0.022364,-0.1026919,-0.1999817,-9.880686000000001,0,0,45.52771,1,1,753,996
9101,120815551,1,-0.03860258,0.01179294,0.02256223,-0.02432226,-0.03833828,-9.643110999999999,0,0,45.52771,1,1,753,996
9104,120820630,1,0.02705136,0.004573029,-0.02821416,0.06394556999999999,-0.08994786,-9.469867000000001,0,0,45.52775,1,1,753,996
9108,120823054,1,-0.0283714,0.005102409,-0.03623984,-0.02608662,-0.06454577,-9.466566,0,0,45.52775,1,1,753,996
9143,120829030,1,0.03948056,-0.03269214,-0.004582174,0.0269413,-0.03467674,-9.949676999999999,0,0,45.52781,1,1,753,996
9146,120831262,1,0.04494546,-0.04551535,0.002057086,-0.02161452,-0.1538016,-10.07468,0,0,45.52781,1,1,753,996
9150,120833706,1,-0.02297978,-0.004032725,0.01150152,-0.0227684,-0.1142474,-9.946458,0,0,45.52781,1,1,753,996
9185,120836092,1,-0.01912292,0.01770294,0.00648365,0.06412255,-0.07491965,-9.785246000000001,0,0,45.52781,1,1,753,996
9188,120839342,1,0.03059839,0.02529405,-0.01615756,0.1540213,-0.2356526,-9.670448,0,0,45.52781,1,1,753,996
9191,120841853,1,0.02149372,-0.001692971,-0.03584301,0.1018568,-0.3680958,-9.607374999999999,0,0,45.52788,1,1,753,996
9194,120843816,1,-0.05276664,-0.01072098,-0.03124833,-0.005793888,-0.3134472,-9.486153,0,0,45.52788,1,1,753,996
9229,120846053,1,-0.05409681,-0.01534269,-0.01286368,0.005005931,-0.209014,-9.530932999999999,0,0,45.52788,1,1,753,996
9232,120848572,1,0.01320341,-0.04193598,0.005057364,0.004908268,-0.2385251,-9.865506999999999,0,0,45.52788,1,1,753,996
9235,120852596,1,0.02875657,-0.05201066,0.01236455,-0.07880122000000001,-0.3073068,-10.05849,0,0,45.52798,1,1,753,996
9238,120855056,1,-0.01992411,-0.001102999,0.02542834,-0.1535006,-0.2101842,-9.980988999999999,0,0,45.52798,1,1,753,996
9242,120856879,1,-0.002122338,0.03879703,0.01334803,0.03214308,-0.1198795,-9.716227999999999,0,0,45.52798,1,1,753,996
9277,120859549,1,0.02348856,0.03107658,0.0007000681,0.1302528,-0.2188017,-9.603603,0,0,45.52798,1,1,753,996
9280,120862233,1,-0.002606674,-0.009104113,-0.0216665,-0.009696926,-0.3101923,-9.547275000000001,0,0,45.52808,1,1,753,996
9283,120864545,1,-0.03524882,0.002992563,-0.0175954,-0.09699161000000001,-0.1745228,-9.588171000000001,0,0,45.52808,1,1,753,996
9287,120867116,1,-0.03865588,0.02306721,-0.003275977,0.01905636,-0.02436174,-9.89249,0,0,45.52808,1,1,753,996
9322,120869511,1,0.03696764,-0.04094032,0.009708990000000001,0.01280274,-0.1711537,-10.31096,0,0,45.52808,1,1,753,996
9326,120872315,1,0.02754328,-0.04696705,0.01415417,-0.1372496,-0.1860026,-10.35231,0,0,45.52808,1,1,753,996
9329,120875304,1,-0.01043208,0.04323742,0.02168675,-0.1197921,-0.04516132,-10.0576,0,0,45.52819,1,1,753,996
9332,120877812,1,0.006986066,0.06017403,0.01476429,0.04719888,-0.07131858000000001,-9.846645000000001,0,0,45.52819,1,1,753,996
9367,120880405,1,0.03077517,0.02934079,-0.01054976,0.04411629,-0.2794788,-9.678295,0,0,45.52819,1,1,753,996
9370,120883306,1,-0.05223865,0.009749079000000001,-0.0183031,-0.1669031,-0.2161276,-9.609557000000001,0,0,45.52819,1,1,753,996
9374,120886008,1,-0.05907777,0.01930034,-0.009421405000000001,-0.1293946,-0.07412015,-9.696116999999999,0,0,45.52829,1,1,753,996
9378,120887895,1,-0.009580246000000001,0.0005280502,0.009582189,-0.0294185,-0.08579402,-10.05345,0,0,45.52829,1,1,753,996
9413,120890671,1,0.02234963,-0.0370487,0.02284151,-0.1782966,-0.1225703,-10.22738,0,0,45.52829,1,1,753,996
9416,120892880,1,-0.0006058671,0.007513606,0.03307822,-0.409764,0.06969588,-10.08173,0,0,45.52829,1,1,753,996
9419,120895610,1,0.005742067,0.07680505999999999,0.03056702,-0.2680694,0.1783724,-9.838374999999999,0,0,45.52838,1,1,753,996
9422,120898486,1,0.0275359,0.0453315,0.005321197,-0.008856774,0.06257586,-9.5648,0,0,45.52838,1,1,753,996
9457,120901339,1,-0.01094647,-0.006514494,-0.02144086,-0.2197641,0.1020988,-9.433396999999999,0,0,45.52838,1,1,753,996
9460,120903691,1,-0.04110528,0.01187874,-0.02195002,-0.2808042,0.2937496,-9.474714000000001,0,0,45.52838,1,1,753,996
9466,120906231,1,0.007877677,0.01009498,-0.004565202,-0.05241455,0.3405383,-9.837729,0,0,45.52846,1,1,753,996
9470,120908616,1,0.03778832,-0.0115201,0.004180168,-0.07753317999999999,0.2284794,-10.10534,0,0,45.52846,1,1,753,996
9506,120911702,1,0.05850242,-0.005449371,0.01857299,-0.3247446,0.2480918,-10.1031,0,0,45.52846,1,1,753,996
9509,120913416,1,0.05933182,0.03051955,0.02323276,-0.1978969,0.2727876,-9.897563,0,0,45.52846,1,1,753,996
9513,120916797,1,0.06049283,0.0617846,0.01809015,0.2125503,0.00397593,-9.640779,0,0,45.52846,1,1,753,996
9516,120918531,1,0.01573673,0.0173342,-0.00367217,0.174511,-0.1412733,-9.529125000000001,0,0,45.52853,1,1,753,996
9553,120921694,1,-0.04602469,-0.00713779,-0.01758268,-0.02094279,-0.03276333,-9.494425,0,0,45.52853,1,1,753,996
9556,120923953,1,0.006809433,-0.01968317,0.004643662,0.2005458,-0.01643221,-9.792259,0,0,45.52853,1,1,753,996
9559,120926946,1,0.03116621,-0.03245751,0.01502585,0.2258194,-0.1073304,-9.990957999999999,0,0,45.52853,1,1,753,996
9563,120928912,1,0.03700131,-0.01243645,0.0313675,-0.07496443,-0.0139384,-9.909452,0,0,45.52859,1,1,753,996
9598,120931326,1,0.02812067,0.08151624,0.03035338,0.02629473,0.08980061,-9.662046999999999,0,0,45.52859,1,1,753,996
9601,120934595,1,0.0226211,0.07357553,0.01742307,0.2022592,0.01103288,-9.576058,0,0,45.52859,1,1,753,996
9604,120936409,1,-0.01432519,0.01116667,-0.02289609,0.1716604,0.004532321,-9.529119,0,0,45.52859,1,1,753,996
9608,120939391,1,-0.02574395,-0.04049563,-0.05057364,0.02746289,0.1999419,-9.583674,0,0,45.52865,1,1,753,996
9643,120941868,1,0.02084243,-0.06866461,-0.03947367,0.1738826,0.1582087,-9.82226,0,0,45.52865,1,1,753,996
9646,120945601,1,0.05518416,-0.05791247,-0.004543661,0.15688,0.0820603,-9.859945,0,0,45.52865,1,1,753,996
9649,120947109,1,0.05365936,0.005222875,0.02751607,0.02357746,0.09976336,-9.675853,0,0,45.52865,1,1,753,996
9652,120949709,1,0.04977791,0.0373906,0.03733396,0.08937415999999999,0.04054664,-9.628567,0,0,45.52865,1,1,753,996
9687,120952541,1,-0.002264235,0.03736879,0.01975102,0.2011429,-0.186845,-9.723267,0,0,45.52871,1,1,753,996
9690,120954599,1,-0.03123901,0.01116948,0.0008213851,0.1108041,-0.2003679,-9.760629,0,0,45.52871,1,1,753,996
9694,120958091,1,-0.03928115,-0.04886281,-0.03134236,0.01467429,-0.1093,-9.844780999999999,0,0,45.52871,1,1,753,996
9698,120960892,1,0.03981853,-0.08639845,-0.01839036,0.005968791,-0.2392361,-9.872960000000001,0,0,45.52871,1,1,753,996
9701,120962708,1,0.03989536,-0.0698708,-0.003542288,-0.0599483,-0.2972782,-9.73381,0,0,45.52874,1,1,753,996
9736,120965495,1,-0.01869231,0.02947984,0.02952801,-0.09560542,-0.217352,-9.560307999999999,0,0,45.52874,1,1,753,996
9740,120968400,1,-0.04406907,0.05398534,0.01690837,-0.001759107,-0.2405332,-9.705952999999999,0,0,45.52874,1,1,753,996
9743,120970656,1,-0.05086828,0.04463603,-0.0007059138,-0.0008330669,-0.2146151,-9.826814000000001,0,0,45.52874,1,1,753,996
9746,120973226,1,-0.01190889,-0.02176153,-0.0534772,-0.06269775,-0.04343666,-9.992141,0,0,45.52878,1,1,753,996
9781,120976389,1,0.03192649,-0.03948688,-0.04746591,-0.06466457,-0.09129424999999999,-10.09743,0,0,45.52878,1,1,753,996
9784,120979309,1,0.03052618,-0.03600596,-0.03183029,-0.01477078,-0.1772964,-10.01441,0,0,45.52878,1,1,753,996
9788,120980915,1,-0.03409304,-0.003816056,0.02335134,0.04063997,-0.1901418,-9.875658,0,0,45.52878,1,1,753,996
9791,120983564,1,-0.04478439,0.00435764,0.03431835,0.04701876,-0.1912466,-9.923136,0,0,45.5288,1,1,753,996
9826,120986390,1,-0.01300371,-0.0004581021,0.02583185,0.01555739,-0.1949777,-10.10169,0,0,45.5288,1,1,753,996
9829,120989548,1,0.02548677,-0.007115275,-0.0008800749,-0.07108721,-0.1241489,-10.09694,0,0,45.5288,1,1,753,996
9832,120992201,1,0.03425854,-0.006165307,-0.01071205,-0.1051034,-0.110787,-9.977066000000001,0,0,45.5288,1,1,753,996
9835,120993898,1,0.02009634,-0.007282995,-0.02101889,-0.03728341,-0.1300603,-9.812922,0,0,45.52882,1,1,753,996
9870,120996911,1,-0.02806861,-0.01478527,-0.02407713,-0.007470945,-0.1700731,-9.816257,0,0,45.52882,1,1,753,996
9873,120999256,1,-0.08646930999999999,-0.007395634,-0.01171584,-0.06436872,-0.1578787,-9.893456,0,0,45.52882,1,1,753,996
9877,121001637,1,-0.06986325,0.0252513,0.004812665,-0.07813594,-0.02380423,-9.866554000000001,0,0,45.52882,1,1,753,996
9880,121004538,1,0.02781331,0.05326385,0.01629118,-0.01741521,0.013938,-9.648097,0,0,45.52882,1,1,753,996
9915,121007701,1,0.05941667,0.03354199,0.01886462,0.06525812,-0.2605072,-9.42521,0,0,45.52885,1,1,753,996
9921,121009721,1,-0.04557777,-0.01296399,0.006530272,0.06733225,-0.3458512,-9.434521999999999,0,0,45.52885,1,1,753,996
9924,121012287,1,-0.1560336,-0.03374401,-0.003335461,-0.05493529,-0.2130803,-9.581412,0,0,45.52885,1,1,753,996
9928,121015241,1,-0.1063288,-0.009911741999999999,-0.001475812,-0.1295466,-0.0286997,-9.648695999999999,0,0,45.52885,1,1,753,996
9963,121018595,1,0.1108819,0.03612435,0.007305198,-0.1084825,0.09729696,-9.563148,0,0,45.52888,1,1,753,996
9966,121020669,1,0.05618742,0.03367711,0.01206664,-0.0563335,-0.06194655,-9.46454,0,0,45.52888,1,1,753,996
9972,121023401,1,-0.03241396,0.02704313,0.01021505,-0.05299267,-0.0524915,-9.52285,0,0,45.52888,1,1,753,996
9975,121031898,1,0.1687374,0.009574397,-0.02256275,-0.03014608,0.006996109,-9.637352,0,0,45.52891,1,1,753,996
10010,121034651,1,0.04397807,-0.02139131,0.007644008,-0.079166,-0.4118217,-9.781943,0,0,45.52891,1,1,753,996
10013,121037583,1,-0.2100028,0.001443453,0.03598964,-0.1603094,-0.222606,-9.846031,0,0,45.52891,1,1,753,996
10016,121039881,1,-0.2484857,0.03197424,0.03915804,-0.1847904,0.1462732,-9.825533,0,0,45.52893,1,1,753,996
10019,121042509,1,0.1165467,0.05260887,-0.003889462,-0.03907914,0.2610416,-9.743701,0,0,45.52893,1,1,753,996
10054,121045295,1,0.2346156,-0.0286851,-0.03779061,0.07933196000000001,-0.27375,-9.853123,0,0,45.52893,1,1,753,996
10058,121048704,1,-0.0415952,-0.08584907999999999,-0.03725795,0.04971748,-0.4369797,-9.951354,0,0,45.52893,1,1,753,996
10061,121050630,1,-0.2920187,-0.02775056,-0.009136927,-0.103721,0.06599554000000001,-9.875557000000001,0,0,45.52894,1,1,753,996
10066,121053172,1,-0.09780705000000001,0.07621109,0.01539264,-0.03409488,0.645895,-9.83503,0,0,45.52894,1,1,753,996
10101,121056361,1,0.2899157,0.06010632,0.01656277,0.1876095,0.1706132,-10.08968,0,0,45.52894,1,1,753,996
10104,121058370,1,0.2565085,-0.04866723,0.02303304,0.1178244,-0.432323,-10.27905,0,0,45.52894,1,1,753,996
10107,121061068,1,-0.1838982,-0.06864597,0.03806192,-0.1732888,-0.3535083,-10.13179,0,0,45.52895,1,1,753,996
10110,121064013,1,-0.3125386,0.01481876,0.03356874,-0.1542141,0.3032264,-9.80311,0,0,45.52895,1,1,753,996
10145,121067636,1,0.3451014,-0.03472611,-0.03066528,0.1807497,0.5308508,-9.817038999999999,0,0,45.52895,1,1,753,996
10148,121069594,1,0.4121488,-0.08181451000000001,-0.04063514,0.0310169,-0.21048,-10.05577,0,0,45.52895,1,1,753,996
10151,121072031,1,0.07538649,-0.05891573,-0.01730435,-0.3903812,-0.8238305,-10.04784,0,0,45.52896,1,1,753,996
10154,121074820,1,-0.3446255,0.09787654,0.02836589,-0.3792797,-0.3970656,-9.838041,0,0,45.52896,1,1,753,996
10189,121077541,1,-0.1489531,0.11718,0.02610759,-0.01886822,0.3246779,-9.950289,0,0,45.52896,1,1,753,996
10193,121079928,1,0.2953336,-0.06353056,-0.009836944,-0.1774054,-0.2854179,-10.29773,0,0,45.52896,1,1,753,996
10196,121083236,1,0.2857618,-0.1376516,-0.01410086,-0.5137028,-0.8439611,-10.30635,0,0,45.52896,1,1,753,996
10199,121085596,1,-0.1081376,-0.0245145,0.01330093,-0.4429693,-0.684952,-9.993589,0,0,45.52896,1,1,753,996
10234,121088101,1,-0.1461142,0.004997576,0.0008501337,-0.01561058,0.007567471,-9.950237,0,0,45.52896,1,1,753,996
10237,121090846,1,0.1804072,-0.02658446,-0.02419947,-0.3263406,0.02045921,-10.16506,0,0,45.52896,1,1,753,996
10240,121093544,1,0.2780872,0.004040399,-0.02134568,-0.5032713,-0.2151517,-10.22225,0,0,45.52896,1,1,753,996
10243,121096493,1,0.06917485,0.07120579,0.01713939,-0.3013424,-0.3773776,-10.14136,0,0,45.52896,1,1,753,996
10278,121099562,1,-0.1304465,-0.02678222,0.0161158,-0.0564747,-0.1996697,-9.850061,0,0,45.52896,1,1,753,996
10282,121101641,1,-0.1289497,-0.06848098,0.006738878,-0.3485648,0.08147836,-9.783834000000001,0,0,45.52896,1,1,753,996
10285,121104497,1,0.1860977,-0.02396288,-0.007983560000000001,-0.4441066,0.2128078,-9.776673000000001,0,0,45.52897,1,1,753,996
10288,121106856,1,0.2562265,0.00322459,-0.006580738,-0.2910982,-0.1301864,-9.743092000000001,0,0,45.52897,1,1,753,996
10323,121109845,1,0.1389327,0.03369757,0.007253686,-0.2762252,-0.5799816,-9.764965,0,0,45.52897,1,1,753,996
10327,121112518,1,-0.2005205,0.01472148,0.02111816,-0.3174847,-0.1527582,-9.737379000000001,0,0,45.52897,1,1,753,996
10331,121114555,1,-0.1503643,0.00725831,0.01630581,-0.3105837,0.1428883,-9.576511999999999,0,0,45.52897,1,1,753,996
10337,121117286,1,0.2275392,0.01375991,-0.001153193,-0.3330988,-0.09550305000000001,-9.499518999999999,0,0,45.52899,1,1,753,996
10372,121120276,1,0.1594544,0.015224,-0.001310626,-0.1876005,-0.4098208,-9.722460999999999,0,0,45.52899,1,1,753,996
10376,121122548,1,0.02182445,-0.007884591999999999,0.001768136,-0.03865661,-0.3802903,-9.606871,0,0,45.52899,1,1,753,996
10379,121125504,1,-0.2026017,-0.06057237,0.006382155,-0.07313600000000001,-0.1446316,-9.371893999999999,0,0,45.52899,1,1,753,996
10382,121127643,1,-0.1410507,-0.04112018,0.01241743,-0.1513674,0.12803,-9.439106000000001,0,0,45.52903,1,1,753,996
10417,121130307,1,0.1452091,0.01984345,0.01712765,-0.1025417,0.2688937,-9.426861000000001,0,0,45.52903,1,1,753,996
10421,121133362,1,0.1727541,0.05320944,0.03101539,-0.08120374,-0.09749881000000001,-9.152575000000001,0,0,45.52903,1,1,753,996
10424,121135922,1,0.0147333,0.04554394,0.03344879,-0.03446368,-0.4414957,-8.917958,0,0,45.52903,1,1,753,996
10427,121137823,1,-0.2658713,-0.01576092,0.02187968,-0.04030686,0.09864379,-9.161023,0,0,45.52903,1,1,753,996
10462,121140353,1,0.01614357,-0.04214669,-0.01178428,-0.2972044,0.3444776,-9.269201000000001,0,0,45.52903,1,1,753,996
10465,121143515,1,0.1715732,-0.02309063,-0.007304841,-0.3225831,-0.0371107,-9.25773,0,0,45.52903,1,1,753,996
10468,121146020,1,0.2138916,0.01083436,0.01932277,-0.153152,-0.5016546,-9.28632,0,0,45.52903,1,1,753,996
10471,121149036,1,-0.06864331,-0.01375116,0.03582678,0.02182169,-0.653409,-9.251390000000001,0,0,45.529,1,1,753,996
10506,121152124,1,-0.1860821,-0.04447437,0.022606,-0.1170416,-0.1234234,-9.210222,0,0,45.529,1,1,753,996
10510,121154576,1,-0.08700239999999999,-0.02573746,0.01686229,-0.1229092,-0.08447823,-9.370055000000001,0,0,45.529,1,1,753,996
10514,121156929,1,0.1497578,0.0462051,-0.006904489,-0.1262446,-0.2926223,-9.751642,0,0,45.529,1,1,753,996
10517,121160570,1,0.09753145000000001,0.04323335,-0.009998595000000001,-0.1000662,-0.5286844000000001,-9.845583,0,0,45.52892,1,1,753,996
10520,121161996,1,-0.2312435,-0.05535842,0.01816765,-0.06156893,-0.5566192,-9.809752,0,0,45.52892,1,1,753,996
10556,121165329,1,-0.19877,-0.03774613,0.03121424,-0.3369575,-0.04660762,-9.898861,0,0,45.52892,1,1,753,996
10559,121167137,1,-0.05867771,-0.006061423,0.03245986,-0.3594461,0.1849815,-9.961684999999999,0,0,45.52892,1,1,753,996
10562,121170460,1,0.2051878,0.01096839,0.02769073,-0.1832719,-0.06532689999999999,-10.00748,0,0,45.52892,1,1,753,996
10565,121172397,1,0.09320486,-0.01991174,0.01243969,-0.1503323,-0.6322726,-10.05383,0,0,45.52881,1,1,753,996
10600,121175322,1,-0.2583656,-0.00328314,-0.009606213000000001,-0.2789611,-0.2342969,-10.08313,0,0,45.52881,1,1,753,996
10603,121177794,1,-0.2671035,0.007897859,-0.02482947,-0.1121678,0.2840879,-10.15718,0,0,45.52881,1,1,753,996
10606,121181381,1,0.06187779,-0.0213533,-0.03018827,-0.01429162,0.2196351,-10.28084,0,0,45.52881,1,1,753,996
10609,121183544,1,0.190657,0.03846913,-0.009306052,-0.2576247,-0.190214,-10.20257,0,0,45.52867,1,1,753,996
10644,121186287,1,-0.1260869,0.06317563,0.0338449,0.2099342,-0.1264703,-10.11419,0,0,45.52867,1,1,753,996
10648,121188615,1,-0.2601772,-0.05950898,0.02882078,0.4264224,-0.1014565,-10.0928,0,0,45.52867,1,1,753,996
10651,121191669,1,-0.2326096,-0.06644746,0.01909448,-0.1078874,0.1124852,-10.06848,0,0,45.52867,1,1,753,996
10654,121194530,1,0.01676506,0.02391212,0.006662044,-0.1795067,0.4143839,-10.03969,0,0,45.52848,1,1,753,996
10689,121197330,1,0.1986215,0.005245299,0.01143873,0.3028603,-0.3116553,-9.862059,0,0,45.52848,1,1,753,996
10693,121199712,1,0.05624885,-0.02112068,0.008596748,-0.03820264,-0.6935401,-9.757721999999999,0,0,45.52848,1,1,753,996
10696,121202608,1,-0.2892541,0.04450835,-0.01583933,-0.2751486,-0.08672892,-9.823248,0,0,45.52848,1,1,753,996
10699,121205274,1,-0.1879951,0.04457001,-0.03053631,-0.02775123,0.375362,-9.939587,0,0,45.52827,1,1,753,996
10734,121207919,1,0.2035607,0.03720122,-0.04803189,-0.1935548,-0.1529259,-9.946529,0,0,45.52827,1,1,753,996
10737,121210517,1,0.1019183,0.07050843,-0.02033948,-0.1447611,-0.3408527,-9.800281999999999,0,0,45.52827,1,1,753,996
10740,121213344,1,-0.1412974,0.004177758,0.004996068,0.2524548,-0.1626313,-9.622802,0,0,45.52827,1,1,753,996
10743,121216405,1,-0.2035196,-0.0443917,0.003650139,0.08573321,-0.02460923,-9.657021,0,0,45.52802,1,1,753,996
10746,121218408,1,-0.0113765,0.0425166,-0.007032061,-0.2390781,0.2950236,-9.923074,0,0,45.52802,1,1,753,996
10781,121221140,1,0.1767444,0.05663935,-0.01486602,0.2780876,0.09897421000000001,-10.11463,0,0,45.52802,1,1,753,996
10788,121223810,1,0.05516404,-0.01552473,-0.01865619,0.3688124,-0.425547,-10.12822,0,0,45.52802,1,1,753,996
10791,121226844,1,-0.2334488,-0.01994681,-0.009705396999999999,0.05051609,-0.417295,-9.866156999999999,0,0,45.52774,1,1,753,996
10795,121229304,1,-0.2207551,0.006912128,-0.005098577,0.2008629,0.1405448,-9.525570999999999,0,0,45.52774,1,1,753,996
10830,121231883,1,0.1020254,-0.001122204,-0.01892041,0.1405431,-0.1125094,-9.557651999999999,0,0,45.52774,1,1,753,996
10833,121234636,1,0.2427095,0.03541785,-0.03344906,-0.06816603,-0.4814773,-9.713702,0,0,45.52774,1,1,753,996
10838,121237942,1,-0.01188017,0.033354,-0.02903385,0.08288776,-0.6892895999999999,-9.747092,0,0,45.52746,1,1,753,996
10841,121243353,1,0.004062464,-0.01748795,-0.01373331,-0.2485136,0.2727083,-9.456794,0,0,45.52746,1,1,753,996
10877,121246164,1,0.2659044,0.01772107,0.009935088,-0.001100827,-0.01893857,-9.020068999999999,0,0,45.52746,1,1,753,996
10881,121248561,1,0.2534631,0.01777961,0.01663643,0.1539939,-0.2961643,-9.015793,0,0,45.52718,1,1,753,996
10885,121251343,1,-0.1602255,0.003603841,0.01090484,0.02166117,-0.05711196,-9.261933000000001,0,0,45.52718,1,1,753,996
10889,121256650,1,0.05077623,-0.008615908,-0.01178748,0.1032367,0.5363293,-9.513634,0,0,45.52718,1,1,753,996
10924,121259559,1,0.3368166,0.009283236,-0.0166963,-0.01476111,0.3528428,-9.55569,0,0,45.52689,1,1,753,996
10928,121263274,1,0.1971281,0.01399148,0.006486015,0.05059452,-0.3356198,-9.166055999999999,0,0,45.52689,1,1,753,996
10931,121265342,1,-0.1769956,-0.01498604,0.01932072,0.1600967,-0.1729314,-9.312251,0,0,45.52689,1,1,753,996
10934,121267350,1,-0.1910568,-0.0142532,-0.00514804,-0.08523855,0.2996694,-9.673322000000001,0,0,45.52689,1,1,753,996
10969,121269914,1,0.1179188,0.02213538,-0.01940755,-0.2989779,0.2868465,-9.813475,0,0,45.52658,1,1,753,996
10973,121272381,1,0.3045832,0.01414777,-0.009855141,-0.1060876,-0.07395712,-9.843149,0,0,45.52658,1,1,753,996
10976,121275286,1,0.1560983,-0.02947749,-0.003345917,0.0356366,-0.4072969,-9.826656,0,0,45.52658,1,1,753,996
10979,121280404,1,-0.1691409,-0.006566431,0.007413531,-0.07473734999999999,0.05155654,-9.343811000000001,0,0,45.52625,1,1,753,996
11014,121283415,1,0.1348313,0.03703804,-0.009475466,-0.1205568,0.3118999,-9.920741,0,0,45.52625,1,1,753,996
11018,121286383,1,0.2872116,0.05851467,-0.003041016,-0.252417,-0.2877535,-10.09,0,0,45.52625,1,1,753,996
11021,121288884,1,0.07845926,0.04058933,0.02175418,-0.1256711,-0.5323114,-10.03841,0,0,45.52625,1,1,753,996
11024,121290929,1,-0.1412795,0.008761956,0.02769148,-0.0412113,-0.1453796,-10.04059,0,0,45.52589,1,1,753,996
11059,121293591,1,-0.1301596,0.009480443,0.02351333,-0.1462117,0.1482591,-9.920983,0,0,45.52589,1,1,753,996
11062,121295949,1,0.2144758,0.03469111,0.01289042,-0.1390306,0.03122531,-9.829782,0,0,45.52589,1,1,753,996
11065,121299307,1,0.2682392,0.05853324,0.007755424,-0.1331342,-0.2355916,-10.05949,0,0,45.52589,1,1,753,996
11068,121301289,1,0.1186407,0.1024516,0.004438452,-0.1127254,-0.3534228,-10.213,0,0,45.52589,1,1,753,996
11103,121304415,1,-0.1574339,0.0240453,0.02284705,0.07077833,-0.05085313,-9.886278000000001,0,0,45.52554,1,1,753,996
11106,121306496,1,-0.1116832,-0.008504263999999999,0.02109697,0.05181567,0.2192377,-9.723589,0,0,45.52554,1,1,753,996
11109,121309520,1,0.272386,-0.001618646,0.01196343,0.03071289,0.3009588,-9.644921999999999,0,0,45.52554,1,1,753,996
11112,121311684,1,0.2932853,0.003097843,0.01937912,0.1703844,-0.1311846,-9.594314000000001,0,0,45.52554,1,1,753,996
11147,121314612,1,0.0123865,0.01669364,0.03428519,0.1447589,-0.6631553,-9.712524,0,0,45.52519,1,1,753,996
11151,121317496,1,-0.2936791,0.0676716,0.01136619,0.00613708,0.02818882,-9.837770000000001,0,0,45.52519,1,1,753,996
11154,121319562,1,-0.1460934,0.0503924,-0.004390869,0.07008723,0.4323104,-9.686975,0,0,45.52519,1,1,753,996
11157,121322835,1,0.2118982,-0.002021455,-0.02108582,0.03774675,0.07295657999999999,-9.356797,0,0,45.52519,1,1,753,996
11192,121325306,1,0.1367927,-0.02203062,-0.007407037,0.04439909,-0.3353416,-9.389158999999999,0,0,45.52486,1,1,753,996
11196,121327923,1,-0.2462425,-0.03823356,0.02424004,0.094586,-0.4421567,-9.60655,0,0,45.52486,1,1,753,996
11202,121330867,1,-0.3834864,-0.03302468,0.03641313,-0.0885826,-0.2585577,-9.788876999999999,0,0,45.52486,1,1,753,996
11205,121333336,1,-0.02080522,0.05761044,0.01454039,-0.1916571,0.4154586,-10.03032,0,0,45.52486,1,1,753,996
11241,121336137,1,0.3278231,0.01190393,0.001247258,0.1026154,-0.08459149000000001,-9.816122,0,0,45.52455,1,1,753,996
11245,121338493,1,0.1335013,-0.05472847,0.0003540934,0.1759212,-0.6900108,-9.630573,0,0,45.52455,1,1,753,996
11248,121341662,1,-0.2737742,-0.06443147,-0.0009194178,0.153657,-0.4866192,-9.643857000000001,0,0,45.52455,1,1,753,996
11251,121344038,1,-0.3723225,-0.04950328,0.0006973417,0.09479116999999999,-0.03035239,-9.702807,0,0,45.52455,1,1,753,996
11286,121346844,1,-0.02117324,0.05000914,0.008348194,-0.04422635,0.2519015,-9.775722,0,0,45.52425,1,1,753,996
11290,121349515,1,0.2714313,0.049633,0.001639141,0.07052491,0.009105814,-9.774960999999999,0,0,45.52425,1,1,753,996
11293,121352370,1,0.1002371,-0.02513262,0.002061539,0.179214,-0.5039968,-9.653062,0,0,45.52425,1,1,753,996
11296,121354552,1,-0.273099,-0.06380179,-0.001463372,0.06435586,-0.4094865,-9.630025,0,0,45.52425,1,1,753,996
11331,121357618,1,-0.3197761,-0.02785897,-0.007405248,-0.08398936999999999,0.2035596,-9.793418000000001,0,0,45.52396,1,1,753,996
11334,121359632,1,-0.1803933,0.001672141,-0.005707187,-0.06842773000000001,0.3260131,-9.817008,0,0,45.52396,1,1,753,996
11337,121362395,1,0.2211347,0.05220516,0.004829214,-0.015562,-0.1406527,-9.669483,0,0,45.52396,1,1,753,996
11340,121365333,1,0.164106,0.04633123,0.009549396,0.0122649,-0.2810476,-9.597761,0,0,45.52396,1,1,753,996
11375,121369164,1,-0.2352352,-0.03633044,0.01498032,0.0637759,-0.1066485,-9.512617000000001,0,0,45.52396,1,1,753,996
11378,121370880,1,-0.2086191,-0.0481079,0.001240652,-0.09723575,0.01425137,-9.631015,0,0,45.5237,1,1,753,996
11382,121373413,1,0.02646357,0.01382485,-0.009848052,-0.1893696,0.04711269,-9.927856999999999,0,0,45.5237,1,1,753,996
11385,121376057,1,0.165202,0.05222076,-0.01330879,-0.0387947,-0.1982978,-9.929786,0,0,45.5237,1,1,753,996
11420,121379097,1,0.0187965,0.03494126,-0.01117606,-0.04011651,-0.3239228,-9.747206,0,0,45.5237,1,1,753,996
11423,121382478,1,-0.1501394,-0.01014515,-0.01325375,-0.03153324,-0.03972936,-9.766378,0,0,45.52343,1,1,753,996
11427,121384266,1,-0.09695657000000001,-0.03355147,-0.009510407,-0.07133370999999999,0.1975522,-9.842644,0,0,45.52343,1,1,753,996
11430,121386407,1,0.08340262,0.001241645,0.005744965,-0.1353489,0.08581466,-9.895049999999999,0,0,45.52343,1,1,753,996
11465,121388949,1,0.1622891,0.04370706,0.0167636,-0.04585652,-0.05547936,-9.921058,0,0,45.52343,1,1,753,996
11468,121391863,1,0.04301348,0.03382956,0.01275777,0.01575941,-0.08896421,-9.77045,0,0,45.52317,1,1,753,996
11471,121394077,1,-0.03029882,-0.007764105,-0.01308562,-0.03356797,0.1761147,-9.708546999999999,0,0,45.52317,1,1,753,996
11474,121396198,1,0.0008416091,-0.0249804,-0.02776343,-0.1217801,0.317347,-9.887657000000001,0,0,45.52317,1,1,753,996
11509,121398893,1,0.1313365,0.007095827,-0.02898918,-0.1901282,0.1526739,-10.23513,0,0,45.52317,1,1,753,996
11512,121401322,1,0.1411895,0.02773235,-0.01999802,-0.1479064,0.1232359,-10.42239,0,0,45.52317,1,1,753,996
11515,121404530,1,0.08877489,0.04823975,-0.003060453,-0.1149827,0.1405219,-10.42863,0,0,45.52291,1,1,753,996
11520,121407516,1,0.03098498,0.04992678,0.008394031,-0.09657688,0.1824207,-10.15103,0,0,45.52291,1,1,753,996
11523,121409376,1,0.0841119,0.02011593,0.002273713,-0.0337725,0.1801715,-10.1841,0,0,45.52291,1,1,753,996
11560,121412026,1,0.1020862,0.001015721,-0.003976984,-0.08434629,-0.1895159,-10.35257,0,0,45.52291,1,1,753,996
11564,121414710,1,0.03961507,0.0218931,-0.001836832,-0.1262575,-0.3019229,-10.4426,0,0,45.52264,1,1,753,996
11567,121423485,1,0.09250841,0.001152475,-0.01425126,-0.08713596999999999,-0.375529,-9.918525000000001,0,0,45.52264,1,1,753,996
11604,121426347,1,-0.0262607,-0.005655419,-0.005368391,-0.0528032,-0.4224564,-9.827538000000001,0,0,45.52238,1,1,753,996
11608,121429392,1,-0.07898244,0.01633229,0.006109719,0.007539633,-0.1261561,-9.731025000000001,0,0,45.52238,1,1,753,996
11611,121431996,1,0.01824376,0.02103164,0.00755568,0.0482013,0.006533375,-9.601803,0,0,45.52238,1,1,753,996
11614,121433935,1,0.1453227,-0.00141463,0.004111254,0.009978351999999999,-0.1605722,-9.629519999999999,0,0,45.52238,1,1,753,996
11652,121437323,1,0.07251035,-0.006669763,0.008168943999999999,-0.09002256,-0.4294814,-9.767982999999999,0,0,45.52213,1,1,753,996
11656,121439043,1,-0.1041161,0.01483471,0.01191712,-0.09366197,-0.3507042,-9.830638,0,0,45.52213,1,1,753,996
11660,121441708,1,-0.135797,0.03155279,0.01169154,-0.1073078,-0.1224536,-9.889303999999999,0,0,45.52213,1,1,753,996
11663,121444537,1,0.07367914,0.03165983,0.00137001,-0.09783459,0.03422733,-9.878458,0,0,45.52213,1,1,753,996
11698,121447835,1,0.1685556,-0.009853059000000001,-0.002049489,-0.1990946,-0.3675931,-10.05345,0,0,45.52188,1,1,753,996
11702,121450066,1,-0.02066007,-0.008659841,0.007809736,-0.2535376,-0.5960619,-10.03781,0,0,45.52188,1,1,753,996
11705,121452479,1,-0.2142412,-0.002278007,0.01632755,-0.1468822,-0.3531427,-9.908041000000001,0,0,45.52188,1,1,753,996
11708,121455390,1,-0.1071294,0.008618921999999999,0.007936214,-0.1087557,0.09309708999999999,-9.75394,0,0,45.52188,1,1,753,996
11743,121458539,1,0.1222489,-0.006724756,-0.0003707945,-0.1404168,-0.1144214,-9.719224000000001,0,0,45.52165,1,1,753,996
11746,121460938,1,0.1008372,0.02018381,0.009503138,-0.2022027,-0.3958649,-9.831936000000001,0,0,45.52165,1,1,753,996
11749,121463096,1,-0.1495563,0.04485641,0.01417092,-0.08955733,-0.3693344,-9.824126,0,0,45.52165,1,1,753,996
11752,121466134,1,-0.2470755,0.03129983,0.01265615,0.01048363,-0.1011692,-9.751718,0,0,45.52165,1,1,753,996
11787,121468977,1,-0.05014949,-0.03904483,-0.008542459000000001,-0.06987947,0.09327613999999999,-9.918438,0,0,45.52146,1,1,753,996
11791,121471981,1,0.1293469,-0.05163385,0.001806728,-0.1787287,-0.2460866,-10.04762,0,0,45.52146,1,1,753,996
11794,121473903,1,0.007744083,0.03089288,0.02613551,-0.1314862,-0.6028859,-10.13582,0,0,45.52146,1,1,753,996
11797,121476539,1,-0.2693803,0.05101844,0.03069508,0.04721887,-0.5044182,-9.973701,0,0,45.52146,1,1,753,996
11832,121480330,1,-0.2780671,0.008305804,0.01093315,0.09652816,0.003068271,-9.891544,0,0,45.5213,1,1,753,996
11835,121482023,1,-0.01748203,-0.05198636,-0.009559296,-0.1928897,-0.07433866,-9.918384,0,0,45.5213,1,1,753,996
11838,121485611,1,0.08782532,0.03051221,0.01053493,-0.3648255,-0.3863407,-9.974662,0,0,45.5213,1,1,753,996
11841,121487290,1,-0.1152424,0.1061248,0.0290483,-0.1655942,-0.4620003,-9.894556,0,0,45.5213,1,1,753,996
11876,121490478,1,-0.3208719,0.05305719,0.0231766,-0.03517538,0.1197772,-9.727221,0,0,45.52117,1,1,753,996
11880,121492528,1,-0.1803742,-0.06349347,-0.005377829,-0.2549852,0.448865,-9.687564,0,0,45.52117,1,1,753,996
11883,121495049,1,0.06716601,-0.02369724,-0.006839176,-0.6006825,0.4823757,-9.665901,0,0,45.52117,1,1,753,996
11886,121498325,1,0.0998477,0.1072344,0.01392142,-0.4129846,0.3992936,-9.625011000000001,0,0,45.52117,1,1,753,996
11921,121501324,1,-0.1706341,0.0304543,0.01045654,0.08080730999999999,0.6971522,-9.464331,0,0,45.52106,1,1,753,996
11925,121503618,1,-0.1719518,-0.0448687,-9.587724999999999e-05,-0.06985615000000001,1.015892,-9.529215000000001,0,0,45.52106,1,1,753,996
11929,121505920,1,-0.009148796000000001,-0.08218542,-0.003736951,-0.4586425,1.130453,-9.65348,0,0,45.52106,1,1,753,996
11932,121508541,1,0.1918803,0.06285706000000001,0.02029314,-0.3303594,0.9211138,-9.713101999999999,0,0,45.52106,1,1,753,996
11967,121511980,1,0.156907,0.1062807,0.0281473,0.1788152,0.5438797,-9.582527000000001,0,0,45.52106,1,1,753,996
11970,121514354,1,-0.0628735,-0.06650198,-0.003387137,0.08297511,0.4356368,-9.666717,0,0,45.52098,1,1,753,996
11973,121516380,1,-0.08027985999999999,-0.07804611,-0.005143549,-0.2407722,0.4889351,-9.722901999999999,0,0,45.52098,1,1,753,996
11976,121519091,1,0.05893033,0.04097507,0.00761496,-0.2725765,0.5101369,-9.773078999999999,0,0,45.52098,1,1,753,996
12011,121522251,1,0.237007,0.04373966,0.006152436,0.2636143,0.1194751,-9.704432000000001,0,0,45.52098,1,1,753,996
12015,121524543,1,0.1942252,-0.03578014,-0.003831598,0.2632184,-0.2066063,-9.870953,0,0,45.52088,1,1,753,996
12018,121527360,1,-0.04379589,-0.1255853,-0.005043796,-0.230865,-0.1461734,-10.0571,0,0,45.52088,1,1,753,996
12021,121529281,1,-0.123671,-0.01826651,0.01800255,-0.3301873,0.2617518,-10.15069,0,0,45.52088,1,1,753,996
12056,121531692,1,0.06384144,0.06593736,0.02773288,0.07267031,0.4535106,-10.19668,0,0,45.52088,1,1,753,996
12060,121534871,1,0.2568597,-0.01368384,0.004619023,0.1045353,0.1754763,-10.41311,0,0,45.52076,1,1,753,996
12063,121536811,1,0.09761317,-0.0296733,-0.004824448,-0.4933646,-0.1846008,-10.42169,0,0,45.52076,1,1,753,996
12066,121539862,1,-0.03544734,0.03525914,0.004461705,-0.6711215,0.02873058,-10.36144,0,0,45.52076,1,1,753,996
12104,121542601,1,-0.06982534999999999,0.1642067,0.02168503,-0.1985529,0.4248462,-10.18127,0,0,45.52076,1,1,753,996
12107,121545109,1,0.200732,0.003719578,-0.009446071,-0.199659,0.14535,-10.20159,0,0,45.52062,1,1,753,996
12111,121548198,1,0.2036999,-0.03266411,-0.01165947,-0.6968545,-0.2049716,-10.06314,0,0,45.52062,1,1,753,996
12114,121550409,1,-0.0174646,0.1233428,0.02887417,-0.861142,-0.1856614,-9.827838,0,0,45.52062,1,1,753,996
12149,121553109,1,-0.1041007,0.1741363,0.04793905,-0.0984339,0.1552612,-9.729037999999999,0,0,45.52062,1,1,753,996
12152,121555786,1,-0.03575846,0.09153380999999999,0.03536849,0.05555633,0.1320465,-9.8424,0,0,45.52062,1,1,753,996
12155,121558591,1,0.09412181999999999,-0.02618141,0.007914890000000001,-0.5050006,-0.1522419,-9.928487000000001,0,0,45.52046,1,1,753,996
12158,121561261,1,0.02497063,0.08508193,0.02396836,-0.2682353,-0.1413973,-9.906309,0,0,45.52046,1,1,753,996
12193,121564094,1,-0.05932717,0.1051777,0.03227558,0.5084143,0.03860405,-9.966697,0,0,45.52046,1,1,753,996
12197,121566531,1,-0.009219710000000001,-0.07277586,0.00377244,0.3656207,0.03854685,-9.975409000000001,0,0,45.52046,1,1,753,996
12200,121569358,1,0.05084395,-0.07342087999999999,0.002593333,-0.1390482,0.0301218,-10.02011,0,0,45.52028,1,1,753,996
12203,121571950,1,0.06511817,0.08357376,0.03528185,-0.1141424,0.1630125,-10.21237,0,0,45.52028,1,1,753,996
12238,121574989,1,0.06763908,0.05785295,0.04021777,0.6241639,0.172581,-10.5402,0,0,45.52028,1,1,753,996
12242,121577302,1,0.05178645,-0.09326428,0.009858435,0.2015669,0.004370809,-10.58764,0,0,45.52028,1,1,753,996
12246,121579830,1,-0.0131029,-0.0546564,0.01318842,-0.1432182,0.06621661,-10.49652,0,0,45.52008,1,1,753,996
12249,121583281,1,0.01388784,0.06934053,0.03457016,0.3514318,0.3120915,-10.38626,0,0,45.52008,1,1,753,996
12252,121584897,1,0.1374003,-0.03267246,0.02316534,0.7699316,0.07240665,-10.34115,0,0,45.52008,1,1,753,996
12287,121589022,1,0.1350265,-0.1283239,-0.0002237008,0.1238459,-0.2869407,-10.24956,0,0,45.52008,1,1,753,996
12290,121590903,1,-0.01453939,-0.04128872,0.02113222,-0.001693865,-0.1582709,-10.26262,0,0,45.51991,1,1,753,996
12293,121593368,1,-0.03944499,0.03000693,0.047551,0.5202805,0.08568172,-10.4664,0,0,45.51991,1,1,753,996
12296,121595803,1,0.1149988,-0.1073238,0.03303611,0.5217056,-0.01131312,-10.51423,0,0,45.51991,1,1,753,996
12332,121598951,1,0.1421597,-0.1412798,0.02114463,-0.05403554,-0.2754453,-10.51972,0,0,45.51991,1,1,753,996
12335,121601499,1,0.03075473,-0.02354374,0.04711612,0.1432712,-0.1009453,-10.69812,0,0,45.51974,1,1,753,996
12338,121603620,1,-0.02090655,-0.01592687,0.06500728,0.4844635,0.03941337,-10.79805,0,0,45.51974,1,1,753,996
12341,121605940,1,0.06073669,-0.09889802,0.04973315,0.101051,-0.06969717,-10.83421,0,0,45.51974,1,1,753,996
12376,121608518,1,0.08925796,-0.07320829,0.04808946,-0.2716327,-0.1530813,-10.92,0,0,45.51974,1,1,753,996
12379,121611074,1,0.07079103,0.006528984,0.05995699,-0.04524224,-0.09618691,-11.26259,0,0,45.51959,1,1,753,996
12382,121614073,1,0.06199124,-0.05483491,0.05676752,0.1913351,-0.1296029,-11.32896,0,0,45.51959,1,1,753,996
12385,121616159,1,0.02308145,-0.1021099,0.04826899,-0.1595008,-0.284932,-11.25342,0,0,45.51959,1,1,753,996
12423,121619616,1,0.01057871,-0.05726578,0.05746438,-0.2531977,-0.06563172,-11.26317,0,0,45.51959,1,1,753,996
12426,121621503,1,0.03506108,-0.03799891,0.06379169,0.0240253,0.02152154,-11.256,0,0,45.51959,1,1,753,996
12429,121623935,1,0.1222474,-0.06836426,0.06824051,0.09749172,-0.09781682,-11.17476,0,0,45.51944,1,1,753,996
12432,121633075,1,0.05804642,-0.03847831,0.07124062,0.1336452,0.007074755,-11.67614,0,0,45.51929,1,1,753,996
12467,121635944,1,0.0711136,-0.04784544,0.05244898,0.06092976,-0.1836976,-11.87409,0,0,45.51929,1,1,753,996
12471,121639138,1,0.03757806,-0.03727623,0.05195676,0.2232109,-0.07188678,-11.95009,0,0,45.51929,1,1,753,996
12474,121641490,1,0.02464118,-0.05592387,0.0661482,0.3149474,0.03519733,-11.84431,0,0,45.51929,1,1,753,996
12477,121643570,1,0.03694713,-0.04895358,0.07324493999999999,0.2268516,0.01032246,-11.83768,0,0,45.51929,1,1,753,996
12512,121646336,1,0.0358629,-0.03966007,0.08837125,0.309325,0.2458907,-11.93711,0,0,45.51916,1,1,753,996
12520,121649148,1,0.08786868,-0.06734096000000001,0.09121285,0.2495493,0.4195993,-11.87177,0,0,45.51916,1,1,753,996
12523,121652045,1,0.09647794,-0.05889104,0.0899443,0.02016337,0.3325195,-11.88704,0,0,45.51916,1,1,753,996
12528,121654071,1,0.03983465,-0.03586866,0.08875985,-0.07254749000000001,0.3843111,-12.10966,0,0,45.51916,1,1,753,996
12563,121657485,1,0.04455268,-0.05358441,0.07667169,-0.09327447,0.5543561,-12.21446,0,0,45.51903,1,1,753,996
12567,121659713,1,0.07597581,-0.05468675,0.07476194,-0.2866277,0.4229615,-12.25959,0,0,45.51903,1,1,753,996
12570,121662569,1,0.08167381999999999,-0.0233951,0.07889775,-0.355381,0.1900595,-12.45143,0,0,45.51903,1,1,753,996
12573,121664492,1,0.02315136,-0.003191055,0.0890653,-0.2086396,0.2574286,-12.50787,0,0,45.51903,1,1,753,996
12608,121667710,1,0.03308912,-0.02705221,0.09656006,-0.2070283,0.2856481,-12.41582,0,0,45.5189,1,1,753,996
12612,121669950,1,0.07234591999999999,-0.02018598,0.1060955,-0.1624181,0.135142,-12.51508,0,0,45.5189,1,1,753,996
12615,121672888,1,0.05798418,-0.02396853,0.1115504,0.05943747,0.2106931,-12.58514,0,0,45.5189,1,1,753,996
12618,121675571,1,0.06747731999999999,-0.04438368,0.1091221,0.1873546,0.3409516,-12.52737,0,0,45.5189,1,1,753,996
12653,121678523,1,0.07222686,-0.0310687,0.1126091,0.1471848,0.2937163,-12.56441,0,0,45.51877,1,1,753,996
12656,121681015,1,0.05865444,-0.02944675,0.1169819,0.2900518,0.4775853,-12.5801,0,0,45.51877,1,1,753,996
12659,121683391,1,0.08478608999999999,-0.04019342,0.115979,0.2069772,0.5296312,-12.52483,0,0,45.51877,1,1,753,996
12662,121686913,1,0.1265437,-0.03067386,0.1213629,-0.01962341,0.352723,-12.64984,0,0,45.51877,1,1,753,996
12697,121689877,1,0.09923920999999999,-0.0323165,0.1186808,0.06050076,0.4184695,-12.84179,0,0,45.51864,1,1,753,996
12701,121692075,1,0.118808,-0.04863197,0.1153743,-0.04844111,0.3917904,-12.89697,0,0,45.51864,1,1,753,996
12704,121694392,1,0.1276993,-0.03368676,0.1235202,-0.1539209,0.2334729,-13.07035,0,0,45.51864,1,1,753,996
12707,121697841,1,0.1054255,-0.02685972,0.1320076,-0.07804769,0.2037932,-13.17142,0,0,45.51864,1,1,753,996
12742,121700722,1,0.1148062,-0.02398223,0.1317217,-0.1072772,0.1563206,-12.90035,0,0,45.51854,1,1,753,996
12745,121703351,1,0.1198682,-0.007372849,0.1331912,-0.08563456,-0.04098681,-12.91609,0,0,45.51854,1,1,753,996
12748,121706038,1,0.09829878,-0.0311172,0.1325087,0.06096866,-0.02293386,-12.95195,0,0,45.51854,1,1,753,996
12751,121708556,1,0.09934381,-0.06775559,0.1261142,-0.02731311,-0.03844626,-12.90428,0,0,45.51854,1,1,753,996
12786,121711415,1,0.1022262,-0.05101375,0.1292427,-0.1721538,-0.1364591,-13.23521,0,0,45.51846,1,1,753,996
12790,121713870,1,0.0924948,-0.03767733,0.1347207,-0.08774037,-0.05145211,-13.43482,0,0,45.51846,1,1,753,996
12793,121716497,1,0.1041546,-0.04313164,0.1317015,-0.2044671,0.02449397,-13.4034,0,0,45.51846,1,1,753,996
12796,121719576,1,0.1069386,-0.02075987,0.1373585,-0.3595968,0.0180712,-13.58154,0,0,45.51846,1,1,753,996
12831,121722387,1,0.1078479,-0.02953841,0.1533993,-0.1972691,0.2894239,-13.57563,0,0,45.5184,1,1,753,996
12837,121724911,1,0.1299302,-0.043765,0.1553847,-0.2847002,0.3558843,-13.33843,0,0,45.5184,1,1,753,996
12840,121728327,1,0.1644695,-0.04368292,0.1620645,-0.4388471,0.307669,-13.29597,0,0,45.5184,1,1,753,996
12843,121730484,1,0.1557312,-0.05469116,0.1661081,-0.2400938,0.4557804,-13.34236,0,0,45.5184,1,1,753,996
12878,121733374,1,0.1637021,-0.05907892,0.1605928,-0.3480201,0.4221474,-13.21787,0,0,45.51831,1,1,753,996
12881,121735930,1,0.1767477,-0.02549607,0.1623329,-0.3770225,0.3902864,-13.41574,0,0,45.51831,1,1,753,996
12884,121738392,1,0.2132067,-0.04153052,0.162035,-0.06294926000000001,0.4759415,-13.62691,0,0,45.51831,1,1,753,996
12887,121741104,1,0.2344497,-0.06585062999999999,0.1600543,-0.05005636,0.3281902,-13.47681,0,0,45.51831,1,1,753,996
12922,121744590,1,0.1776614,-0.04283235,0.1672262,-0.07304985,0.06906169,-13.55201,0,0,45.5182,1,1,753,996
12926,121746517,1,0.1425739,-0.04193421,0.1732052,0.07282898,0.1817393,-13.58136,0,0,45.5182,1,1,753,996
12930,121748919,1,0.1646777,-0.04855129,0.1742938,-0.1440793,-0.08762047000000001,-13.44229,0,0,45.5182,1,1,753,996
12933,121751338,1,0.1410022,-0.009486569,0.177441,-0.3108546,-0.2867621,-13.56661,0,0,45.5182,1,1,753,996
12968,121754629,1,0.1110866,-0.01379906,0.1744955,-0.1367834,-0.1077742,-13.70699,0,0,45.51806,1,1,753,996
12974,121757264,1,0.1107796,-0.06500544,0.1688577,-0.1504316,-0.1354645,-13.50507,0,0,45.51806,1,1,753,996
12977,121759306,1,0.06025404,-0.07229960000000001,0.1711625,-0.3070593,-0.3338211,-13.40589,0,0,45.51806,1,1,753,996
12981,121762089,1,0.04429298,-0.07885292000000001,0.1737994,-0.1484066,-0.04247125,-13.4932,0,0,45.51806,1,1,753,996
13016,121765268,1,0.1196211,-0.09639465,0.17656,-0.02941879,0.1280839,-13.25294,0,0,45.51794,1,1,753,996
13020,121767884,1,0.1133359,-0.07706803,0.1851906,-0.08260687,-0.03957191,-13.23448,0,0,45.51794,1,1,753,996
13023,121769916,1,0.06718731,-0.06129073,0.1811414,0.16314,0.4383096,-13.30837,0,0,45.51794,1,1,753,996
13026,121772550,1,0.115904,-0.07643282,0.1746604,0.174359,0.6036887,-13.20814,0,0,45.51794,1,1,753,996
13061,121775496,1,0.1177489,-0.07063715,0.1836154,-0.008708354999999999,0.2432869,-13.20109,0,0,45.51794,1,1,753,996
13065,121778266,1,0.08582737,-0.06503792,0.1828962,0.06706722,0.3694842,-13.37159,0,0,45.51785,1,1,753,996
13068,121780828,1,0.1364204,-0.08077840999999999,0.1800892,0.0864746,0.5290601,-13.39099,0,0,45.51785,1,1,753,996
13071,121783381,1,0.121183,-0.07571892,0.19717,-0.1316919,-0.0869393,-13.23718,0,0,45.51785,1,1,753,996
13106,121786236,1,0.04536215,-0.06228018,0.2045942,-0.03939375,0.06933586,-13.16492,0,0,45.51785,1,1,753,996
13109,121789010,1,0.07393137,-0.06923361,0.1964369,-0.07340505,0.2127211,-13.07685,0,0,45.51778,1,1,753,996
13112,121792147,1,0.09353478,-0.06198558,0.1988642,-0.2997071,-0.2612309,-13.07584,0,0,45.51778,1,1,753,996
13115,121794163,1,0.04721172,-0.04820494,0.1926635,-0.2415044,-0.1002682,-13.19243,0,0,45.51778,1,1,753,996
13150,121797133,1,0.06590541,-0.05555711,0.1756103,-0.303575,0.1465117,-13.24629,0,0,45.51778,1,1,753,996
13154,121799581,1,0.08386689,-0.05864577,0.1780016,-0.3937761,-0.007723989,-13.28582,0,0,45.51773,1,1,753,996
13157,121802918,1,0.05313948,-0.0430245,0.1830585,-0.2515199,0.323307,-13.35876,0,0,45.51773,1,1,753,996
13160,121804541,1,0.07670058,-0.03726042,0.177872,-0.1573059,0.6034705,-13.35041,0,0,45.51773,1,1,753,996
