LineNo,TimeUS,I,GyrX,GyrY,GyrZ,AccX,AccY,AccZ,EG,EA,T,GH,AH,GHz,AHz
184,1.0097e+08,2,0.0035226,0.00091917,-0.00041406,0.051928,0.27888,-9.8167,0,0,38.472,1,1,7745,3872
219,1.0098e+08,2,0.0043525,1.9333e-05,-0.0005891,0.051056,0.27622,-9.8187,0,0,38.473,1,1,7745,3872
289,1.01e+08,2,0.0053535,-0.0030292,0.0004342,0.066221,0.26143,-9.8173,0,0,38.474,1,1,7745,3872
404,1.0103e+08,2,0.0019679,-0.0023398,-4.5038e-05,0.039804,0.26319,-9.8266,0,0,38.476,1,1,7745,3872
520,1.0106e+08,2,-0.0015691,0.0032655,0.00070229,0.058609,0.23481,-9.8271,0,0,38.477,1,1,7745,3872
635,1.0109e+08,2,-0.0033761,0.0011166,0.00095558,0.052797,0.24484,-9.784,0,0,38.478,1,1,7745,3872
638,1.0109e+08,2,-0.0029197,3.6799e-06,0.0013023,0.051442,0.24671,-9.7853,0,0,38.478,1,1,7745,3872
749,1.0111e+08,2,-0.0020396,-0.0024285,0.0008256,0.038573,0.26574,-9.8085,0,0,38.478,1,1,7745,3872
784,1.0112e+08,2,-0.0014285,-0.0021699,0.0012545,0.038933,0.26479,-9.8086,0,0,38.478,1,1,7745,3872
858,1.0113e+08,2,0.0013903,-0.002477,0.0005101,0.065864,0.26414,-9.8216,0,0,38.479,1,1,7745,3872
976,1.0117e+08,2,0.003742,-0.00072284,-0.0012372,0.041481,0.25685,-9.8187,0,0,38.48,1,1,7745,3872
1091,1.0122e+08,2,0.00079907,0.001918,0.00098102,0.052832,0.25476,-9.8321,0,0,38.481,1,1,7745,3872
1202,1.0133e+08,2,-0.00021964,0.0015787,0.000227,0.058122,0.24158,-9.7994,0,0,38.483,1,1,7745,3872
1284,1.0137e+08,2,0.00097426,-0.00046466,0.00025209,0.033838,0.25766,-9.8142,0,0,38.483,1,1,7745,3872
1319,1.0137e+08,2,0.0013318,-0.00048783,0.00098685,0.032249,0.25939,-9.8129,0,0,38.483,1,1,7745,3872
1383,1.0138e+08,2,0.0030185,-0.001938,-0.00099748,0.046407,0.2548,-9.81,0,0,38.483,1,1,7745,3872
1475,1.014e+08,2,0.00031564,-0.0012933,-4.6594e-05,0.044224,0.26127,-9.8152,0,0,38.483,1,1,7745,3872
1510,1.014e+08,2,0.00051393,-0.00078768,-0.00054069,0.042146,0.26424,-9.8116,0,0,38.483,1,1,7745,3872
1562,1.0142e+08,2,-0.0012459,0.0024251,-0.00067644,0.043023,0.26408,-9.8081,0,0,38.483,1,1,7745,3872
1572,1.0142e+08,2,-0.00019176,0.0023002,0.00012002,0.043087,0.2616,-9.81,0,0,38.483,1,1,7745,3872
1607,1.0143e+08,2,0.00095917,0.0017452,0.0011935,0.043268,0.25948,-9.8138,0,0,38.483,1,1,7745,3872
1610,1.0143e+08,2,0.00098392,0.0018399,0.0010695,0.044931,0.25937,-9.8178,0,0,38.483,1,1,7745,3872
1613,1.0143e+08,2,0.0010747,0.0025466,-0.0004327,0.047848,0.25859,-9.8236,0,0,38.483,1,1,7745,3872
1617,1.0143e+08,2,0.0010648,0.0027151,-0.00051396,0.048659,0.25805,-9.8279,0,0,38.483,1,1,7745,3872
1652,1.0143e+08,2,-0.00055941,0.0031856,-0.00026747,0.050121,0.25553,-9.8336,0,0,38.483,1,1,7745,3872
1655,1.0144e+08,2,-0.0012348,0.0044618,2.3495e-05,0.050613,0.254,-9.8352,0,0,38.483,1,1,7745,3872
1658,1.0144e+08,2,-0.0012397,0.0051706,0.0005296,0.051448,0.24975,-9.8368,0,0,38.483,1,1,7745,3872
1661,1.0144e+08,2,-0.0013288,0.0043547,0.0013363,0.051428,0.24724,-9.833,0,0,38.483,1,1,7745,3872
1696,1.0144e+08,2,-0.00078279,0.0036306,0.00064174,0.051357,0.2451,-9.8288,0,0,38.483,1,1,7745,3872
1699,1.0145e+08,2,-0.001028,0.0028866,-0.00042015,0.052194,0.24204,-9.8251,0,0,38.483,1,1,7745,3872
1702,1.0145e+08,2,-0.0024144,0.0017804,-0.00084447,0.053911,0.23886,-9.8221,0,0,38.483,1,1,7745,3872
1708,1.0145e+08,2,-0.0021378,0.00049188,-0.00090564,0.056956,0.24083,-9.8196,0,0,38.483,1,1,7745,3872
1743,1.0146e+08,2,-0.00042437,0.00037716,0.00017289,0.060706,0.24566,-9.8186,0,0,38.483,1,1,7745,3872
1746,1.0146e+08,2,-4.4168e-05,0.00091917,0.00090516,0.063099,0.24805,-9.8166,0,0,38.483,1,1,7745,3872
1749,1.0146e+08,2,0.00087181,0.00094395,0.00070101,0.064528,0.25004,-9.8149,0,0,38.483,1,1,7745,3872
1784,1.0147e+08,2,-0.0011734,0.00038797,-0.0012169,0.061558,0.25485,-9.8099,0,0,38.483,1,1,7745,3872
1787,1.0147e+08,2,-0.00087921,0.00061964,-0.0010787,0.059109,0.25893,-9.8095,0,0,38.483,1,1,7745,3872
1790,1.0147e+08,2,-0.00031872,0.00082744,-0.00022343,0.05623,0.2633,-9.8106,0,0,38.483,1,1,7745,3872
1824,1.0148e+08,2,-2.7684e-06,0.0011225,0.00071593,0.05537,0.26424,-9.8121,0,0,38.483,1,1,7745,3872
1827,1.0148e+08,2,-0.00042199,0.0017173,0.0012752,0.055173,0.26493,-9.8149,0,0,38.483,1,1,7745,3872
1830,1.0148e+08,2,-0.00059905,0.0015041,0.0011644,0.054432,0.26456,-9.8189,0,0,38.483,1,1,7745,3872
1833,1.0148e+08,2,0.00096204,0.0001977,0.0008328,0.053627,0.26327,-9.8244,0,0,38.483,1,1,7745,3872
1867,1.0149e+08,2,0.0012046,-0.00054004,0.00055374,0.052411,0.26271,-9.825,0,0,38.483,1,1,7745,3872
1870,1.0149e+08,2,0.00096252,-0.00070537,0.00056343,0.05256,0.26333,-9.8226,0,0,38.483,1,1,7745,3872
1876,1.0149e+08,2,0.00093921,-0.0016772,0.0012496,0.054071,0.26511,-9.8161,0,0,38.483,1,1,7745,3872
1880,1.015e+08,2,0.0012883,-0.0024521,0.0015825,0.055264,0.26485,-9.8129,0,0,38.483,1,1,7745,3872
1913,1.015e+08,2,0.001159,-0.0034805,0.0014053,0.056801,0.26293,-9.8084,0,0,38.483,1,1,7745,3872
1916,1.015e+08,2,-7.2847e-06,-0.0029286,0.00051105,0.058516,0.26134,-9.8051,0,0,38.483,1,1,7745,3872
1919,1.015e+08,2,-0.0011078,-0.0027493,0.00015454,0.060287,0.25999,-9.802,0,0,38.483,1,1,7745,3872
1922,1.0151e+08,2,-0.0018939,-0.0029493,-0.00021906,0.06374,0.25883,-9.7996,0,0,38.483,1,1,7745,3872
1957,1.0151e+08,2,-0.0013784,-0.0028806,-0.00077128,0.066766,0.25777,-9.7997,0,0,38.483,1,1,7745,3872
1961,1.0151e+08,2,-0.00030892,-0.0020025,-0.0024521,0.071643,0.25672,-9.8009,0,0,38.483,1,1,7745,3872
1964,1.0151e+08,2,0.00022794,-0.0011613,-0.002138,0.074597,0.2579,-9.8037,0,0,38.483,1,1,7745,3872
1967,1.0152e+08,2,0.00032395,-0.00017532,-0.00035753,0.077577,0.26121,-9.8092,0,0,38.483,1,1,7745,3872
2000,1.0152e+08,2,0.00074987,-0.00043232,0.00092453,0.07942,0.26272,-9.8152,0,0,38.483,1,1,7745,3872
2003,1.0152e+08,2,0.00095314,-0.00062549,0.0013688,0.080572,0.26364,-9.8203,0,0,38.483,1,1,7745,3872
2006,1.0152e+08,2,0.00080407,9.0602e-06,0.0018175,0.07991,0.26491,-9.8266,0,0,38.483,1,1,7745,3872
2011,1.0153e+08,2,0.00075406,-0.00043432,0.0020398,0.076911,0.26544,-9.8351,0,0,38.483,1,1,7745,3872
2044,1.0153e+08,2,0.00010158,-0.0010688,0.0013865,0.075637,0.26553,-9.837,0,0,38.484,1,1,7745,3872
2048,1.0153e+08,2,-0.00076481,-0.00053231,-0.00027222,0.071077,0.26596,-9.8397,0,0,38.484,1,1,7745,3872
2051,1.0153e+08,2,-0.00063899,-0.00025797,-0.00048797,0.06749,0.26625,-9.8396,0,0,38.484,1,1,7745,3872
2054,1.0154e+08,2,-0.00066604,0.00064582,-0.00013668,0.062551,0.26673,-9.8388,0,0,38.484,1,1,7745,3872
2087,1.0154e+08,2,-0.00051207,0.00067724,-0.00015886,0.06053,0.26758,-9.8368,0,0,38.484,1,1,7745,3872
2091,1.0154e+08,2,0.00014033,0.00035058,0.00016304,0.058506,0.2687,-9.8324,0,0,38.484,1,1,7745,3872
2094,1.0154e+08,2,0.00049518,0.00057429,0.00017089,0.057733,0.27042,-9.8263,0,0,38.484,1,1,7745,3872
2097,1.0155e+08,2,0.00050136,0.0012377,-3.5864e-05,0.058003,0.27065,-9.8222,0,0,38.484,1,1,7745,3872
2130,1.0155e+08,2,-0.0001439,0.0024251,6.9718e-05,0.058359,0.26841,-9.8165,0,0,38.485,1,1,7745,3872
2133,1.0155e+08,2,0.00058395,0.0033132,0.00075854,0.058193,0.26608,-9.8094,0,0,38.485,1,1,7745,3872
2136,1.0155e+08,2,0.0014208,0.0034327,0.0003728,0.058446,0.26399,-9.807,0,0,38.485,1,1,7745,3872
2139,1.0156e+08,2,0.0019496,0.0033172,-1.4224e-06,0.059847,0.26061,-9.8049,0,0,38.485,1,1,7745,3872
2172,1.0156e+08,2,0.0018,0.0027176,-0.00047075,0.059597,0.25835,-9.8022,0,0,38.485,1,1,7745,3872
2176,1.0156e+08,2,0.0014214,0.0021277,-0.0011103,0.058197,0.25588,-9.8005,0,0,38.485,1,1,7745,3872
2179,1.0156e+08,2,0.0012845,0.0022531,-0.0013653,0.057338,0.2546,-9.7985,0,0,38.485,1,1,7745,3872
2182,1.0157e+08,2,0.00091109,0.002494,-0.0015105,0.057886,0.25441,-9.7945,0,0,38.486,1,1,7745,3872
2215,1.0157e+08,2,0.0012135,0.0022724,-0.00031766,0.059404,0.25572,-9.7953,0,0,38.486,1,1,7745,3872
2218,1.0157e+08,2,0.0011357,0.0023642,0.00096012,0.062249,0.25832,-9.8017,0,0,38.486,1,1,7745,3872
2221,1.0157e+08,2,0.0010978,0.0018992,0.0012345,0.063292,0.2599,-9.8072,0,0,38.486,1,1,7745,3872
2224,1.0158e+08,2,0.0022419,0.0015862,0.00070371,0.063083,0.26245,-9.8119,0,0,38.486,1,1,7745,3872
2257,1.0158e+08,2,0.0030356,0.00054908,0.00010784,0.063245,0.26415,-9.8116,0,0,38.486,1,1,7745,3872
2260,1.0158e+08,2,0.0028624,0.00013595,-0.00017219,0.063387,0.26442,-9.8114,0,0,38.486,1,1,7745,3872
2263,1.0158e+08,2,0.002649,-0.00013662,-0.00089656,0.063811,0.26503,-9.8119,0,0,38.486,1,1,7745,3872
2267,1.0159e+08,2,0.0015152,0.00013672,-0.0015117,0.063387,0.26757,-9.8132,0,0,38.487,1,1,7745,3872
2300,1.0159e+08,2,0.00044176,0.00064313,-0.00098366,0.061852,0.26918,-9.8126,0,0,38.487,1,1,7745,3872
2303,1.0159e+08,2,-0.00091115,0.00016264,-0.00011167,0.060292,0.2689,-9.8124,0,0,38.487,1,1,7745,3872
2309,1.0159e+08,2,-0.001448,-0.00016519,0.00031331,0.058472,0.26713,-9.8137,0,0,38.487,1,1,7745,3872
2313,1.016e+08,2,-0.001034,-0.00071108,0.00052743,0.055476,0.26398,-9.8167,0,0,38.487,1,1,7745,3872
2346,1.016e+08,2,-0.00014007,-0.001349,0.00065542,0.053895,0.26241,-9.8169,0,0,38.488,1,1,7745,3872
2350,1.016e+08,2,0.00053464,-0.0018583,0.00078118,0.052719,0.26171,-9.8165,0,0,38.488,1,1,7745,3872
2353,1.016e+08,2,0.00096785,-0.0021375,0.0009866,0.050852,0.26148,-9.815,0,0,38.488,1,1,7745,3872
2356,1.0161e+08,2,0.001251,-0.001768,0.0021521,0.046571,0.26224,-9.8123,0,0,38.488,1,1,7745,3872
2389,1.0161e+08,2,0.0017811,-0.0017553,0.0029932,0.042396,0.26205,-9.8029,0,0,38.488,1,1,7745,3872
2393,1.0161e+08,2,0.0013569,-0.0024502,0.0037434,0.038839,0.26126,-9.7969,0,0,38.489,1,1,7745,3872
2396,1.0161e+08,2,0.0010935,-0.0033121,0.0049089,0.034886,0.25991,-9.7955,0,0,38.489,1,1,7745,3872
2399,1.0162e+08,2,6.5987e-05,-0.0039595,0.0045478,0.033402,0.25883,-9.7983,0,0,38.489,1,1,7745,3872
2432,1.0162e+08,2,-0.00066598,-0.0029629,0.0023268,0.033223,0.25742,-9.8053,0,0,38.489,1,1,7745,3872
2435,1.0162e+08,2,-0.00060085,-0.0012686,0.0008821,0.034452,0.25693,-9.8115,0,0,38.489,1,1,7745,3872
2438,1.0163e+08,2,-0.00023799,-0.0013031,0.00021855,0.035215,0.25744,-9.8129,0,0,38.489,1,1,7745,3872
2441,1.0163e+08,2,-1.9676e-06,-0.0017362,-0.00048303,0.037821,0.25884,-9.8156,0,0,38.49,1,1,7745,3872
2474,1.0163e+08,2,-0.00037229,-0.0020508,-7.8321e-05,0.039968,0.25908,-9.8175,0,0,38.49,1,1,7745,3872
2479,1.0163e+08,2,9.0709e-05,-0.0030949,0.0010509,0.044031,0.25965,-9.8194,0,0,38.49,1,1,7745,3872
2482,1.0164e+08,2,0.00029928,-0.0032192,0.0014769,0.045901,0.26069,-9.8201,0,0,38.49,1,1,7745,3872
2487,1.0164e+08,2,0.00030971,-0.0030249,0.0017804,0.047731,0.2616,-9.8204,0,0,38.49,1,1,7745,3872
2520,1.0164e+08,2,-0.00057015,-0.0027641,0.0017043,0.046649,0.26143,-9.8193,0,0,38.491,1,1,7745,3872
2523,1.0165e+08,2,-0.0019134,-3.5169e-05,0.0015584,0.040618,0.26242,-9.8167,0,0,38.491,1,1,7745,3872
2558,1.0165e+08,2,-8.2163e-05,0.00056959,0.00081991,0.039812,0.25983,-9.8192,0,0,38.491,1,1,7745,3872
2561,1.0165e+08,2,-0.00029078,0.00026942,0.00018153,0.04163,0.25856,-9.8209,0,0,38.492,1,1,7745,3872
2564,1.0166e+08,2,-0.00062691,0.00045516,-0.0010457,0.04411,0.25774,-9.8222,0,0,38.492,1,1,7745,3872
2567,1.0166e+08,2,-0.00047934,0.00090614,-0.0011591,0.045825,0.25753,-9.8226,0,0,38.492,1,1,7745,3872
2602,1.0166e+08,2,-0.00076197,0.0013137,-0.0011297,0.044972,0.26001,-9.8216,0,0,38.492,1,1,7745,3872
2606,1.0167e+08,2,-0.00072119,0.0013268,-0.0014582,0.044081,0.26106,-9.8202,0,0,38.492,1,1,7745,3872
2609,1.0167e+08,2,-0.00090555,0.0020446,-0.00059661,0.043188,0.26243,-9.8205,0,0,38.493,1,1,7745,3872
2612,1.0167e+08,2,-0.00057299,0.0029959,-0.00026836,0.043915,0.26148,-9.8224,0,0,38.493,1,1,7745,3872
2647,1.0167e+08,2,-0.00014185,0.0037919,0.00093186,0.043816,0.2584,-9.8252,0,0,38.493,1,1,7745,3872
2651,1.0168e+08,2,-0.000182,0.0042141,0.00066765,0.045211,0.25665,-9.8258,0,0,38.493,1,1,7745,3872
2654,1.0168e+08,2,-0.00050211,0.0047731,0.0010817,0.046288,0.25705,-9.8244,0,0,38.493,1,1,7745,3872
2657,1.0168e+08,2,-0.00020325,0.0048416,0.00086831,0.04635,0.25752,-9.8219,0,0,38.494,1,1,7745,3872
2692,1.0168e+08,2,6.0792e-05,0.004057,0.0011549,0.045803,0.25818,-9.8183,0,0,38.494,1,1,7745,3872
2695,1.0169e+08,2,0.00068551,0.0033636,0.0010496,0.042828,0.26082,-9.8134,0,0,38.494,1,1,7745,3872
2698,1.0169e+08,2,0.00055634,0.0038585,0.0012051,0.041471,0.26197,-9.813,0,0,38.494,1,1,7745,3872
2701,1.0169e+08,2,-0.00023259,0.0047531,0.00063646,0.039547,0.265,-9.8139,0,0,38.494,1,1,7745,3872
2736,1.0169e+08,2,-0.0003791,0.0045365,-0.00023773,0.042872,0.26785,-9.8133,0,0,38.495,1,1,7745,3872
2740,1.017e+08,2,0.00018583,0.0039292,-0.00093866,0.046649,0.26857,-9.8141,0,0,38.495,1,1,7745,3872
2746,1.017e+08,2,0.00015991,0.0042813,-0.0015329,0.051525,0.26724,-9.8192,0,0,38.495,1,1,7745,3872
2750,1.017e+08,2,0.00052616,0.0039882,-0.0021084,0.052849,0.26558,-9.8227,0,0,38.495,1,1,7745,3872
2785,1.017e+08,2,0.0012864,0.0033655,-0.0013685,0.054661,0.26426,-9.8249,0,0,38.495,1,1,7745,3872
2789,1.0171e+08,2,0.00069113,0.0028656,0.00010459,0.056599,0.26452,-9.8251,0,0,38.496,1,1,7745,3872
2792,1.0171e+08,2,0.00066652,0.0026638,0.0010804,0.057879,0.2656,-9.8244,0,0,38.496,1,1,7745,3872
2795,1.0171e+08,2,0.0018282,0.0019875,0.0014519,0.05992,0.26843,-9.8214,0,0,38.496,1,1,7745,3872
2830,1.0171e+08,2,0.0022968,0.0012288,0.0012722,0.062231,0.2699,-9.8205,0,0,38.496,1,1,7745,3872
2833,1.0172e+08,2,0.0016837,0.0012851,0.00060967,0.062591,0.26971,-9.8201,0,0,38.496,1,1,7745,3872
2836,1.0172e+08,2,0.0012658,0.0012592,9.7489e-05,0.062346,0.26835,-9.8188,0,0,38.496,1,1,7745,3872
2839,1.0172e+08,2,0.001721,0.0012797,8.2539e-05,0.061824,0.26729,-9.8188,0,0,38.497,1,1,7745,3872
2874,1.0172e+08,2,0.0027828,0.0017438,-0.00062624,0.062254,0.26644,-9.8181,0,0,38.497,1,1,7745,3872
2880,1.0173e+08,2,0.0031285,0.0015659,-0.0009075,0.062066,0.26649,-9.8184,0,0,38.497,1,1,7745,3872
2883,1.0173e+08,2,0.0030275,0.0014144,-0.0016136,0.060405,0.26648,-9.8166,0,0,38.497,1,1,7745,3872
2886,1.0173e+08,2,0.0031385,0.0011741,-0.00032379,0.056915,0.26631,-9.809,0,0,38.497,1,1,7745,3872
2921,1.0173e+08,2,0.0032853,-0.00037108,0.00027607,0.052313,0.26549,-9.8027,0,0,38.498,1,1,7745,3872
2924,1.0174e+08,2,0.0030914,-0.0013736,0.00029334,0.050527,0.26493,-9.8011,0,0,38.498,1,1,7745,3872
2927,1.0174e+08,2,0.0037084,-0.0024345,0.0001991,0.052121,0.26401,-9.8,0,0,38.498,1,1,7745,3872
2930,1.0174e+08,2,0.004012,-0.0022749,0.00022394,0.05402,0.26229,-9.7995,0,0,38.498,1,1,7745,3872
2965,1.0175e+08,2,0.0036357,-0.0023111,0.00072829,0.054683,0.25771,-9.8013,0,0,38.498,1,1,7745,3872
2968,1.0175e+08,2,0.0025437,-0.0024551,0.00090342,0.054828,0.25557,-9.8027,0,0,38.498,1,1,7745,3872
2972,1.0175e+08,2,0.0024167,-0.0024158,0.00040979,0.055905,0.25409,-9.8044,0,0,38.498,1,1,7745,3872
2975,1.0175e+08,2,0.0022467,-0.0025448,0.00033165,0.056273,0.25322,-9.8065,0,0,38.499,1,1,7745,3872
3010,1.0176e+08,2,0.0013949,-0.0023297,0.00039546,0.05646,0.25238,-9.8074,0,0,38.499,1,1,7745,3872
3013,1.0176e+08,2,0.0008705,-0.0013917,0.00099168,0.057806,0.2526,-9.8082,0,0,38.499,1,1,7745,3872
3017,1.0176e+08,2,0.00083422,-0.0012903,0.00041503,0.05797,0.25517,-9.8082,0,0,38.499,1,1,7745,3872
3020,1.0176e+08,2,0.00052107,-0.0016342,-0.00024896,0.056448,0.25809,-9.8103,0,0,38.499,1,1,7745,3872
3055,1.0177e+08,2,0.00055498,-0.0014627,0.0009398,0.056005,0.25998,-9.8154,0,0,38.499,1,1,7745,3872
3058,1.0177e+08,2,0.00038395,-0.0010872,0.0013477,0.057311,0.26096,-9.8198,0,0,38.499,1,1,7745,3872
3061,1.0177e+08,2,-0.00061846,0.00013265,0.00054398,0.057346,0.2624,-9.8272,0,0,38.499,1,1,7745,3872
3065,1.0177e+08,2,-0.00084514,4.9953e-05,0.00062773,0.05658,0.26298,-9.8293,0,0,38.499,1,1,7745,3872
3100,1.0178e+08,2,-0.00019188,0.00023035,0.00037898,0.053258,0.2635,-9.8289,0,0,38.499,1,1,7745,3872
3103,1.0178e+08,2,0.00048917,8.7318e-05,-5.1941e-05,0.049197,0.26522,-9.83,0,0,38.499,1,1,7745,3872
3107,1.0178e+08,2,0.0001495,0.00034239,-0.00018982,0.048244,0.26553,-9.8315,0,0,38.5,1,1,7745,3872
3110,1.0178e+08,2,-0.000436,0.00064816,7.8757e-05,0.045577,0.26459,-9.8352,0,0,38.5,1,1,7745,3872
3147,1.0179e+08,2,-0.0010068,0.0010457,3.0387e-05,0.04313,0.26313,-9.8362,0,0,38.5,1,1,7745,3872
3150,1.0179e+08,2,-0.0010178,0.0011738,0.00015553,0.041992,0.26292,-9.8385,0,0,38.5,1,1,7745,3872
3153,1.0179e+08,2,-0.00081681,0.0012094,0.00074052,0.042429,0.26337,-9.8373,0,0,38.5,1,1,7745,3872
3156,1.0179e+08,2,0.00019132,0.0011886,0.0022013,0.045072,0.26324,-9.8321,0,0,38.5,1,1,7745,3872
3191,1.018e+08,2,-0.00014258,0.00083311,0.0020604,0.048517,0.26218,-9.8315,0,0,38.5,1,1,7745,3872
3194,1.018e+08,2,-0.00062494,0.00092529,0.0018153,0.051881,0.25936,-9.8322,0,0,38.5,1,1,7745,3872
3201,1.018e+08,2,-0.0015666,0.0011894,0.0018883,0.053001,0.25696,-9.8312,0,0,38.5,1,1,7745,3872
3205,1.018e+08,2,-0.0025482,0.0019651,0.0014174,0.05311,0.25305,-9.8262,0,0,38.5,1,1,7745,3872
3241,1.0181e+08,2,-0.0018547,0.002362,0.0011752,0.050376,0.25051,-9.8203,0,0,38.5,1,1,7745,3872
3244,1.0181e+08,2,-0.0020378,0.0025245,0.0015201,0.04833,0.25012,-9.8154,0,0,38.5,1,1,7745,3872
3248,1.0181e+08,2,-0.0022308,0.0018949,0.0015317,0.045722,0.25023,-9.8122,0,0,38.5,1,1,7745,3872
3251,1.0181e+08,2,-0.0021713,0.0014146,0.0015329,0.04304,0.2496,-9.8113,0,0,38.5,1,1,7745,3872
3286,1.0182e+08,2,-0.0020173,0.0016189,0.0016614,0.041875,0.24895,-9.81,0,0,38.5,1,1,7745,3872
3289,1.0182e+08,2,-0.0018322,0.0020861,0.0017115,0.042621,0.2486,-9.8099,0,0,38.5,1,1,7745,3872
3292,1.0182e+08,2,-0.0011358,0.0028503,0.0011466,0.044153,0.2491,-9.813,0,0,38.5,1,1,7745,3872
3295,1.0182e+08,2,-0.0012803,0.0022476,-1.5182e-05,0.044779,0.25094,-9.817,0,0,38.5,1,1,7745,3872
3330,1.0183e+08,2,-0.0029786,0.0014176,-0.00015935,0.045661,0.25382,-9.8211,0,0,38.5,1,1,7745,3872
3333,1.0183e+08,2,-0.0036184,0.001494,4.9163e-05,0.046808,0.25433,-9.8215,0,0,38.5,1,1,7745,3872
3338,1.0183e+08,2,-0.0041371,-2.1954e-05,-0.00031432,0.050499,0.25558,-9.8211,0,0,38.5,1,1,7745,3872
3341,1.0184e+08,2,-0.0038752,-0.00062159,-0.00065145,0.052678,0.25627,-9.8207,0,0,38.5,1,1,7745,3872
3376,1.0184e+08,2,-0.0025526,0.00022965,-0.00089048,0.055991,0.25541,-9.8185,0,0,38.5,1,1,7745,3872
3379,1.0184e+08,2,-0.0015604,-9.9984e-05,-0.0030211,0.059747,0.25258,-9.8159,0,0,38.5,1,1,7745,3872
3382,1.0184e+08,2,-0.001572,-0.00058846,-0.0031199,0.060383,0.25144,-9.813,0,0,38.499,1,1,7745,3872
3387,1.0185e+08,2,-0.0013068,-0.0011012,-0.0017678,0.060316,0.25115,-9.8109,0,0,38.499,1,1,7745,3872
3422,1.0186e+08,2,-0.00061963,-0.0013121,0.001767,0.053247,0.25966,-9.8117,0,0,38.499,1,1,7745,3872
3427,1.0186e+08,2,9.0405e-05,-7.6926e-05,0.0013442,0.050165,0.26381,-9.8134,0,0,38.499,1,1,7745,3872
3462,1.0186e+08,2,0.00011301,0.00017059,0.001241,0.049768,0.26783,-9.8133,0,0,38.499,1,1,7745,3872
3466,1.0186e+08,2,-0.00044685,-0.00077098,0.00031231,0.050006,0.27068,-9.8143,0,0,38.499,1,1,7745,3872
3469,1.0186e+08,2,-0.00048648,-0.001476,2.0157e-05,0.051015,0.26986,-9.8177,0,0,38.499,1,1,7745,3872
3473,1.0187e+08,2,-0.00031693,-0.0014957,0.00082454,0.053872,0.26739,-9.8241,0,0,38.499,1,1,7745,3872
3508,1.0187e+08,2,-0.00028673,-0.00098203,0.0019155,0.055352,0.2669,-9.8273,0,0,38.499,1,1,7745,3872
3511,1.0187e+08,2,-0.00010423,-2.5582e-05,0.001276,0.056831,0.26732,-9.8316,0,0,38.499,1,1,7745,3872
3514,1.0188e+08,2,0.00055496,-0.00063464,0.00086595,0.056401,0.26688,-9.8333,0,0,38.499,1,1,7745,3872
3517,1.0188e+08,2,0.00093227,-0.0020171,0.0015117,0.056087,0.26603,-9.8342,0,0,38.499,1,1,7745,3872
3552,1.0188e+08,2,0.00097231,-0.0021313,0.0018454,0.056972,0.26562,-9.8352,0,0,38.499,1,1,7745,3872
3555,1.0188e+08,2,0.0008867,-0.0025389,0.001124,0.057087,0.26556,-9.8369,0,0,38.499,1,1,7745,3872
3558,1.0189e+08,2,0.0009902,-0.0022792,0.0014437,0.056144,0.2645,-9.8378,0,0,38.499,1,1,7745,3872
3562,1.0189e+08,2,0.0017623,-0.0014293,0.0019737,0.055036,0.26142,-9.8367,0,0,38.499,1,1,7745,3872
3597,1.0189e+08,2,0.0026385,-0.0011518,0.0029808,0.054606,0.25839,-9.8341,0,0,38.499,1,1,7745,3872
3600,1.0189e+08,2,0.0023743,-0.0017415,0.0026183,0.054263,0.25716,-9.8325,0,0,38.499,1,1,7745,3872
3603,1.019e+08,2,0.0032419,-0.0019923,0.0018079,0.054062,0.25533,-9.8318,0,0,38.499,1,1,7745,3872
3607,1.019e+08,2,0.0038707,-0.0017694,0.0011413,0.053865,0.25356,-9.8298,0,0,38.499,1,1,7745,3872
3642,1.019e+08,2,0.0032401,-0.0011762,0.0017009,0.05198,0.25306,-9.8274,0,0,38.499,1,1,7745,3872
3645,1.019e+08,2,0.0026831,-0.00041608,0.0021233,0.050322,0.25428,-9.8281,0,0,38.499,1,1,7745,3872
3651,1.0191e+08,2,0.0019275,-0.00027807,0.0023986,0.047472,0.25498,-9.8269,0,0,38.499,1,1,7745,3872
3656,1.0191e+08,2,0.0019652,-0.00030805,0.0024221,0.045281,0.2551,-9.8254,0,0,38.499,1,1,7745,3872
3691,1.0191e+08,2,0.0025249,-0.00032388,0.0029385,0.042635,0.25561,-9.8241,0,0,38.499,1,1,7745,3872
3694,1.0191e+08,2,0.0021347,0.00072284,0.0031636,0.040865,0.25754,-9.8245,0,0,38.499,1,1,7745,3872
3697,1.0192e+08,2,0.0015669,0.0015729,0.0026375,0.038831,0.26028,-9.8252,0,0,38.499,1,1,7745,3872
3701,1.0192e+08,2,0.0014645,0.0018947,0.00092224,0.037082,0.26446,-9.8241,0,0,38.499,1,1,7745,3872
3736,1.0192e+08,2,0.0016807,0.002321,0.0012526,0.037293,0.26636,-9.8206,0,0,38.498,1,1,7745,3872
3739,1.0192e+08,2,0.0013602,0.0024871,0.0012159,0.038101,0.26611,-9.8199,0,0,38.498,1,1,7745,3872
3742,1.0193e+08,2,0.0014682,0.0025837,0.00087553,0.040245,0.26481,-9.8171,0,0,38.498,1,1,7745,3872
3745,1.0193e+08,2,0.0017697,0.0030722,0.00086239,0.042303,0.26092,-9.8137,0,0,38.498,1,1,7745,3872
3780,1.0193e+08,2,0.0013594,0.0034282,0.00070433,0.043849,0.25691,-9.8112,0,0,38.498,1,1,7745,3872
3783,1.0193e+08,2,0.00019423,0.00268,0.0023129,0.045661,0.25351,-9.8141,0,0,38.498,1,1,7745,3872
3790,1.0194e+08,2,0.00019118,0.0027175,0.002056,0.046423,0.25325,-9.8145,0,0,38.498,1,1,7745,3872
3794,1.0194e+08,2,0.0005772,0.002893,0.0019639,0.048185,0.251,-9.8141,0,0,38.498,1,1,7745,3872
3829,1.0194e+08,2,-0.00013632,0.0035003,0.0012791,0.048516,0.25024,-9.8169,0,0,38.498,1,1,7745,3872
3832,1.0195e+08,2,-0.00037813,0.0041256,0.0005614,0.048114,0.24967,-9.818,0,0,38.498,1,1,7745,3872
3835,1.0195e+08,2,-0.00064465,0.0031136,-0.00056029,0.048234,0.24917,-9.8199,0,0,38.498,1,1,7745,3872
3838,1.0195e+08,2,-0.00054612,0.0023795,-0.00084809,0.04873,0.24854,-9.8204,0,0,38.498,1,1,7745,3872
3841,1.0195e+08,2,-0.00026653,0.0021724,-0.0012611,0.050499,0.24908,-9.8198,0,0,38.498,1,1,7745,3872
3876,1.0196e+08,2,-2.2889e-05,0.0014472,-0.0012033,0.051846,0.25231,-9.817,0,0,38.498,1,1,7745,3872
3879,1.0196e+08,2,-0.00051483,0.0006797,-0.00093463,0.053088,0.25508,-9.8162,0,0,38.498,1,1,7745,3872
3883,1.0196e+08,2,-0.00057843,-0.00011268,-9.9349e-05,0.053438,0.25662,-9.8154,0,0,38.498,1,1,7745,3872
3886,1.0196e+08,2,-0.00064777,-0.00068552,0.0010413,0.05372,0.25747,-9.8138,0,0,38.498,1,1,7745,3872
3921,1.0197e+08,2,-0.0010714,-0.00021752,0.00064566,0.055431,0.25822,-9.8073,0,0,38.498,1,1,7745,3872
3924,1.0197e+08,2,-0.0021784,-0.00032967,-0.00066143,0.05692,0.25854,-9.8078,0,0,38.498,1,1,7745,3872
3927,1.0197e+08,2,-0.0027755,-0.00077175,-0.00067903,0.057829,0.25883,-9.8091,0,0,38.498,1,1,7745,3872
3930,1.0197e+08,2,-0.0021946,-0.0015148,-9.9232e-05,0.058022,0.2594,-9.8088,0,0,38.497,1,1,7745,3872
3965,1.0198e+08,2,-0.0010605,-0.001868,0.00041382,0.058379,0.26208,-9.8051,0,0,38.497,1,1,7745,3872
3968,1.0198e+08,2,-0.0007128,-0.0016954,0.00073836,0.056862,0.26737,-9.8037,0,0,38.497,1,1,7745,3872
3973,1.0198e+08,2,-0.00064387,-0.0012086,0.00056232,0.055214,0.26971,-9.8042,0,0,38.497,1,1,7745,3872
3976,1.0198e+08,2,-0.0011302,-0.00095874,0.00071359,0.054783,0.26947,-9.8035,0,0,38.497,1,1,7745,3872
4011,1.0199e+08,2,-0.0021297,-0.0008386,0.0005787,0.054416,0.26778,-9.8009,0,0,38.497,1,1,7745,3872
4014,1.0199e+08,2,-0.0025896,-0.0016201,5.9337e-05,0.052793,0.26487,-9.8019,0,0,38.497,1,1,7745,3872
4020,1.0199e+08,2,-0.0027518,-0.00191,-0.00038898,0.051441,0.26338,-9.8058,0,0,38.497,1,1,7745,3872
4023,1.0199e+08,2,-0.0024704,-0.0012048,-0.00055686,0.050764,0.26045,-9.8132,0,0,38.497,1,1,7745,3872
4058,1.02e+08,2,-0.0022605,-0.00062591,-0.00020585,0.051486,0.25816,-9.8226,0,0,38.497,1,1,7745,3872
4061,1.02e+08,2,-0.0022492,-0.0010505,6.3973e-05,0.05204,0.25768,-9.8256,0,0,38.497,1,1,7745,3872
4064,1.02e+08,2,-0.0026045,-0.0017513,0.00068277,0.053014,0.25717,-9.8304,0,0,38.497,1,1,7745,3872
4067,1.02e+08,2,-0.0023757,-0.00091768,0.0012251,0.053101,0.25605,-9.8325,0,0,38.497,1,1,7745,3872
4104,1.0201e+08,2,-0.0029347,-0.0014686,0.0011793,0.054392,0.25549,-9.8278,0,0,38.497,1,1,7745,3872
4110,1.0201e+08,2,-0.0030821,-0.0018273,0.0011192,0.0549,0.25587,-9.8221,0,0,38.497,1,1,7745,3872
4115,1.0201e+08,2,-0.0022999,-0.0010704,0.0001907,0.055309,0.25786,-9.8156,0,0,38.497,1,1,7745,3872
4118,1.0201e+08,2,-0.00077163,0.0003769,-0.0013388,0.05514,0.26276,-9.8106,0,0,38.497,1,1,7745,3872
4153,1.0202e+08,2,-0.00068374,0.0015181,-0.00082358,0.05477,0.26519,-9.8108,0,0,38.497,1,1,7745,3872
4156,1.0202e+08,2,-0.00019251,0.0019249,0.00096337,0.053758,0.26751,-9.8149,0,0,38.497,1,1,7745,3872
4159,1.0202e+08,2,0.00021875,0.0015354,0.0021261,0.052742,0.26749,-9.8163,0,0,38.497,1,1,7745,3872
4162,1.0202e+08,2,-1.1442e-05,-0.00010769,0.0022321,0.052371,0.26752,-9.8145,0,0,38.497,1,1,7745,3872
4197,1.0203e+08,2,-0.00012152,-0.00059636,0.0018511,0.052649,0.26951,-9.8141,0,0,38.497,1,1,7745,3872
4200,1.0203e+08,2,-0.00027323,2.0037e-05,0.0015503,0.05438,0.27281,-9.8144,0,0,38.497,1,1,7745,3872
4204,1.0203e+08,2,-0.00015142,0.0004172,0.0016933,0.054777,0.27403,-9.8148,0,0,38.497,1,1,7745,3872
4207,1.0203e+08,2,-5.7621e-05,0.0021523,0.0022504,0.055084,0.27693,-9.8185,0,0,38.497,1,1,7745,3872
4242,1.0204e+08,2,-0.00031551,0.0020868,0.002257,0.055451,0.27666,-9.8218,0,0,38.497,1,1,7745,3872
4245,1.0204e+08,2,-0.0003981,0.0010625,0.0011589,0.054779,0.27236,-9.8226,0,0,38.496,1,1,7745,3872
4249,1.0204e+08,2,-7.8306e-05,0.0010953,-3.5329e-05,0.052572,0.26847,-9.8222,0,0,38.496,1,1,7745,3872
4252,1.0204e+08,2,-0.00019253,0.0017287,-0.0011354,0.048838,0.26635,-9.8194,0,0,38.496,1,1,7745,3872
4287,1.0205e+08,2,0.00017103,0.00177,-0.00084902,0.045931,0.2666,-9.8176,0,0,38.496,1,1,7745,3872
4290,1.0205e+08,2,0.00084387,0.0014355,-0.00067784,0.043576,0.26715,-9.82,0,0,38.496,1,1,7745,3872
4296,1.0205e+08,2,0.0019686,0.0017483,0.00032605,0.041757,0.2693,-9.8258,0,0,38.496,1,1,7745,3872
4299,1.0206e+08,2,0.0023639,0.0016899,0.0013268,0.042337,0.27064,-9.8276,0,0,38.496,1,1,7745,3872
4334,1.0206e+08,2,0.0033229,0.0012821,0.0017928,0.044411,0.27126,-9.8276,0,0,38.496,1,1,7745,3872
4337,1.0207e+08,2,0.00088983,0.0014487,0.0014864,0.049283,0.26268,-9.8279,0,0,38.496,1,1,7745,3872
4373,1.0207e+08,2,0.00057492,0.0009378,0.0016192,0.050402,0.25945,-9.824,0,0,38.496,1,1,7745,3872
4376,1.0207e+08,2,0.00097254,0.00080827,0.0018227,0.050782,0.25777,-9.8219,0,0,38.496,1,1,7745,3872
4379,1.0208e+08,2,0.0015788,0.00020201,0.0024014,0.051798,0.25565,-9.8187,0,0,38.496,1,1,7745,3872
4382,1.0208e+08,2,0.001649,-8.7548e-05,0.0024683,0.052036,0.25404,-9.8164,0,0,38.496,1,1,7745,3872
4417,1.0208e+08,2,0.0017815,0.00026744,0.0030906,0.05337,0.25211,-9.8166,0,0,38.496,1,1,7745,3872
4421,1.0208e+08,2,0.0014917,0.00032697,0.003319,0.057635,0.25328,-9.8166,0,0,38.496,1,1,7745,3872
4424,1.0209e+08,2,0.0010392,-5.6335e-05,0.0029956,0.059291,0.25575,-9.8135,0,0,38.496,1,1,7745,3872
4427,1.0209e+08,2,0.0014353,1.6758e-05,0.002985,0.059676,0.25933,-9.8113,0,0,38.496,1,1,7745,3872
4462,1.0209e+08,2,0.0016027,0.00013791,0.0022256,0.059289,0.26072,-9.8108,0,0,38.496,1,1,7745,3872
4465,1.0209e+08,2,0.0013548,-0.00097108,0.0011227,0.059697,0.26037,-9.8112,0,0,38.497,1,1,7745,3872
4468,1.021e+08,2,0.0013841,-0.0011799,0.00033986,0.060627,0.25984,-9.8124,0,0,38.497,1,1,7745,3872
4471,1.021e+08,2,0.0016112,-0.0010079,-0.00010653,0.060168,0.25766,-9.8144,0,0,38.497,1,1,7745,3872
4506,1.021e+08,2,0.0015298,-0.000572,-0.00023911,0.057783,0.25358,-9.8144,0,0,38.497,1,1,7745,3872
4510,1.021e+08,2,0.0013602,-0.00032249,0.0002013,0.055414,0.25059,-9.8129,0,0,38.497,1,1,7745,3872
4513,1.0211e+08,2,0.0014979,5.9515e-05,0.0011061,0.054575,0.24903,-9.8112,0,0,38.497,1,1,7745,3872
4516,1.0211e+08,2,0.0015494,0.00072277,0.0020002,0.054699,0.24845,-9.8118,0,0,38.497,1,1,7745,3872
4551,1.0211e+08,2,0.0014008,-0.00062348,0.0017585,0.053566,0.24747,-9.8124,0,0,38.497,1,1,7745,3872
4557,1.0211e+08,2,0.0011965,-0.0010896,0.0018981,0.053755,0.24827,-9.8088,0,0,38.497,1,1,7745,3872
4562,1.0212e+08,2,0.00084869,-0.0011909,0.0016352,0.054481,0.24878,-9.8077,0,0,38.498,1,1,7745,3872
4565,1.0212e+08,2,0.00090049,-0.00072095,0.001705,0.055553,0.24809,-9.8094,0,0,38.498,1,1,7745,3872
4600,1.0212e+08,2,0.0010978,-0.00065931,0.0012724,0.055813,0.24679,-9.8103,0,0,38.498,1,1,7745,3872
4604,1.0212e+08,2,0.0006274,0.00014942,0.0010245,0.055576,0.24503,-9.8114,0,0,38.498,1,1,7745,3872
4607,1.0213e+08,2,0.00096308,0.00046532,0.0018741,0.054544,0.24333,-9.8136,0,0,38.498,1,1,7745,3872
4610,1.0213e+08,2,0.0014524,0.00058286,0.0028795,0.052654,0.24226,-9.8162,0,0,38.498,1,1,7745,3872
4645,1.0213e+08,2,0.001835,-0.00040703,0.0029805,0.051879,0.24227,-9.8155,0,0,38.498,1,1,7745,3872
4649,1.0213e+08,2,0.001615,-0.00097016,0.0014287,0.050833,0.24208,-9.8108,0,0,38.498,1,1,7745,3872
4652,1.0214e+08,2,0.00070343,-0.00099861,0.0011074,0.049704,0.24246,-9.8099,0,0,38.498,1,1,7745,3872
4655,1.0214e+08,2,-0.00078,-0.00027815,0.0010279,0.047954,0.24313,-9.8127,0,0,38.498,1,1,7745,3872
4690,1.0214e+08,2,-0.0010873,0.00025141,0.00042521,0.046326,0.24408,-9.8157,0,0,38.499,1,1,7745,3872
4693,1.0214e+08,2,-0.0012096,1.1606e-05,0.00087466,0.043856,0.24664,-9.8191,0,0,38.499,1,1,7745,3872
4696,1.0215e+08,2,-0.0017177,7.2004e-05,0.00082367,0.042375,0.24893,-9.8211,0,0,38.499,1,1,7745,3872
4699,1.0215e+08,2,-0.0021787,0.00076903,0.0014122,0.040886,0.25284,-9.8231,0,0,38.499,1,1,7745,3872
4734,1.0215e+08,2,-0.0019521,0.00037937,0.0014391,0.039087,0.25546,-9.827,0,0,38.499,1,1,7745,3872
4739,1.0215e+08,2,-0.0018508,-0.00059159,0.0014625,0.038073,0.25545,-9.8269,0,0,38.499,1,1,7745,3872
4742,1.0216e+08,2,-0.00043842,-0.0018753,0.002065,0.037943,0.25444,-9.8245,0,0,38.499,1,1,7745,3872
4745,1.0216e+08,2,9.5974e-05,-0.0016035,0.0020079,0.039431,0.25311,-9.8216,0,0,38.499,1,1,7745,3872
4748,1.0216e+08,2,0.00052864,-0.0009417,0.0016971,0.043341,0.25211,-9.813,0,0,38.499,1,1,7745,3872
4783,1.0216e+08,2,0.0011006,-0.00048704,0.0013921,0.046665,0.25241,-9.8034,0,0,38.499,1,1,7745,3872
4786,1.0217e+08,2,0.0012708,0.00019921,0.00057018,0.045879,0.2545,-9.7996,0,0,38.499,1,1,7745,3872
4789,1.0217e+08,2,0.00021983,0.0010831,0.00066393,0.043782,0.25733,-9.7997,0,0,38.499,1,1,7745,3872
4792,1.0217e+08,2,-0.00073776,0.0020992,0.0007094,0.039312,0.26061,-9.8034,0,0,38.499,1,1,7745,3872
4827,1.0218e+08,2,-0.00076858,0.0024305,0.0010588,0.035148,0.26358,-9.8105,0,0,38.5,1,1,7745,3872
4831,1.0218e+08,2,-0.00019187,0.0026942,0.0012926,0.032469,0.26643,-9.8149,0,0,38.5,1,1,7745,3872
4835,1.0218e+08,2,-7.3398e-06,0.0027298,0.00089515,0.0313,0.26777,-9.8172,0,0,38.5,1,1,7745,3872
4838,1.0218e+08,2,-0.0010882,0.0023252,0.00023484,0.032035,0.26913,-9.8219,0,0,38.5,1,1,7745,3872
4873,1.0219e+08,2,-0.0018346,0.0019064,0.00045501,0.035595,0.26822,-9.8275,0,0,38.5,1,1,7745,3872
4877,1.0219e+08,2,-0.001217,0.0015082,0.00074296,0.036955,0.26742,-9.829,0,0,38.5,1,1,7745,3872
4880,1.0219e+08,2,-0.00057022,0.0012034,0.00095852,0.040947,0.26453,-9.8332,0,0,38.501,1,1,7745,3872
4883,1.0219e+08,2,-8.0653e-05,0.000879,0.0010576,0.043013,0.2623,-9.8345,0,0,38.501,1,1,7745,3872
4918,1.022e+08,2,-0.00048553,0.0016473,0.001401,0.048166,0.25736,-9.8343,0,0,38.501,1,1,7745,3872
4921,1.022e+08,2,-0.0008265,0.0022077,0.002065,0.054464,0.25326,-9.832,0,0,38.501,1,1,7745,3872
4924,1.022e+08,2,-0.0013408,0.0021673,0.0021013,0.057426,0.25265,-9.8296,0,0,38.501,1,1,7745,3872
4928,1.022e+08,2,-0.0019734,0.00096379,0.0022592,0.058773,0.2533,-9.8254,0,0,38.501,1,1,7745,3872
4963,1.0221e+08,2,-0.00050053,0.0016396,0.0015528,0.057865,0.25259,-9.8212,0,0,38.501,1,1,7745,3872
4967,1.0221e+08,2,0.0001896,0.0019463,0.001175,0.056394,0.25276,-9.8216,0,0,38.501,1,1,7745,3872
4970,1.0221e+08,2,0.00036155,0.0017955,0.0013202,0.055306,0.25312,-9.8223,0,0,38.501,1,1,7745,3872
4973,1.0221e+08,2,0.0009333,0.0019396,0.0020311,0.054867,0.25233,-9.8244,0,0,38.501,1,1,7745,3872
5011,1.0222e+08,2,0.0013337,0.0018212,0.0022777,0.05494,0.2501,-9.8297,0,0,38.502,1,1,7745,3872
5015,1.0222e+08,2,0.001601,0.0014066,0.0018909,0.054997,0.25004,-9.8313,0,0,38.502,1,1,7745,3872
5018,1.0222e+08,2,0.0023354,0.00097726,0.0018746,0.05415,0.25076,-9.8329,0,0,38.502,1,1,7745,3872
5021,1.0222e+08,2,0.0024699,0.00047999,0.0023758,0.052201,0.25326,-9.8332,0,0,38.502,1,1,7745,3872
5056,1.0223e+08,2,0.0025816,0.00048834,0.00092949,0.05215,0.25697,-9.8323,0,0,38.502,1,1,7745,3872
5060,1.0223e+08,2,0.0022155,0.00040263,0.0003266,0.052628,0.25973,-9.83,0,0,38.502,1,1,7745,3872
5064,1.0223e+08,2,0.0012158,-1.9064e-05,0.00016732,0.052543,0.26162,-9.8263,0,0,38.502,1,1,7745,3872
5067,1.0223e+08,2,-0.00030122,-4.018e-05,0.0012551,0.052161,0.2626,-9.8205,0,0,38.502,1,1,7745,3872
5102,1.0224e+08,2,-0.0010058,0.00033271,0.0016723,0.051831,0.26187,-9.8184,0,0,38.502,1,1,7745,3872
5108,1.0224e+08,2,-0.00078424,0.00041376,0.0017783,0.050517,0.26248,-9.8156,0,0,38.502,1,1,7745,3872
5111,1.0224e+08,2,-5.91e-05,0.00040573,0.0016996,0.047468,0.2623,-9.8097,0,0,38.502,1,1,7745,3872
5114,1.0225e+08,2,0.00048474,-2.6901e-05,0.0024389,0.051603,0.25357,-9.8017,0,0,38.503,1,1,7745,3872
5149,1.0225e+08,2,0.0003093,0.00062169,0.0021717,0.053541,0.25074,-9.7993,0,0,38.503,1,1,7745,3872
5153,1.0226e+08,2,0.0011827,0.00048406,0.0019433,0.05322,0.24853,-9.7987,0,0,38.503,1,1,7745,3872
5156,1.0226e+08,2,0.0011528,0.00059664,0.0016483,0.052509,0.24768,-9.7985,0,0,38.503,1,1,7745,3872
5159,1.0226e+08,2,0.00072931,0.0013621,0.0014041,0.053984,0.24838,-9.8005,0,0,38.503,1,1,7745,3872
5194,1.0226e+08,2,0.00056229,0.0008419,0.0013983,0.057291,0.25107,-9.8028,0,0,38.503,1,1,7745,3872
5197,1.0227e+08,2,0.00015364,0.00040336,0.0015257,0.060325,0.25311,-9.8049,0,0,38.503,1,1,7745,3872
5201,1.0227e+08,2,-0.00037267,0.00033416,0.0011054,0.064153,0.25454,-9.8077,0,0,38.503,1,1,7745,3872
5204,1.0227e+08,2,-0.0019746,0.00034877,0.00094337,0.06871,0.25487,-9.8143,0,0,38.503,1,1,7745,3872
5239,1.0227e+08,2,-0.0015525,-0.00020634,0.0010548,0.069633,0.25568,-9.8225,0,0,38.503,1,1,7745,3872
5243,1.0228e+08,2,-0.0010617,-0.00032077,0.0019543,0.069208,0.25628,-9.8264,0,0,38.503,1,1,7745,3872
5246,1.0228e+08,2,-0.00054071,0.00128,0.0027359,0.06755,0.25724,-9.8293,0,0,38.504,1,1,7745,3872
5249,1.0228e+08,2,-0.00034367,0.0022174,0.0026892,0.067309,0.25738,-9.8292,0,0,38.504,1,1,7745,3872
5284,1.0229e+08,2,-0.00080702,0.0021793,0.0022262,0.06769,0.25823,-9.8289,0,0,38.504,1,1,7745,3872
5287,1.0229e+08,2,-0.00099955,0.0023058,0.0010537,0.068487,0.2592,-9.8258,0,0,38.504,1,1,7745,3872
5291,1.0229e+08,2,-0.00041199,0.0018516,0.0006417,0.068626,0.25787,-9.8225,0,0,38.504,1,1,7745,3872
5294,1.0229e+08,2,8.6106e-05,0.00077979,0.0011396,0.069535,0.25556,-9.8205,0,0,38.504,1,1,7745,3872
5329,1.023e+08,2,0.00029861,0.00042866,0.0015058,0.07137,0.25498,-9.8212,0,0,38.504,1,1,7745,3872
5333,1.023e+08,2,-0.00013055,0.00091078,0.0013978,0.071827,0.25405,-9.8206,0,0,38.504,1,1,7745,3872
5336,1.023e+08,2,-0.00016857,0.00097309,0.00162,0.070769,0.2533,-9.8174,0,0,38.504,1,1,7745,3872
5339,1.023e+08,2,-0.0001156,0.0012819,0.00052815,0.068185,0.25256,-9.8104,0,0,38.505,1,1,7745,3872
5374,1.0231e+08,2,-8.3334e-06,0.00087937,-0.00030148,0.066306,0.2531,-9.8053,0,0,38.505,1,1,7745,3872
5377,1.0231e+08,2,5.6106e-05,0.0012153,0.00048654,0.063344,0.25593,-9.8027,0,0,38.505,1,1,7745,3872
5380,1.0231e+08,2,-4.5003e-06,0.0017138,0.00030539,0.062306,0.25742,-9.8048,0,0,38.505,1,1,7745,3872
5383,1.0231e+08,2,-9.1334e-05,0.0016106,-4.6078e-05,0.06106,0.25809,-9.8091,0,0,38.505,1,1,7745,3872
5418,1.0231e+08,2,-0.00065931,0.0010764,-1.0769e-05,0.060103,0.25823,-9.8144,0,0,38.505,1,1,7745,3872
5422,1.0232e+08,2,-0.00012146,0.0011887,7.8368e-05,0.058589,0.25723,-9.8207,0,0,38.505,1,1,7745,3872
5428,1.0232e+08,2,0.00052418,0.0014026,0.00022859,0.057645,0.25592,-9.8249,0,0,38.505,1,1,7745,3872
5432,1.0232e+08,2,-0.00019939,0.0010643,0.00093541,0.055293,0.25469,-9.8316,0,0,38.506,1,1,7745,3872
5467,1.0233e+08,2,-0.0011463,0.0011709,6.8061e-05,0.051484,0.25407,-9.8376,0,0,38.506,1,1,7745,3872
5470,1.0233e+08,2,-0.00044642,0.0016007,0.00024695,0.049893,0.25415,-9.8389,0,0,38.506,1,1,7745,3872
5473,1.0233e+08,2,0.0008614,0.002313,-0.00055343,0.047177,0.25464,-9.8361,0,0,38.506,1,1,7745,3872
5476,1.0233e+08,2,0.0016306,0.0016563,-0.00099331,0.046128,0.2542,-9.833,0,0,38.506,1,1,7745,3872
5511,1.0234e+08,2,0.0019745,4.9535e-05,-0.0021173,0.047827,0.2504,-9.8262,0,0,38.506,1,1,7745,3872
5515,1.0234e+08,2,0.0018902,-0.00011197,-0.0028975,0.050036,0.24878,-9.8239,0,0,38.506,1,1,7745,3872
5518,1.0234e+08,2,0.0015282,-0.00029888,-0.0026095,0.052222,0.2478,-9.8211,0,0,38.506,1,1,7745,3872
5521,1.0234e+08,2,0.0010503,-0.00020175,-0.0020375,0.054901,0.24773,-9.818,0,0,38.507,1,1,7745,3872
5556,1.0235e+08,2,0.0013456,-0.00020179,-0.0023967,0.055974,0.24849,-9.8163,0,0,38.507,1,1,7745,3872
5560,1.0235e+08,2,0.0013866,-0.00016644,-0.002444,0.055701,0.24972,-9.8148,0,0,38.507,1,1,7745,3872
5563,1.0235e+08,2,0.0019832,0.0009015,-0.0017275,0.054337,0.25097,-9.8117,0,0,38.507,1,1,7745,3872
5566,1.0235e+08,2,0.0020248,0.00090086,-0.00048256,0.053178,0.25121,-9.8086,0,0,38.507,1,1,7745,3872
5601,1.0236e+08,2,0.0021244,-3.9478e-05,0.00024769,0.052008,0.25141,-9.8035,0,0,38.507,1,1,7745,3872
5604,1.0236e+08,2,0.0012876,0.00047708,0.0014925,0.051892,0.25365,-9.8004,0,0,38.507,1,1,7745,3872
5607,1.0236e+08,2,0.0011941,7.5433e-05,0.0018766,0.051568,0.25483,-9.7987,0,0,38.507,1,1,7745,3872
5610,1.0236e+08,2,0.0012388,-5.5308e-05,0.002334,0.050288,0.2554,-9.7973,0,0,38.507,1,1,7745,3872
5645,1.0237e+08,2,0.0013424,0.0003808,0.0024323,0.049814,0.25508,-9.7969,0,0,38.507,1,1,7745,3872
5650,1.0237e+08,2,0.0015907,0.00051848,0.0031802,0.050543,0.25552,-9.7978,0,0,38.507,1,1,7745,3872
5653,1.0237e+08,2,0.0021642,0.00015052,0.0031307,0.051091,0.25655,-9.7998,0,0,38.508,1,1,7745,3872
5656,1.0237e+08,2,0.0023175,0.00018347,0.0017326,0.050697,0.25721,-9.8058,0,0,38.508,1,1,7745,3872
5691,1.0238e+08,2,0.0017072,-7.5043e-05,0.0013313,0.050803,0.25779,-9.8075,0,0,38.508,1,1,7745,3872
5694,1.0238e+08,2,0.0013809,-0.00053341,0.00036979,0.052545,0.26126,-9.8093,0,0,38.508,1,1,7745,3872
5697,1.0238e+08,2,0.00128,-0.00042611,0.00021521,0.053885,0.26254,-9.8084,0,0,38.508,1,1,7745,3872
5700,1.0238e+08,2,0.0008089,-0.00028767,0.00014527,0.055777,0.26252,-9.8093,0,0,38.508,1,1,7745,3872
5735,1.0239e+08,2,0.00084682,-0.00049523,0.0024158,0.054936,0.26238,-9.8139,0,0,38.508,1,1,7745,3872
5739,1.0239e+08,2,0.001295,-0.00045083,0.0041034,0.054692,0.2628,-9.815,0,0,38.508,1,1,7745,3872
5742,1.0239e+08,2,0.001422,-0.001009,0.0039545,0.054648,0.2622,-9.8141,0,0,38.508,1,1,7745,3872
5745,1.024e+08,2,0.0014831,-0.0013244,0.0026595,0.05591,0.25989,-9.8125,0,0,38.508,1,1,7745,3872
5780,1.024e+08,2,0.0016099,-0.00083314,0.0021623,0.056393,0.25764,-9.8076,0,0,38.509,1,1,7745,3872
5783,1.024e+08,2,0.0013379,-0.00040126,0.0019935,0.054546,0.25736,-9.8013,0,0,38.509,1,1,7745,3872
5786,1.024e+08,2,0.0014275,-0.0003645,0.0013642,0.053715,0.25756,-9.8021,0,0,38.509,1,1,7745,3872
5789,1.0241e+08,2,0.0017683,0.00017832,0.0011059,0.052373,0.25751,-9.8074,0,0,38.509,1,1,7745,3872
5824,1.0241e+08,2,0.0012537,0.0011963,0.0017818,0.051586,0.25654,-9.8105,0,0,38.509,1,1,7745,3872
5828,1.0241e+08,2,0.00072136,0.0010289,0.0018987,0.051043,0.2558,-9.8131,0,0,38.509,1,1,7745,3872
5831,1.0241e+08,2,0.00049427,0.00084392,0.0017417,0.049952,0.25587,-9.8157,0,0,38.509,1,1,7745,3872
5834,1.0242e+08,2,0.00071875,0.00066523,0.0010285,0.048144,0.25591,-9.8168,0,0,38.509,1,1,7745,3872
5869,1.0242e+08,2,0.0012753,0.00070526,0.00081262,0.047006,0.25632,-9.8195,0,0,38.509,1,1,7745,3872
5873,1.0242e+08,2,0.0020286,0.00050643,0.0013151,0.046358,0.25881,-9.8247,0,0,38.509,1,1,7745,3872
5879,1.0242e+08,2,0.0023353,0.00092895,0.0014487,0.046397,0.26158,-9.8268,0,0,38.51,1,1,7745,3872
5883,1.0243e+08,2,0.0022743,0.00076271,0.0020317,0.046424,0.26291,-9.832,0,0,38.51,1,1,7745,3872
5918,1.0243e+08,2,0.00099946,0.00088836,0.0022981,0.045836,0.26184,-9.836,0,0,38.51,1,1,7745,3872
5921,1.0243e+08,2,-0.00015771,0.00050927,0.0014272,0.045415,0.26178,-9.8376,0,0,38.51,1,1,7745,3872
5924,1.0243e+08,2,-0.0011971,0.00020172,0.001128,0.044763,0.26192,-9.8377,0,0,38.51,1,1,7745,3872
5927,1.0244e+08,2,-0.001846,0.0010578,0.00034116,0.042504,0.26099,-9.8375,0,0,38.51,1,1,7745,3872
5962,1.0244e+08,2,-0.0020301,0.0013485,-0.00013471,0.04166,0.26021,-9.8374,0,0,38.51,1,1,7745,3872
5966,1.0244e+08,2,-0.0020659,0.0016977,-0.00022714,0.039494,0.25943,-9.8375,0,0,38.51,1,1,7745,3872
5969,1.0244e+08,2,-0.0018493,0.0022773,-0.00018662,0.039163,0.26024,-9.8386,0,0,38.511,1,1,7745,3872
5974,1.0245e+08,2,-0.0015644,0.0026658,0.00045681,0.039974,0.26041,-9.8395,0,0,38.511,1,1,7745,3872
6009,1.0245e+08,2,-0.002077,0.002176,0.0018588,0.046936,0.26257,-9.835,0,0,38.511,1,1,7745,3872
6012,1.0245e+08,2,-0.0016735,0.0016773,0.0013893,0.050817,0.26123,-9.8344,0,0,38.511,1,1,7745,3872
6015,1.0246e+08,2,-0.0018331,-0.00099417,0.0018025,0.055427,0.25502,-9.8276,0,0,38.511,1,1,7745,3872
6048,1.0246e+08,2,-0.0013138,-0.00073167,0.0015239,0.057694,0.25118,-9.8188,0,0,38.512,1,1,7745,3872
6052,1.0247e+08,2,-0.001937,-0.0004142,0.001623,0.057487,0.24719,-9.8112,0,0,38.512,1,1,7745,3872
6055,1.0247e+08,2,-0.0030674,-0.00038693,0.0019377,0.057154,0.24576,-9.8078,0,0,38.512,1,1,7745,3872
6058,1.0247e+08,2,-0.0030493,0.0001562,0.0018615,0.056579,0.24492,-9.8048,0,0,38.512,1,1,7745,3872
6091,1.0247e+08,2,-0.0023718,0.00047239,0.0019478,0.056581,0.24451,-9.8024,0,0,38.512,1,1,7745,3872
6094,1.0248e+08,2,-0.00067298,0.0015464,0.001069,0.057832,0.24499,-9.7998,0,0,38.512,1,1,7745,3872
6098,1.0248e+08,2,-0.00048826,0.0017645,-0.0001479,0.058448,0.24612,-9.7972,0,0,38.512,1,1,7745,3872
6101,1.0248e+08,2,-0.00069731,0.001519,-0.00069763,0.057942,0.24953,-9.7949,0,0,38.512,1,1,7745,3872
6134,1.0248e+08,2,-0.00044733,0.0011825,-0.0010338,0.056775,0.25296,-9.7942,0,0,38.513,1,1,7745,3872
6138,1.0249e+08,2,0.00070281,-0.00015298,-0.0010791,0.055346,0.2578,-9.7933,0,0,38.513,1,1,7745,3872
6141,1.0249e+08,2,0.00059009,-2.1326e-05,-0.00089324,0.054752,0.26057,-9.793,0,0,38.513,1,1,7745,3872
6144,1.0249e+08,2,0.00027779,0.00041812,-0.00099549,0.054853,0.26168,-9.7946,0,0,38.513,1,1,7745,3872
6177,1.0249e+08,2,0.0010283,0.00085194,-0.0010998,0.054718,0.26126,-9.7975,0,0,38.513,1,1,7745,3872
6181,1.025e+08,2,0.0016208,0.0017803,-0.00024915,0.054865,0.26011,-9.8006,0,0,38.513,1,1,7745,3872
6184,1.025e+08,2,0.0016635,0.003472,0.00040008,0.054423,0.25706,-9.8038,0,0,38.513,1,1,7745,3872
6187,1.025e+08,2,0.001438,0.0030065,0.00032234,0.054087,0.25558,-9.8058,0,0,38.513,1,1,7745,3872
6222,1.025e+08,2,0.0016092,0.0014048,-0.00074853,0.052662,0.25395,-9.8096,0,0,38.514,1,1,7745,3872
6226,1.0251e+08,2,0.0019793,0.0013242,-0.0010606,0.050732,0.25277,-9.8137,0,0,38.514,1,1,7745,3872
6229,1.0251e+08,2,0.0021743,0.0013287,-0.001063,0.048558,0.25183,-9.8216,0,0,38.514,1,1,7745,3872
6232,1.0251e+08,2,0.0020968,0.0014989,-0.00043125,0.049103,0.25223,-9.8263,0,0,38.514,1,1,7745,3872
6265,1.0251e+08,2,0.0035587,0.0023004,0.00022933,0.050491,0.25461,-9.8328,0,0,38.514,1,1,7745,3872
6269,1.0252e+08,2,0.0035202,0.0024693,-0.00014365,0.050604,0.25743,-9.8374,0,0,38.514,1,1,7745,3872
6272,1.0252e+08,2,0.0038297,0.0024841,-0.00038477,0.049785,0.25911,-9.8388,0,0,38.514,1,1,7745,3872
6275,1.0252e+08,2,0.0041785,0.0019027,3.2476e-05,0.048017,0.26019,-9.8397,0,0,38.514,1,1,7745,3872
6308,1.0252e+08,2,0.0033957,0.0014792,0.00074277,0.047375,0.2605,-9.8396,0,0,38.514,1,1,7745,3872
6314,1.0253e+08,2,0.0027971,0.00066784,0.00064344,0.046412,0.26258,-9.8369,0,0,38.514,1,1,7745,3872
6318,1.0253e+08,2,0.0028581,-0.00026107,0.00088425,0.045406,0.26506,-9.8339,0,0,38.514,1,1,7745,3872
6321,1.0253e+08,2,0.0041422,0.00017832,0.0014521,0.046189,0.26819,-9.827,0,0,38.514,1,1,7745,3872
6354,1.0253e+08,2,0.0049774,0.0011569,0.0020889,0.048202,0.26906,-9.8214,0,0,38.514,1,1,7745,3872
6358,1.0254e+08,2,0.0046119,0.0011589,0.0019487,0.049912,0.2696,-9.8177,0,0,38.515,1,1,7745,3872
6361,1.0254e+08,2,0.0038101,0.00074732,0.0029177,0.051622,0.2699,-9.815,0,0,38.515,1,1,7745,3872
6364,1.0254e+08,2,0.0038431,0.00064018,0.0024721,0.052889,0.26812,-9.8129,0,0,38.515,1,1,7745,3872
6397,1.0255e+08,2,0.0034213,0.00025425,0.0020068,0.053796,0.26455,-9.8101,0,0,38.515,1,1,7745,3872
6401,1.0255e+08,2,0.003481,-0.00043333,0.0012032,0.05536,0.26247,-9.8092,0,0,38.515,1,1,7745,3872
6404,1.0255e+08,2,0.0035801,-6.7066e-05,0.0011664,0.057642,0.26288,-9.8079,0,0,38.515,1,1,7745,3872
6407,1.0255e+08,2,0.0021019,-7.6307e-05,0.0014947,0.061493,0.26341,-9.8063,0,0,38.515,1,1,7745,3872
6440,1.0256e+08,2,0.00080913,0.00057097,0.0014461,0.063403,0.26413,-9.8044,0,0,38.515,1,1,7745,3872
6444,1.0256e+08,2,0.00014276,0.0014445,0.001984,0.064102,0.26534,-9.8025,0,0,38.515,1,1,7745,3872
6447,1.0256e+08,2,0.00026425,0.0012645,0.002643,0.063723,0.26533,-9.8023,0,0,38.515,1,1,7745,3872
6450,1.0256e+08,2,0.00098161,0.00026153,0.0029309,0.063344,0.2636,-9.8042,0,0,38.515,1,1,7745,3872
6483,1.0256e+08,2,0.00096542,0.00013424,0.0027536,0.063538,0.26295,-9.805,0,0,38.515,1,1,7745,3872
6487,1.0257e+08,2,0.00092331,0.00078582,0.0035042,0.063799,0.26205,-9.8093,0,0,38.515,1,1,7745,3872
6490,1.0257e+08,2,0.0006939,0.00071242,0.0033409,0.063211,0.26104,-9.8133,0,0,38.515,1,1,7745,3872
6493,1.0257e+08,2,-0.00034355,0.0004735,0.0029511,0.061721,0.25915,-9.818,0,0,38.515,1,1,7745,3872
6527,1.0257e+08,2,-0.00028744,0.00056177,0.0021017,0.060745,0.2587,-9.8204,0,0,38.515,1,1,7745,3872
6530,1.0258e+08,2,-0.00083084,-0.00035069,0.0030608,0.060513,0.26047,-9.8216,0,0,38.515,1,1,7745,3872
6533,1.0258e+08,2,-0.0012837,-0.00059796,0.0041385,0.061445,0.26273,-9.8203,0,0,38.515,1,1,7745,3872
6536,1.0258e+08,2,-0.0019588,-0.00086884,0.0041599,0.061138,0.2636,-9.8161,0,0,38.515,1,1,7745,3872
6539,1.0258e+08,2,-0.0020125,-0.0010462,0.003782,0.061476,0.26238,-9.8129,0,0,38.515,1,1,7745,3872
6573,1.0259e+08,2,-0.0017574,-0.001351,0.0040277,0.061697,0.25984,-9.8059,0,0,38.515,1,1,7745,3872
6576,1.0259e+08,2,-0.0018373,-0.0017516,0.0035867,0.061734,0.2585,-9.8005,0,0,38.515,1,1,7745,3872
6579,1.0259e+08,2,-0.0011464,-0.0021518,0.0031057,0.061449,0.25524,-9.7973,0,0,38.516,1,1,7745,3872
6582,1.026e+08,2,-0.00064613,-0.0015809,0.0033126,0.060292,0.25387,-9.7977,0,0,38.516,1,1,7745,3872
6615,1.026e+08,2,-0.00106,-0.00068469,0.0030162,0.058415,0.25336,-9.7991,0,0,38.516,1,1,7745,3872
6619,1.026e+08,2,-0.0014214,-0.00015677,0.0021488,0.055957,0.25374,-9.8001,0,0,38.516,1,1,7745,3872
6622,1.026e+08,2,-0.0017383,-9.4587e-05,0.0013027,0.051204,0.25316,-9.7997,0,0,38.516,1,1,7745,3872
6625,1.0261e+08,2,-0.0023055,-0.00043815,0.00071853,0.046812,0.25101,-9.8028,0,0,38.516,1,1,7745,3872
6658,1.0261e+08,2,-0.0023754,8.5938e-05,0.00047482,0.04435,0.24927,-9.8066,0,0,38.516,1,1,7745,3872
6661,1.0261e+08,2,-0.0017746,0.0008399,0.00055564,0.04238,0.24857,-9.8094,0,0,38.516,1,1,7745,3872
6664,1.0261e+08,2,-0.0016559,0.00082432,0.00065855,0.042109,0.2494,-9.8132,0,0,38.516,1,1,7745,3872
6667,1.0262e+08,2,-0.0019327,-5.7791e-05,-0.00027416,0.042588,0.25119,-9.8188,0,0,38.516,1,1,7745,3872
6700,1.0262e+08,2,-0.001987,-0.00076677,0.00050384,0.043871,0.25619,-9.829,0,0,38.516,1,1,7745,3872
6704,1.0262e+08,2,-0.0018871,-0.0011228,0.0010155,0.044581,0.25987,-9.8343,0,0,38.516,1,1,7745,3872
6707,1.0262e+08,2,-0.00090528,-0.00040067,0.001684,0.045222,0.26596,-9.8388,0,0,38.516,1,1,7745,3872
6710,1.0263e+08,2,-0.0011716,6.2559e-05,0.002213,0.045525,0.2678,-9.8404,0,0,38.516,1,1,7745,3872
6746,1.0263e+08,2,-0.0015292,-0.0001443,0.0013325,0.044571,0.26806,-9.8398,0,0,38.516,1,1,7745,3872
6750,1.0263e+08,2,-0.0015754,0.00024136,-0.00096268,0.043636,0.26635,-9.8358,0,0,38.516,1,1,7745,3872
6753,1.0263e+08,2,-0.0012392,0.00039616,-0.00229,0.043241,0.26458,-9.8325,0,0,38.516,1,1,7745,3872
6756,1.0264e+08,2,-0.00057148,0.00033607,-0.0020921,0.04372,0.2635,-9.8289,0,0,38.516,1,1,7745,3872
6789,1.0264e+08,2,-0.00079166,0.00075024,-0.0015623,0.044381,0.26362,-9.8279,0,0,38.516,1,1,7745,3872
6793,1.0264e+08,2,-0.00061987,0.00029587,-0.00066227,0.043917,0.26366,-9.8294,0,0,38.516,1,1,7745,3872
6796,1.0264e+08,2,0.00020291,-2.0177e-05,-0.00079798,0.043271,0.26248,-9.8306,0,0,38.516,1,1,7745,3872
6799,1.0265e+08,2,0.00016078,-9.0031e-05,-0.0011415,0.042089,0.25974,-9.8313,0,0,38.516,1,1,7745,3872
6832,1.0265e+08,2,-0.00024758,-0.0001617,-0.0017789,0.04192,0.25619,-9.8333,0,0,38.517,1,1,7745,3872
6837,1.0265e+08,2,-0.00017905,-0.000326,-0.0020256,0.042375,0.25432,-9.8328,0,0,38.517,1,1,7745,3872
6840,1.0265e+08,2,0.00061767,-0.00082268,-0.0025467,0.043236,0.25339,-9.8318,0,0,38.517,1,1,7745,3872
6843,1.0266e+08,2,0.00034494,0.00033028,-0.00092442,0.040725,0.25411,-9.8281,0,0,38.517,1,1,7745,3872
6877,1.0266e+08,2,0.0013141,0.0030523,0.0011025,0.041368,0.25689,-9.8214,0,0,38.517,1,1,7745,3872
6880,1.0267e+08,2,0.0015984,0.0034422,0.0012954,0.043448,0.25827,-9.8203,0,0,38.517,1,1,7745,3872
6883,1.0267e+08,2,0.00086192,0.0032895,0.00011322,0.048712,0.26066,-9.8244,0,0,38.517,1,1,7745,3872
6918,1.0268e+08,2,-0.000476,0.0043063,0.00041726,0.055509,0.26123,-9.8324,0,0,38.517,1,1,7745,3872
6921,1.0268e+08,2,-0.00071619,0.0042811,0.00072235,0.05498,0.26143,-9.8315,0,0,38.518,1,1,7745,3872
6924,1.0268e+08,2,-0.00021317,0.0037138,0.0013252,0.053553,0.26184,-9.8292,0,0,38.518,1,1,7745,3872
6959,1.0268e+08,2,0.00022372,0.0022885,0.0019637,0.050716,0.26249,-9.8238,0,0,38.518,1,1,7745,3872
6962,1.0269e+08,2,-1.1415e-05,0.0013403,0.0020511,0.045429,0.26184,-9.8164,0,0,38.518,1,1,7745,3872
6965,1.0269e+08,2,0.00067093,0.0016715,0.0022686,0.041304,0.26048,-9.8127,0,0,38.518,1,1,7745,3872
6968,1.0269e+08,2,0.002176,0.0019745,0.0015913,0.037529,0.25867,-9.8081,0,0,38.518,1,1,7745,3872
7003,1.0269e+08,2,0.0022477,0.0019238,0.0012682,0.035374,0.25821,-9.8013,0,0,38.518,1,1,7745,3872
7006,1.027e+08,2,0.0014109,0.0019065,-0.00011009,0.035064,0.25928,-9.792,0,0,38.518,1,1,7745,3872
7010,1.027e+08,2,0.00086109,0.0018405,-0.00064699,0.036675,0.25969,-9.7871,0,0,38.518,1,1,7745,3872
7013,1.027e+08,2,0.00092739,0.0017117,-0.001162,0.041397,0.26031,-9.7787,0,0,38.518,1,1,7745,3872
7048,1.027e+08,2,0.0010709,0.0018203,-0.001426,0.045643,0.2602,-9.7759,0,0,38.519,1,1,7745,3872
7051,1.0271e+08,2,0.00061619,0.0021235,-0.00073923,0.052419,0.26075,-9.7792,0,0,38.519,1,1,7745,3872
7056,1.0271e+08,2,0.0010386,0.0020006,-0.00049185,0.056953,0.2622,-9.7861,0,0,38.519,1,1,7745,3872
7059,1.0271e+08,2,0.0013472,0.00087077,0.00071303,0.061317,0.26558,-9.797,0,0,38.519,1,1,7745,3872
7094,1.0271e+08,2,0.0011434,0.00033218,0.0011184,0.06264,0.26866,-9.8019,0,0,38.519,1,1,7745,3872
7097,1.0272e+08,2,0.0010596,0.00063093,0.00042146,0.063839,0.27038,-9.8074,0,0,38.519,1,1,7745,3872
7100,1.0272e+08,2,0.00067492,0.00073039,0.00090322,0.063135,0.2706,-9.8093,0,0,38.519,1,1,7745,3872
7103,1.0272e+08,2,0.00061091,0.00035296,0.0017901,0.061261,0.26998,-9.8107,0,0,38.519,1,1,7745,3872
7138,1.0272e+08,2,0.0010694,0.00045383,0.0018571,0.05968,0.26866,-9.8139,0,0,38.519,1,1,7745,3872
7141,1.0273e+08,2,0.0010183,0.0004568,0.0020537,0.05938,0.26674,-9.8216,0,0,38.519,1,1,7745,3872
7145,1.0273e+08,2,0.00054076,3.4053e-05,0.0025013,0.059225,0.26655,-9.8257,0,0,38.519,1,1,7745,3872
7151,1.0273e+08,2,9.6442e-05,-0.00053616,0.0027813,0.058746,0.267,-9.8288,0,0,38.52,1,1,7745,3872
7187,1.0273e+08,2,0.00019712,0.00019942,0.0023738,0.05793,0.26786,-9.8303,0,0,38.52,1,1,7745,3872
7190,1.0274e+08,2,0.0006264,0.00039854,0.0022001,0.056709,0.2674,-9.8301,0,0,38.52,1,1,7745,3872
7193,1.0274e+08,2,0.00073104,0.00016322,0.0019946,0.056079,0.26584,-9.8289,0,0,38.52,1,1,7745,3872
7196,1.0274e+08,2,-0.00012375,-0.00081819,0.0017545,0.055222,0.26488,-9.8269,0,0,38.52,1,1,7745,3872
7231,1.0274e+08,2,-0.00091931,-0.00075559,0.0016588,0.055741,0.2641,-9.8283,0,0,38.52,1,1,7745,3872
7234,1.0275e+08,2,-0.001315,-0.00062041,0.00098192,0.057067,0.26176,-9.8304,0,0,38.52,1,1,7745,3872
7239,1.0275e+08,2,-0.00096773,-0.00073977,0.00023317,0.058064,0.25886,-9.831,0,0,38.52,1,1,7745,3872
7242,1.0275e+08,2,-0.0011685,-0.00050078,0.00017265,0.058081,0.25796,-9.8309,0,0,38.52,1,1,7745,3872
7277,1.0275e+08,2,-0.0015562,1.8205e-05,-0.00032009,0.057819,0.25654,-9.8322,0,0,38.52,1,1,7745,3872
7280,1.0276e+08,2,-0.0012102,9.049e-05,-0.0004207,0.058964,0.25573,-9.8353,0,0,38.52,1,1,7745,3872
7283,1.0276e+08,2,-0.00071337,0.00012335,-4.6618e-05,0.059951,0.25558,-9.8345,0,0,38.52,1,1,7745,3872
7286,1.0276e+08,2,0.00013153,0.00036969,0.0012003,0.060688,0.2565,-9.8275,0,0,38.52,1,1,7745,3872
7321,1.0276e+08,2,-0.0002987,0.00076589,0.0018745,0.060194,0.25758,-9.8214,0,0,38.52,1,1,7745,3872
7324,1.0277e+08,2,-0.00024101,0.0011412,0.0018994,0.059714,0.25968,-9.816,0,0,38.52,1,1,7745,3872
7328,1.0277e+08,2,-0.00031085,0.0010715,0.00085496,0.059046,0.26173,-9.8168,0,0,38.52,1,1,7745,3872
7331,1.0277e+08,2,-0.00088707,0.0010397,0.0010395,0.059105,0.26371,-9.8259,0,0,38.521,1,1,7745,3872
7366,1.0277e+08,2,-0.00087325,0.00072362,0.00086719,0.059727,0.26464,-9.8316,0,0,38.521,1,1,7745,3872
7369,1.0278e+08,2,-0.00059244,0.00082527,0.00024494,0.060699,0.26672,-9.8399,0,0,38.521,1,1,7745,3872
7372,1.0278e+08,2,0.0002479,0.0011236,0.00041801,0.061635,0.26659,-9.8411,0,0,38.521,1,1,7745,3872
7407,1.0279e+08,2,-0.0002354,0.0010956,0.001267,0.062308,0.26488,-9.8402,0,0,38.521,1,1,7745,3872
7410,1.0279e+08,2,-0.00045725,0.0009461,0.0012559,0.06299,0.26342,-9.8394,0,0,38.521,1,1,7745,3872
7414,1.0279e+08,2,-0.00055326,0.00033523,9.8323e-05,0.064335,0.26276,-9.8353,0,0,38.521,1,1,7745,3872
7417,1.0279e+08,2,-0.00030924,0.00042232,-0.00070673,0.06446,0.26355,-9.8296,0,0,38.521,1,1,7745,3872
7452,1.028e+08,2,0.00040194,0.0017207,-9.1589e-05,0.064434,0.26301,-9.8183,0,0,38.521,1,1,7745,3872
7455,1.028e+08,2,0.0011551,0.0028371,-0.00044126,0.065408,0.26235,-9.809,0,0,38.521,1,1,7745,3872
7460,1.028e+08,2,0.00116,0.0024002,-0.00071069,0.065676,0.26383,-9.8035,0,0,38.521,1,1,7745,3872
7464,1.028e+08,2,0.0010151,0.0012265,-0.00041489,0.065831,0.26613,-9.7978,0,0,38.521,1,1,7745,3872
7500,1.0281e+08,2,0.00012985,0.00095143,0.00045411,0.065052,0.26668,-9.7952,0,0,38.521,1,1,7745,3872
7503,1.0281e+08,2,-0.00030191,0.00073075,0.0017495,0.06293,0.264,-9.7926,0,0,38.521,1,1,7745,3872
7506,1.0281e+08,2,0.00020648,0.00057936,0.00223,0.060588,0.25969,-9.794,0,0,38.521,1,1,7745,3872
7509,1.0281e+08,2,0.0004359,0.00071267,0.0016163,0.057347,0.25561,-9.7955,0,0,38.521,1,1,7745,3872
7544,1.0282e+08,2,0.00072704,0.0014604,0.0011906,0.052696,0.25161,-9.7939,0,0,38.521,1,1,7745,3872
7547,1.0282e+08,2,0.00079755,0.0014373,0.00060831,0.050895,0.25108,-9.7942,0,0,38.521,1,1,7745,3872
7551,1.0282e+08,2,0.0010694,0.0015027,-0.0014637,0.050444,0.25313,-9.794,0,0,38.521,1,1,7745,3872
7554,1.0282e+08,2,0.0027407,0.0009465,-0.00010286,0.050035,0.26057,-9.7927,0,0,38.521,1,1,7745,3872
7589,1.0283e+08,2,0.0062238,-8.656e-05,0.0042473,0.048039,0.26548,-9.8015,0,0,38.521,1,1,7745,3872
7592,1.0283e+08,2,0.004051,0.00063504,0.0066222,0.045532,0.26536,-9.8086,0,0,38.521,1,1,7745,3872
7595,1.0283e+08,2,0.00064077,0.0019064,0.009063,0.044543,0.26325,-9.8124,0,0,38.521,1,1,7745,3872
7601,1.0283e+08,2,0.00084608,0.0022657,0.010765,0.044354,0.25646,-9.8112,0,0,38.522,1,1,7745,3872
7637,1.0284e+08,2,0.005071,0.0002764,0.0093557,0.044606,0.25014,-9.8109,0,0,38.522,1,1,7745,3872
7642,1.0284e+08,2,0.0057308,-0.00088734,0.0063836,0.043068,0.24821,-9.8267,0,0,38.522,1,1,7745,3872
7646,1.0285e+08,2,0.001305,0.001488,0.0046689,0.046099,0.25459,-9.8338,0,0,38.522,1,1,7745,3872
7681,1.0285e+08,2,-0.0026705,0.0014125,0.0070373,0.045463,0.2556,-9.8315,0,0,38.522,1,1,7745,3872
7685,1.0285e+08,2,-0.0038074,0.002979,0.0099156,0.044018,0.25994,-9.83,0,0,38.522,1,1,7745,3872
7688,1.0285e+08,2,0.0089411,0.003472,0.012923,0.040661,0.26627,-9.8248,0,0,38.522,1,1,7745,3872
7691,1.0286e+08,2,0.016355,8.2982e-05,0.012507,0.038853,0.26613,-9.8287,0,0,38.522,1,1,7745,3872
7726,1.0286e+08,2,-0.0082086,-0.0015621,0.012363,0.039952,0.26032,-9.8402,0,0,38.522,1,1,7745,3872
7729,1.0286e+08,2,-0.02083,0.0044179,0.012427,0.040755,0.25769,-9.8294,0,0,38.522,1,1,7745,3872
7733,1.0287e+08,2,-0.011706,0.0080807,0.011119,0.041884,0.25601,-9.8133,0,0,38.522,1,1,7745,3872
7736,1.0287e+08,2,0.024154,0.0030679,0.0078653,0.041429,0.25231,-9.8172,0,0,38.522,1,1,7745,3872
7771,1.0287e+08,2,0.015431,-0.00067654,0.0055793,0.038198,0.25007,-9.8583,0,0,38.522,1,1,7745,3872
7775,1.0287e+08,2,-0.014784,0.0029949,0.0066386,0.035497,0.25162,-9.8671,0,0,38.522,1,1,7745,3872
7778,1.0288e+08,2,-0.029649,0.0066969,0.0078201,0.034291,0.25513,-9.8469,0,0,38.522,1,1,7745,3872
7781,1.0288e+08,2,0.0040532,0.0016392,0.0067939,0.035625,0.25693,-9.8183,0,0,38.522,1,1,7745,3872
7816,1.0288e+08,2,0.028368,-0.0021316,0.0020621,0.041291,0.25249,-9.8233,0,0,38.522,1,1,7745,3872
7819,1.0288e+08,2,0.007091,0.0039345,-0.00040964,0.046786,0.24982,-9.8439,0,0,38.522,1,1,7745,3872
7822,1.0289e+08,2,-0.02188,0.0099055,-0.0016381,0.056271,0.24878,-9.8347,0,0,38.522,1,1,7745,3872
7825,1.0289e+08,2,-0.027235,0.0068342,-0.0032716,0.061474,0.24841,-9.8029,0,0,38.522,1,1,7745,3872
7860,1.0289e+08,2,0.026763,-0.0086179,-0.0089494,0.064026,0.2477,-9.8015,0,0,38.522,1,1,7745,3872
7864,1.0289e+08,2,0.029419,-0.0014482,-0.010817,0.066191,0.24675,-9.8347,0,0,38.522,1,1,7745,3872
7867,1.029e+08,2,0.001275,0.011966,-0.010859,0.069796,0.24909,-9.8466,0,0,38.522,1,1,7745,3872
7870,1.029e+08,2,-0.027502,0.0089534,-0.010646,0.072973,0.25216,-9.8041,0,0,38.522,1,1,7745,3872
7905,1.029e+08,2,0.006315,-0.013685,-0.01442,0.066512,0.24888,-9.788,0,0,38.522,1,1,7745,3872
7908,1.029e+08,2,0.028067,-0.0046586,-0.016407,0.060403,0.25172,-9.8268,0,0,38.522,1,1,7745,3872
7912,1.0291e+08,2,0.0082148,0.011076,-0.014237,0.057703,0.25417,-9.8347,0,0,38.522,1,1,7745,3872
7916,1.0291e+08,2,-0.02556,0.011667,-0.012371,0.057178,0.25253,-9.8088,0,0,38.521,1,1,7745,3872
7951,1.0291e+08,2,-0.01906,-0.005745,-0.01505,0.058185,0.24558,-9.7592,0,0,38.521,1,1,7745,3872
7955,1.0291e+08,2,0.005399,-0.016716,-0.019453,0.058898,0.2399,-9.7669,0,0,38.521,1,1,7745,3872
7958,1.0292e+08,2,0.021537,-0.0010188,-0.023198,0.065354,0.23825,-9.8212,0,0,38.521,1,1,7745,3872
7961,1.0292e+08,2,0.0087278,0.0085427,-0.020677,0.070171,0.24189,-9.8395,0,0,38.521,1,1,7745,3872
7996,1.0292e+08,2,-0.014483,-0.0054552,-0.016475,0.073081,0.24154,-9.8185,0,0,38.521,1,1,7745,3872
8000,1.0293e+08,2,-0.012825,-0.018254,-0.015176,0.078237,0.24309,-9.7898,0,0,38.521,1,1,7745,3872
8003,1.0293e+08,2,0.0028013,-0.0097974,-0.014887,0.080631,0.24332,-9.7942,0,0,38.521,1,1,7745,3872
8007,1.0293e+08,2,0.013693,0.0069149,-0.015347,0.084989,0.24631,-9.8268,0,0,38.521,1,1,7745,3872
8042,1.0293e+08,2,0.0090215,0.0030466,-0.0168,0.08505,0.25017,-9.8375,0,0,38.521,1,1,7745,3872
8045,1.0294e+08,2,-0.0055923,-0.010727,-0.019453,0.080881,0.25172,-9.8255,0,0,38.521,1,1,7745,3872
8051,1.0294e+08,2,-0.013466,-0.0098407,-0.019473,0.078838,0.25192,-9.8107,0,0,38.521,1,1,7745,3872
8055,1.0294e+08,2,-0.0050413,-0.0056113,-0.016087,0.073261,0.25578,-9.8047,0,0,38.521,1,1,7745,3872
8090,1.0294e+08,2,0.010488,-0.0074577,-0.013611,0.063552,0.26114,-9.818,0,0,38.521,1,1,7745,3872
8094,1.0295e+08,2,0.018082,-0.0080109,-0.011585,0.051313,0.26501,-9.8541,0,0,38.521,1,1,7745,3872
8097,1.0295e+08,2,0.010265,-0.0036309,-0.0086156,0.045655,0.2656,-9.8613,0,0,38.521,1,1,7745,3872
8100,1.0295e+08,2,-0.015777,0.0046322,-0.0037921,0.0414,0.26366,-9.8354,0,0,38.521,1,1,7745,3872
8135,1.0295e+08,2,-0.018078,0.0027525,-0.0023232,0.04058,0.26245,-9.8171,0,0,38.521,1,1,7745,3872
8138,1.0296e+08,2,0.0075691,-0.0079763,-0.0037022,0.036793,0.25772,-9.8352,0,0,38.521,1,1,7745,3872
8141,1.0296e+08,2,0.016993,-0.0062605,-0.0043223,0.035819,0.25487,-9.8686,0,0,38.521,1,1,7745,3872
8144,1.0296e+08,2,-0.0055275,0.0062327,-0.001193,0.03664,0.25824,-9.8899,0,0,38.521,1,1,7745,3872
8180,1.0296e+08,2,-0.022068,0.0067801,0.0042805,0.03466,0.26704,-9.865,0,0,38.521,1,1,7745,3872
8184,1.0297e+08,2,-0.010622,0.0014526,0.006667,0.032377,0.27004,-9.8528,0,0,38.521,1,1,7745,3872
8187,1.0297e+08,2,0.0096279,0.0015931,0.0076949,0.027661,0.27168,-9.8635,0,0,38.521,1,1,7745,3872
8190,1.0297e+08,2,0.0046286,0.0079216,0.0078247,0.024254,0.27392,-9.8716,0,0,38.521,1,1,7745,3872
8225,1.0297e+08,2,-0.015315,0.011851,0.0094589,0.021131,0.27839,-9.8628,0,0,38.521,1,1,7745,3872
8228,1.0298e+08,2,-0.013092,0.0060065,0.010444,0.020585,0.2889,-9.8209,0,0,38.521,1,1,7745,3872
8231,1.0298e+08,2,0.0011625,-0.0017312,0.011951,0.024139,0.29424,-9.8013,0,0,38.521,1,1,7745,3872
8235,1.0298e+08,2,0.0084498,-0.0027395,0.017066,0.029557,0.30155,-9.8158,0,0,38.521,1,1,7745,3872
8270,1.0299e+08,2,-0.010513,0.011432,0.023187,0.034096,0.31214,-9.8278,0,0,38.521,1,1,7745,3872
8275,1.0299e+08,2,-0.0066721,0.017439,0.024969,0.042472,0.31741,-9.7967,0,0,38.521,1,1,7745,3872
8278,1.0299e+08,2,0.01065,0.0095038,0.022757,0.049278,0.31442,-9.7796,0,0,38.521,1,1,7745,3872
8281,1.0299e+08,2,0.012184,-0.0043503,0.02002,0.059564,0.30735,-9.7914,0,0,38.521,1,1,7745,3872
8318,1.03e+08,2,-0.012637,-0.00040202,0.021045,0.070304,0.30505,-9.8123,0,0,38.521,1,1,7745,3872
8322,1.03e+08,2,-0.0073337,0.0080188,0.023642,0.078701,0.30086,-9.801,0,0,38.521,1,1,7745,3872
8325,1.03e+08,2,0.012426,0.0061225,0.024645,0.079566,0.29894,-9.7965,0,0,38.521,1,1,7745,3872
8328,1.03e+08,2,0.021085,0.0001467,0.025864,0.072229,0.29508,-9.8139,0,0,38.521,1,1,7745,3872
8363,1.0301e+08,2,0.0049072,-0.00015534,0.026575,0.069697,0.29519,-9.824,0,0,38.521,1,1,7745,3872
8366,1.0301e+08,2,-0.011035,0.001049,0.025967,0.062887,0.29006,-9.8382,0,0,38.521,1,1,7745,3872
8369,1.0301e+08,2,-0.012346,0.00024628,0.02385,0.057197,0.28125,-9.8261,0,0,38.521,1,1,7745,3872
8372,1.0301e+08,2,0.0078649,-0.0031779,0.018657,0.044805,0.26769,-9.7973,0,0,38.521,1,1,7745,3872
8407,1.0302e+08,2,0.016485,-0.0023643,0.015768,0.034558,0.26176,-9.7938,0,0,38.521,1,1,7745,3872
8411,1.0302e+08,2,0.0083114,-0.0013665,0.016495,0.029825,0.26026,-9.8109,0,0,38.521,1,1,7745,3872
8414,1.0302e+08,2,-0.0052451,0.0013419,0.017776,0.020516,0.2559,-9.8385,0,0,38.521,1,1,7745,3872
8419,1.0302e+08,2,-0.0064727,0.0061078,0.0167,0.014058,0.25061,-9.8394,0,0,38.521,1,1,7745,3872
8454,1.0303e+08,2,0.0032442,0.0087363,0.012808,0.0079594,0.23916,-9.8147,0,0,38.52,1,1,7745,3872
8458,1.0303e+08,2,0.012137,-0.0023191,0.0085512,0.0058805,0.22586,-9.8039,0,0,38.52,1,1,7745,3872
8461,1.0303e+08,2,0.0088103,-0.0057002,0.0058377,0.0067627,0.21896,-9.8212,0,0,38.52,1,1,7745,3872
8464,1.0303e+08,2,-0.0080322,0.0051791,0.0031298,0.011769,0.21361,-9.8393,0,0,38.52,1,1,7745,3872
8499,1.0304e+08,2,-0.012175,0.0091892,0.0021618,0.020015,0.20955,-9.8343,0,0,38.52,1,1,7745,3872
8503,1.0304e+08,2,-0.0085754,0.0070813,-0.00023414,0.03748,0.2029,-9.7848,0,0,38.52,1,1,7745,3872
8509,1.0304e+08,2,0.0037708,-0.0026298,-0.0023813,0.05209,0.19993,-9.7637,0,0,38.52,1,1,7745,3872
8513,1.0304e+08,2,0.012203,-0.0072856,-0.0062385,0.08041,0.20234,-9.7745,0,0,38.52,1,1,7745,3872
8550,1.0305e+08,2,-0.0037322,-0.00031703,-0.008315,0.11145,0.21305,-9.7901,0,0,38.52,1,1,7745,3872
8554,1.0305e+08,2,-0.0080379,-0.012583,-0.013344,0.14883,0.22899,-9.7728,0,0,38.52,1,1,7745,3872
8557,1.0306e+08,2,0.011544,-0.013178,-0.016767,0.15758,0.24784,-9.7981,0,0,38.52,1,1,7745,3872
8592,1.0306e+08,2,0.0067655,-0.0018034,-0.017524,0.13967,0.28458,-9.8716,0,0,38.52,1,1,7745,3872
8596,1.0306e+08,2,-0.0083917,-0.0053247,-0.019014,0.11066,0.29659,-9.8889,0,0,38.521,1,1,7745,3872
8599,1.0307e+08,2,-0.0069032,-0.0059514,-0.020772,0.099866,0.2984,-9.8875,0,0,38.521,1,1,7745,3872
8634,1.0307e+08,2,0.002583,-0.0036721,-0.022482,0.065605,0.29869,-9.8718,0,0,38.521,1,1,7745,3872
8637,1.0307e+08,2,0.010266,0.00059346,-0.023321,0.039719,0.29489,-9.8641,0,0,38.521,1,1,7745,3872
8641,1.0307e+08,2,0.0056793,0.0095124,-0.022097,-0.00015243,0.28552,-9.8558,0,0,38.521,1,1,7745,3872
8644,1.0308e+08,2,-0.0035297,0.011437,-0.019909,-0.021994,0.27817,-9.8397,0,0,38.521,1,1,7745,3872
8679,1.0308e+08,2,-0.0083818,0.0030799,-0.015999,-0.046711,0.26587,-9.8037,0,0,38.521,1,1,7745,3872
8682,1.0308e+08,2,-0.0039865,-0.0026831,-0.014083,-0.057663,0.25852,-9.792,0,0,38.521,1,1,7745,3872
8685,1.0308e+08,2,0.0030823,0.0016763,-0.012291,-0.057691,0.25237,-9.8048,0,0,38.521,1,1,7745,3872
8688,1.0309e+08,2,0.0043889,0.0077761,-0.011351,-0.046081,0.25302,-9.8244,0,0,38.521,1,1,7745,3872
8691,1.0309e+08,2,0.0011883,0.0066077,-0.010649,-0.017093,0.26083,-9.8514,0,0,38.521,1,1,7745,3872
8726,1.0309e+08,2,-0.0025152,-0.0043143,-0.011147,0.022868,0.27075,-9.8646,0,0,38.521,1,1,7745,3872
8730,1.0309e+08,2,-0.00064838,-0.0079893,-0.011999,0.053652,0.27501,-9.8712,0,0,38.521,1,1,7745,3872
8733,1.031e+08,2,0.0061477,-0.0023177,-0.013965,0.082186,0.27673,-9.8795,0,0,38.522,1,1,7745,3872
8736,1.031e+08,2,0.0093165,0.004143,-0.015007,0.10535,0.2759,-9.8868,0,0,38.522,1,1,7745,3872
8771,1.031e+08,2,0.009375,0.0081891,-0.015609,0.12486,0.26601,-9.8799,0,0,38.522,1,1,7745,3872
8775,1.031e+08,2,0.0072233,0.0094067,-0.015738,0.12516,0.25286,-9.8614,0,0,38.522,1,1,7745,3872
8778,1.0311e+08,2,-0.0017879,0.0097768,-0.015288,0.10808,0.22533,-9.814,0,0,38.522,1,1,7745,3872
8781,1.0311e+08,2,-0.0075318,0.0098207,-0.015149,0.089977,0.20573,-9.7664,0,0,38.522,1,1,7745,3872
8816,1.0311e+08,2,-0.0011107,-0.00021997,-0.012226,0.047322,0.17703,-9.6915,0,0,38.522,1,1,7745,3872
8819,1.0312e+08,2,0.0049532,-0.0052242,-0.0086302,0.028342,0.17089,-9.6974,0,0,38.522,1,1,7745,3872
8823,1.0312e+08,2,0.0014734,-0.0019007,-0.0025264,0.014542,0.1824,-9.7471,0,0,38.522,1,1,7745,3872
8826,1.0312e+08,2,-0.005495,0.00038477,0.0013259,0.017701,0.20273,-9.7782,0,0,38.522,1,1,7745,3872
8861,1.0312e+08,2,-0.0069511,-0.0086214,0.0064018,0.040253,0.2444,-9.8172,0,0,38.522,1,1,7745,3872
8865,1.0312e+08,2,-0.0014925,-0.014863,0.0093289,0.063335,0.27763,-9.8503,0,0,38.522,1,1,7745,3872
8869,1.0313e+08,2,0.0034853,-0.0066921,0.012445,0.10305,0.33105,-9.9127,0,0,38.523,1,1,7745,3872
8872,1.0313e+08,2,0.0028617,0.0048636,0.014308,0.11577,0.34741,-9.9306,0,0,38.523,1,1,7745,3872
8907,1.0313e+08,2,0.0019023,0.012878,0.014446,0.14513,0.38272,-9.9463,0,0,38.523,1,1,7745,3872
8910,1.0313e+08,2,0.00109,0.012201,0.01353,0.15194,0.39094,-9.9171,0,0,38.523,1,1,7745,3872
8913,1.0314e+08,2,-0.00084288,0.0082331,0.011496,0.1441,0.38726,-9.8607,0,0,38.523,1,1,7745,3872
8916,1.0314e+08,2,0.0020507,0.0046942,0.0097795,0.10924,0.36271,-9.7632,0,0,38.523,1,1,7745,3872
8951,1.0314e+08,2,0.0094045,0.0038817,0.0094748,0.072245,0.3382,-9.7166,0,0,38.523,1,1,7745,3872
8958,1.0315e+08,2,0.018183,-0.00077359,0.012625,0.0046194,0.30429,-9.7005,0,0,38.523,1,1,7745,3872
8962,1.0315e+08,2,0.01774,-0.0091172,0.018882,-0.054284,0.27598,-9.7228,0,0,38.523,1,1,7745,3872
8965,1.0315e+08,2,0.0148,-0.01233,0.022615,-0.081056,0.25787,-9.7486,0,0,38.523,1,1,7745,3872
9000,1.0315e+08,2,0.011087,-0.010641,0.026067,-0.097383,0.23974,-9.7937,0,0,38.523,1,1,7745,3872
9003,1.0315e+08,2,0.0077657,0.0026631,0.029007,-0.098683,0.21109,-9.8975,0,0,38.523,1,1,7745,3872
9006,1.0316e+08,2,0.0062888,0.021044,0.025173,-0.068959,0.17652,-9.9998,0,0,38.523,1,1,7745,3872
9009,1.0316e+08,2,0.0014418,0.026384,0.019624,-0.03334,0.14793,-10.029,0,0,38.523,1,1,7745,3872
9044,1.0316e+08,2,-0.0091065,0.021859,0.013129,-0.011983,0.13276,-10.026,0,0,38.523,1,1,7745,3872
9048,1.0317e+08,2,-0.022567,0.0094749,0.0077414,0.06365,0.089382,-9.9494,0,0,38.523,1,1,7745,3872
9052,1.0317e+08,2,-0.030168,-0.0088318,0.0040022,0.1437,0.066434,-9.846,0,0,38.523,1,1,7745,3872
9055,1.0317e+08,2,-0.019068,-0.015295,0.0054869,0.19398,0.076152,-9.8005,0,0,38.523,1,1,7745,3872
9090,1.0317e+08,2,0.005383,-0.024244,0.013776,0.25759,0.13397,-9.7723,0,0,38.524,1,1,7745,3872
9094,1.0318e+08,2,0.0095728,-0.031354,0.022459,0.28755,0.23348,-9.7769,0,0,38.524,1,1,7745,3872
9097,1.0318e+08,2,-0.00105,-0.023576,0.026955,0.28137,0.31322,-9.7874,0,0,38.524,1,1,7745,3872
9100,1.0318e+08,2,-0.0078524,0.0017796,0.027715,0.23236,0.4315,-9.7902,0,0,38.524,1,1,7745,3872
9135,1.0318e+08,2,0.0071138,0.012066,0.022393,0.17215,0.49483,-9.7859,0,0,38.524,1,1,7745,3872
9138,1.0319e+08,2,0.033556,0.011663,0.0067327,0.05343,0.54142,-9.7997,0,0,38.524,1,1,7745,3872
9141,1.0319e+08,2,0.029281,0.0084601,-0.0037318,-0.026504,0.53828,-9.8238,0,0,38.524,1,1,7745,3872
9144,1.0319e+08,2,0.0024824,0.0067345,-0.011569,-0.097631,0.5125,-9.8449,0,0,38.524,1,1,7745,3872
9147,1.0319e+08,2,-0.0015852,0.0069877,-0.011491,-0.15263,0.46549,-9.8529,0,0,38.524,1,1,7745,3872
9183,1.032e+08,2,0.015311,0.00011737,-0.0038611,-0.1931,0.36414,-9.8442,0,0,38.525,1,1,7745,3872
9186,1.032e+08,2,0.036412,-0.008062,0.0042363,-0.19036,0.28648,-9.8463,0,0,38.525,1,1,7745,3872
9189,1.032e+08,2,0.034773,-0.0030225,0.015786,-0.15215,0.16783,-9.883,0,0,38.525,1,1,7745,3872
9192,1.032e+08,2,0.0088387,0.015499,0.020667,-0.10502,0.094214,-9.8873,0,0,38.525,1,1,7745,3872
9227,1.0321e+08,2,-0.021873,0.031624,0.017749,-0.011499,-0.0033701,-9.799,0,0,38.525,1,1,7745,3872
9231,1.0321e+08,2,-0.02298,0.013958,-0.00057857,0.085974,-0.083854,-9.6762,0,0,38.525,1,1,7745,3872
9234,1.0321e+08,2,-0.025143,0.0006719,-0.01716,0.14539,-0.1095,-9.6364,0,0,38.525,1,1,7745,3872
9237,1.0321e+08,2,-0.031762,-0.0036662,-0.0346,0.22018,-0.07871,-9.653,0,0,38.525,1,1,7745,3872
9272,1.0322e+08,2,-0.022407,-0.0090756,-0.03359,0.2597,0.028655,-9.7363,0,0,38.526,1,1,7745,3872
9276,1.0322e+08,2,-0.011391,-0.018433,-0.023903,0.26282,0.13727,-9.8136,0,0,38.526,1,1,7745,3872
9279,1.0322e+08,2,-0.0024523,-0.022312,-0.0098446,0.25735,0.19977,-9.8546,0,0,38.526,1,1,7745,3872
9282,1.0322e+08,2,0.0010597,-0.0039537,0.010523,0.21331,0.39437,-9.9584,0,0,38.526,1,1,7745,3872
9317,1.0323e+08,2,0.0019758,0.013034,0.017366,0.13637,0.55903,-9.9601,0,0,38.526,1,1,7745,3872
9320,1.0323e+08,2,0.0080162,0.020081,0.014911,0.075563,0.62633,-9.8869,0,0,38.526,1,1,7745,3872
9323,1.0323e+08,2,0.018307,0.0081071,-0.0075889,-0.0085542,0.64266,-9.733,0,0,38.526,1,1,7745,3872
9327,1.0323e+08,2,0.020031,-0.0026149,-0.029,-0.053277,0.60584,-9.6603,0,0,38.527,1,1,7745,3872
9362,1.0324e+08,2,0.028332,-0.0039013,-0.049844,-0.091191,0.50322,-9.6374,0,0,38.527,1,1,7745,3872
9365,1.0324e+08,2,0.037441,-0.00038979,-0.050322,-0.094031,0.41553,-9.6787,0,0,38.527,1,1,7745,3872
9368,1.0324e+08,2,0.040294,0.0019863,-0.035047,-0.072425,0.28245,-9.8052,0,0,38.527,1,1,7745,3872
9371,1.0324e+08,2,0.03051,0.0044964,-0.01782,-0.043238,0.19674,-9.9034,0,0,38.527,1,1,7745,3872
9409,1.0325e+08,2,-0.0080862,0.0086077,0.011905,0.036305,0.037656,-9.9703,0,0,38.527,1,1,7745,3872
9414,1.0325e+08,2,-0.024639,0.0017664,0.014547,0.078009,-0.034815,-9.9133,0,0,38.527,1,1,7745,3872
9419,1.0325e+08,2,-0.041881,-0.013201,-0.00034113,0.11794,-0.097903,-9.8226,0,0,38.528,1,1,7745,3872
9422,1.0325e+08,2,-0.043852,-0.017986,-0.017678,0.15228,-0.13832,-9.7409,0,0,38.528,1,1,7745,3872
9457,1.0326e+08,2,-0.010634,-0.012437,-0.040659,0.18349,-0.021337,-9.8185,0,0,38.528,1,1,7745,3872
9460,1.0327e+08,2,-0.01037,0.0030655,-0.0031694,0.10876,0.30751,-10.002,0,0,38.528,1,1,7745,3872
9495,1.0327e+08,2,-0.0097483,0.0042379,0.022181,0.038344,0.49149,-9.9703,0,0,38.528,1,1,7745,3872
9498,1.0327e+08,2,-0.0012935,-0.00079007,0.028664,-0.0060739,0.57009,-9.8841,0,0,38.528,1,1,7745,3872
9502,1.0327e+08,2,0.016591,-0.0096646,0.017156,-0.057926,0.60299,-9.7422,0,0,38.528,1,1,7745,3872
9506,1.0328e+08,2,0.026283,-0.0082437,3.2218e-05,-0.077622,0.57471,-9.6918,0,0,38.528,1,1,7745,3872
9541,1.0328e+08,2,0.038793,0.0027535,-0.024407,-0.077138,0.48032,-9.7095,0,0,38.528,1,1,7745,3872
9544,1.0328e+08,2,0.041985,0.0058946,-0.033439,-0.060288,0.39672,-9.7784,0,0,38.528,1,1,7745,3872
9548,1.0328e+08,2,0.031379,0.0096025,-0.028163,-0.013731,0.26742,-9.9344,0,0,38.529,1,1,7745,3872
9551,1.0329e+08,2,0.014718,0.013666,-0.012997,0.0063654,0.22575,-9.9847,0,0,38.529,1,1,7745,3872
9586,1.0329e+08,2,-0.0035771,0.013125,0.008147,0.071282,0.10331,-10.052,0,0,38.529,1,1,7745,3872
9589,1.0329e+08,2,-0.019841,0.0037673,0.027022,0.1137,0.021221,-10.002,0,0,38.529,1,1,7745,3872
9592,1.0329e+08,2,-0.038135,-0.0185,0.036851,0.17054,-0.091167,-9.8365,0,0,38.529,1,1,7745,3872
9595,1.033e+08,2,-0.043288,-0.028765,0.029628,0.19696,-0.1393,-9.7406,0,0,38.529,1,1,7745,3872
9630,1.033e+08,2,-0.033233,-0.028122,0.0088315,0.21665,-0.13363,-9.6921,0,0,38.529,1,1,7745,3872
9633,1.033e+08,2,-0.0088207,-0.016734,-0.0059506,0.2042,-0.01753,-9.7565,0,0,38.529,1,1,7745,3872
9636,1.0331e+08,2,-0.0035812,-0.00098984,-0.0010992,0.1552,0.19461,-9.8752,0,0,38.53,1,1,7745,3872
9639,1.0331e+08,2,-0.010941,0.0064174,0.012239,0.1036,0.36168,-9.9348,0,0,38.53,1,1,7745,3872
9674,1.0331e+08,2,-0.0095129,0.0074327,0.035581,0.0068993,0.58411,-9.9315,0,0,38.53,1,1,7745,3872
9677,1.0331e+08,2,0.0011201,0.0033664,0.042887,-0.056656,0.68056,-9.8724,0,0,38.53,1,1,7745,3872
9680,1.0331e+08,2,0.02232,-0.0004131,0.034337,-0.13064,0.7225,-9.7685,0,0,38.53,1,1,7745,3872
9684,1.0332e+08,2,0.032193,0.0032399,0.019977,-0.14679,0.70937,-9.7413,0,0,38.53,1,1,7745,3872
9719,1.0332e+08,2,0.043443,0.010398,-0.0041098,-0.15954,0.60683,-9.6913,0,0,38.531,1,1,7745,3872
9722,1.0332e+08,2,0.04994,0.015751,-0.013576,-0.12749,0.44911,-9.7102,0,0,38.531,1,1,7745,3872
9725,1.0333e+08,2,0.04924,0.023402,-0.013886,-0.087495,0.33417,-9.7699,0,0,38.531,1,1,7745,3872
9728,1.0333e+08,2,0.026196,0.03,0.0025675,-0.010452,0.16916,-9.8659,0,0,38.531,1,1,7745,3872
9763,1.0333e+08,2,0.0044686,0.021757,0.020167,0.04306,0.065172,-9.8816,0,0,38.531,1,1,7745,3872
9766,1.0333e+08,2,-0.028445,-0.0027335,0.039683,0.12351,-0.085548,-9.8226,0,0,38.531,1,1,7745,3872
9771,1.0333e+08,2,-0.044373,-0.01534,0.038696,0.17099,-0.16845,-9.7716,0,0,38.531,1,1,7745,3872
9775,1.0334e+08,2,-0.049067,-0.016729,0.020284,0.21682,-0.22735,-9.7527,0,0,38.532,1,1,7745,3872
9810,1.0334e+08,2,-0.038285,-0.0097554,0.0062373,0.22599,-0.20401,-9.784,0,0,38.532,1,1,7745,3872
9813,1.0334e+08,2,-0.019048,0.0047204,-0.0047866,0.19916,-0.063857,-9.8665,0,0,38.532,1,1,7745,3872
9816,1.0334e+08,2,-0.016628,0.013923,-0.0016156,0.15681,0.089282,-9.9199,0,0,38.532,1,1,7745,3872
9819,1.0335e+08,2,-0.023841,0.016324,0.016848,0.068372,0.35973,-9.9221,0,0,38.532,1,1,7745,3872
9857,1.0335e+08,2,-0.01481,-0.00019291,0.034135,0.0048635,0.52451,-9.8584,0,0,38.532,1,1,7745,3872
9861,1.0335e+08,2,-0.007147,-0.0064132,0.036426,-0.051003,0.64775,-9.7787,0,0,38.532,1,1,7745,3872
9864,1.0336e+08,2,0.018844,-0.0091211,0.027294,-0.10686,0.73146,-9.7112,0,0,38.532,1,1,7745,3872
9868,1.0336e+08,2,0.032137,0.0020369,0.010271,-0.11801,0.72351,-9.7055,0,0,38.532,1,1,7745,3872
9903,1.0336e+08,2,0.048578,0.017596,-0.019282,-0.095886,0.63439,-9.72,0,0,38.533,1,1,7745,3872
9906,1.0336e+08,2,0.055323,0.024066,-0.032234,-0.062218,0.53882,-9.7532,0,0,38.533,1,1,7745,3872
9909,1.0337e+08,2,0.038623,0.028218,-0.030818,0.013864,0.37593,-9.8266,0,0,38.533,1,1,7745,3872
9912,1.0337e+08,2,0.016501,0.018777,-0.016477,0.070753,0.26808,-9.8492,0,0,38.533,1,1,7745,3872
9947,1.0337e+08,2,-0.0066764,-0.009872,0.010349,0.1513,0.09493,-9.8115,0,0,38.533,1,1,7745,3872
9950,1.0337e+08,2,-0.02615,-0.03318,0.020561,0.22317,-0.074632,-9.7491,0,0,38.533,1,1,7745,3872
9953,1.0338e+08,2,-0.035943,-0.034725,0.013212,0.25136,-0.15833,-9.7553,0,0,38.533,1,1,7745,3872
9957,1.0338e+08,2,-0.033455,-0.0194,-0.0077036,0.25735,-0.2009,-9.8097,0,0,38.533,1,1,7745,3872
9992,1.0338e+08,2,-0.028173,-0.012087,-0.013762,0.23989,-0.19514,-9.8865,0,0,38.533,1,1,7745,3872
9995,1.0338e+08,2,-0.016104,0.0090482,-0.022783,0.1703,-0.082082,-9.9963,0,0,38.533,1,1,7745,3872
9998,1.0339e+08,2,-0.022489,0.013804,-0.018673,0.10071,0.054242,-10.035,0,0,38.533,1,1,7745,3872
10002,1.0339e+08,2,-0.039052,0.0018564,0.00026727,-0.021898,0.29782,-9.9743,0,0,38.533,1,1,7745,3872
10037,1.0339e+08,2,-0.032478,-0.013335,0.012909,-0.097286,0.44258,-9.8615,0,0,38.533,1,1,7745,3872
10040,1.034e+08,2,0.024551,-0.01795,0.0050291,-0.19234,0.62436,-9.6868,0,0,38.533,1,1,7745,3872
10043,1.034e+08,2,0.049803,0.0087527,-0.020821,-0.17305,0.60766,-9.7418,0,0,38.533,1,1,7745,3872
10078,1.034e+08,2,0.057976,0.027239,-0.035775,-0.12941,0.55537,-9.8074,0,0,38.534,1,1,7745,3872
10082,1.034e+08,2,0.042966,0.037528,-0.045581,-0.02471,0.44003,-9.8949,0,0,38.534,1,1,7745,3872
10085,1.0341e+08,2,0.017799,0.022557,-0.039477,0.054664,0.35635,-9.9172,0,0,38.534,1,1,7745,3872
10089,1.0341e+08,2,-0.0023962,-0.00058037,-0.025292,0.13137,0.26645,-9.8889,0,0,38.534,1,1,7745,3872
10092,1.0341e+08,2,-0.01527,-0.0268,-0.0030731,0.207,0.16307,-9.8064,0,0,38.534,1,1,7745,3872
10127,1.0341e+08,2,-0.018412,-0.040984,0.0038608,0.30217,0.003321,-9.664,0,0,38.534,1,1,7745,3872
10130,1.0342e+08,2,-0.021673,-0.04775,0.0011512,0.33277,-0.081049,-9.649,0,0,38.534,1,1,7745,3872
10133,1.0342e+08,2,-0.017397,-0.028433,-0.012922,0.32604,-0.1329,-9.7633,0,0,38.534,1,1,7745,3872
10136,1.0342e+08,2,-0.010021,-0.00091595,-0.020723,0.28833,-0.10714,-9.8724,0,0,38.534,1,1,7745,3872
10171,1.0342e+08,2,-0.013313,0.023125,-0.022099,0.18768,0.024996,-9.9854,0,0,38.534,1,1,7745,3872
10174,1.0343e+08,2,-0.033989,0.0039259,-0.0095988,0.036581,0.23499,-9.9765,0,0,38.534,1,1,7745,3872
10178,1.0343e+08,2,-0.036806,-0.012103,0.0032776,-0.068005,0.3809,-9.8859,0,0,38.534,1,1,7745,3872
10181,1.0343e+08,2,-0.0094699,-0.023435,0.016135,-0.18687,0.554,-9.6946,0,0,38.535,1,1,7745,3872
10216,1.0343e+08,2,0.035216,-0.025574,0.010183,-0.25142,0.6376,-9.6266,0,0,38.535,1,1,7745,3872
10221,1.0344e+08,2,0.05258,-0.0081571,-0.00010533,-0.25865,0.64573,-9.646,0,0,38.535,1,1,7745,3872
10224,1.0345e+08,2,0.026936,0.034715,-0.024109,0.020482,0.38441,-9.8712,0,0,38.535,1,1,7745,3872
10260,1.0345e+08,2,0.0085463,0.0020594,-0.017108,0.11286,0.28589,-9.8408,0,0,38.535,1,1,7745,3872
10264,1.0345e+08,2,-0.012336,-0.024857,0.0014265,0.24972,0.12594,-9.7116,0,0,38.535,1,1,7745,3872
10270,1.0345e+08,2,-0.017361,-0.037239,0.011092,0.31882,0.021928,-9.6289,0,0,38.535,1,1,7745,3872
10274,1.0346e+08,2,-0.011008,-0.041929,0.013701,0.35511,-0.091114,-9.6555,0,0,38.535,1,1,7745,3872
10309,1.0346e+08,2,-7.013e-06,0.0050547,0.0077372,0.32361,-0.11793,-9.838,0,0,38.535,1,1,7745,3872
10312,1.0346e+08,2,-0.0046307,0.043338,0.0022473,0.27057,-0.081069,-9.9512,0,0,38.535,1,1,7745,3872
10315,1.0346e+08,2,-0.02476,0.038316,-0.0025926,0.13518,0.049473,-10.038,0,0,38.535,1,1,7745,3872
10318,1.0347e+08,2,-0.038276,0.0091138,0.00096805,0.020303,0.16888,-10.032,0,0,38.535,1,1,7745,3872
10353,1.0347e+08,2,-0.042653,-0.009631,0.014688,-0.087864,0.29378,-9.9583,0,0,38.536,1,1,7745,3872
10358,1.0347e+08,2,-0.010743,-0.01469,0.026392,-0.23498,0.47986,-9.7056,0,0,38.536,1,1,7745,3872
10361,1.0347e+08,2,0.021915,-0.022938,0.027315,-0.25712,0.50502,-9.6695,0,0,38.536,1,1,7745,3872
10364,1.0348e+08,2,0.04757,-0.01225,0.023508,-0.26598,0.53376,-9.7008,0,0,38.536,1,1,7745,3872
10399,1.0348e+08,2,0.057037,0.02524,0.017856,-0.21239,0.51638,-9.7904,0,0,38.536,1,1,7745,3872
10403,1.0348e+08,2,0.041966,0.069473,0.0075618,-0.067053,0.44595,-9.8765,0,0,38.536,1,1,7745,3872
10406,1.0348e+08,2,0.022238,0.052396,0.0014405,0.042321,0.38093,-9.883,0,0,38.536,1,1,7745,3872
10409,1.0349e+08,2,-0.0046368,-0.0015904,-0.001085,0.20534,0.27398,-9.8219,0,0,38.536,1,1,7745,3872
10446,1.0349e+08,2,-0.014999,-0.024705,0.0042643,0.30908,0.1986,-9.7331,0,0,38.536,1,1,7745,3872
10449,1.0349e+08,2,-0.016342,-0.049452,0.014208,0.4155,0.088734,-9.6174,0,0,38.536,1,1,7745,3872
10452,1.035e+08,2,0.0093987,-0.020262,0.016827,0.3906,0.0086885,-9.8208,0,0,38.536,1,1,7745,3872
10487,1.035e+08,2,0.003121,0.044974,0.013148,0.28039,0.047128,-10.003,0,0,38.537,1,1,7745,3872
10491,1.035e+08,2,-0.01012,0.04882,0.0082302,0.16602,0.10728,-10.053,0,0,38.537,1,1,7745,3872
10494,1.035e+08,2,-0.022537,0.022068,0.0042641,0.027821,0.18371,-10.044,0,0,38.537,1,1,7745,3872
10497,1.0351e+08,2,-0.031922,-0.012268,0.0049249,-0.10882,0.2666,-9.9774,0,0,38.537,1,1,7745,3872
10532,1.0351e+08,2,-0.026044,-0.021016,0.010295,-0.2659,0.3719,-9.789,0,0,38.537,1,1,7745,3872
10535,1.0351e+08,2,0.0058831,-0.035487,0.018524,-0.35574,0.42275,-9.6547,0,0,38.537,1,1,7745,3872
10538,1.0352e+08,2,0.035237,-0.027798,0.0207,-0.36458,0.42492,-9.6829,0,0,38.537,1,1,7745,3872
10542,1.0352e+08,2,0.057091,0.035025,0.018343,-0.27531,0.38228,-9.8378,0,0,38.537,1,1,7745,3872
10577,1.0352e+08,2,0.043642,0.068924,0.012991,-0.1643,0.33212,-9.9209,0,0,38.538,1,1,7745,3872
10581,1.0352e+08,2,0.0036417,0.046425,0.0016758,0.019251,0.2422,-9.9543,0,0,38.538,1,1,7745,3872
10584,1.0352e+08,2,-0.01735,0.011408,-0.0049116,0.14588,0.18069,-9.9109,0,0,38.538,1,1,7745,3872
10587,1.0353e+08,2,-0.028531,-0.029767,-0.0066804,0.33208,0.098469,-9.7559,0,0,38.538,1,1,7745,3872
10622,1.0353e+08,2,-0.020484,-0.066324,-0.0035728,0.44215,0.043496,-9.6532,0,0,38.538,1,1,7745,3872
10625,1.0353e+08,2,-0.0078599,-0.067507,0.00017995,0.45521,0.036737,-9.6647,0,0,38.538,1,1,7745,3872
10628,1.0354e+08,2,0.0097358,-0.011723,0.0036627,0.44144,0.055414,-9.8176,0,0,38.538,1,1,7745,3872
10631,1.0354e+08,2,0.0094436,0.01194,0.0031448,0.39061,0.095306,-9.9404,0,0,38.538,1,1,7745,3872
10666,1.0354e+08,2,-0.0074937,0.041372,-0.0043331,0.23835,0.18932,-10.036,0,0,38.539,1,1,7745,3872
10670,1.0354e+08,2,-0.025644,0.014308,-0.015086,0.022183,0.30752,-9.9876,0,0,38.539,1,1,7745,3872
10673,1.0355e+08,2,-0.024405,-0.0031246,-0.018238,-0.11393,0.3795,-9.8714,0,0,38.539,1,1,7745,3872
10676,1.0355e+08,2,-0.005235,-0.026719,-0.013938,-0.27069,0.44638,-9.6649,0,0,38.539,1,1,7745,3872
10711,1.0355e+08,2,0.013357,-0.03986,-0.0076351,-0.33889,0.46172,-9.6044,0,0,38.539,1,1,7745,3872
10715,1.0355e+08,2,0.045808,-0.01621,0.0021316,-0.34416,0.44176,-9.6916,0,0,38.539,1,1,7745,3872
10722,1.0356e+08,2,0.055829,0.023369,0.0057103,-0.27492,0.39504,-9.8083,0,0,38.539,1,1,7745,3872
10726,1.0356e+08,2,0.034726,0.053281,0.00099993,-0.10655,0.2953,-9.9279,0,0,38.539,1,1,7745,3872
10729,1.0356e+08,2,0.0045821,0.039088,-0.0068372,0.020041,0.22319,-9.9363,0,0,38.539,1,1,7745,3872
10764,1.0356e+08,2,-0.028821,0.0033008,-0.014832,0.21681,0.12436,-9.8125,0,0,38.539,1,1,7745,3872
10767,1.0357e+08,2,-0.029087,-0.022595,-0.015811,0.33103,0.067701,-9.6817,0,0,38.539,1,1,7745,3872
10770,1.0357e+08,2,-0.02164,-0.046807,-0.014735,0.40371,0.0291,-9.6012,0,0,38.539,1,1,7745,3872
10773,1.0357e+08,2,-0.012562,-0.053629,-0.013094,0.42907,0.0227,-9.6289,0,0,38.539,1,1,7745,3872
10808,1.0357e+08,2,0.013053,-0.01825,-0.0092233,0.40208,0.066419,-9.8064,0,0,38.539,1,1,7745,3872
10812,1.0358e+08,2,0.014328,0.02206,-0.0097779,0.29263,0.14209,-9.9742,0,0,38.539,1,1,7745,3872
10815,1.0358e+08,2,-0.011135,0.025461,-0.014153,0.17591,0.20934,-10.017,0,0,38.539,1,1,7745,3872
10818,1.0358e+08,2,-0.044902,0.010165,-0.020681,-0.030652,0.32189,-9.9535,0,0,38.539,1,1,7745,3872
10853,1.0358e+08,2,-0.024405,0.0018524,-0.017525,-0.22088,0.40374,-9.7682,0,0,38.539,1,1,7745,3872
10856,1.0359e+08,2,0.0019967,-0.0029055,-0.011854,-0.31924,0.42907,-9.6638,0,0,38.539,1,1,7745,3872
10859,1.0359e+08,2,0.022601,-0.0072862,-0.0060576,-0.38313,0.43698,-9.6349,0,0,38.539,1,1,7745,3872
10862,1.0359e+08,2,0.046147,0.0050552,0.0028828,-0.37585,0.41055,-9.736,0,0,38.539,1,1,7745,3872
10897,1.036e+08,2,0.036369,0.027545,0.006215,-0.23964,0.33065,-9.8939,0,0,38.539,1,1,7745,3872
10901,1.036e+08,2,0.009179,0.027648,0.00284,-0.1747,0.29995,-9.9314,0,0,38.539,1,1,7745,3872
10904,1.036e+08,2,-0.028657,0.011447,-0.002732,0.046372,0.20873,-9.9647,0,0,38.539,1,1,7745,3872
10907,1.036e+08,2,-0.033524,0.0063205,-0.0029314,0.19723,0.15331,-9.8978,0,0,38.539,1,1,7745,3872
10942,1.036e+08,2,-0.024346,-0.014109,-0.00047957,0.38253,0.080965,-9.7188,0,0,38.539,1,1,7745,3872
10946,1.0361e+08,2,-0.021127,-0.028154,0.0011089,0.44869,0.050968,-9.6577,0,0,38.539,1,1,7745,3872
10949,1.0361e+08,2,-0.017877,-0.022459,-0.00035904,0.46381,0.068344,-9.7354,0,0,38.539,1,1,7745,3872
10952,1.0361e+08,2,0.0027756,-0.0091335,-0.0025977,0.42998,0.11087,-9.8465,0,0,38.539,1,1,7745,3872
10987,1.0362e+08,2,0.016029,-0.00045404,-0.0079133,0.30338,0.20269,-10.02,0,0,38.539,1,1,7745,3872
10991,1.0362e+08,2,-0.027964,-0.00041504,-0.011813,0.10921,0.32934,-10.081,0,0,38.539,1,1,7745,3872
10994,1.0362e+08,2,-0.048976,0.0016076,-0.0076303,-0.031086,0.41105,-10.01,0,0,38.539,1,1,7745,3872
10997,1.0362e+08,2,-0.022058,0.0026754,0.0072536,-0.22921,0.48408,-9.8043,0,0,38.539,1,1,7745,3872
11032,1.0363e+08,2,0.025541,0.0063761,0.018134,-0.3687,0.49225,-9.6868,0,0,38.539,1,1,7745,3872
11036,1.0363e+08,2,0.054755,0.018325,0.019903,-0.40145,0.46967,-9.701,0,0,38.539,1,1,7745,3872
11039,1.0363e+08,2,0.057214,0.022464,0.017234,-0.37338,0.4188,-9.7642,0,0,38.539,1,1,7745,3872
11042,1.0363e+08,2,0.033056,0.01831,0.011682,-0.23185,0.30393,-9.8777,0,0,38.539,1,1,7745,3872
11077,1.0364e+08,2,-0.0078371,0.008504,0.0057746,-0.092687,0.22733,-9.9225,0,0,38.539,1,1,7745,3872
11080,1.0364e+08,2,-0.047421,-0.0014529,0.0053086,0.13695,0.12855,-9.8933,0,0,38.539,1,1,7745,3872
11083,1.0364e+08,2,-0.036553,-0.0032861,0.011789,0.27488,0.07944,-9.7984,0,0,38.539,1,1,7745,3872
11088,1.0364e+08,2,-0.0034024,-0.012009,0.024353,0.41033,0.038307,-9.6682,0,0,38.539,1,1,7745,3872
11091,1.0365e+08,2,-0.0031463,-0.015428,0.028716,0.44249,0.041046,-9.6692,0,0,38.539,1,1,7745,3872
11127,1.0365e+08,2,-0.0033205,-0.0086625,0.0034932,0.30564,0.17796,-9.8943,0,0,38.539,1,1,7745,3872
11130,1.0365e+08,2,-0.0049642,-0.0077608,-0.010144,0.19342,0.25204,-9.9442,0,0,38.539,1,1,7745,3872
11136,1.0366e+08,2,-0.020928,0.0046155,-0.010413,-0.13144,0.46,-9.8173,0,0,38.539,1,1,7745,3872
11141,1.0366e+08,2,-0.0015967,0.0044867,0.0052443,-0.19402,0.49063,-9.7609,0,0,38.539,1,1,7745,3872
11174,1.0366e+08,2,0.03307,0.01306,0.026721,-0.3406,0.53592,-9.6523,0,0,38.539,1,1,7745,3872
11177,1.0367e+08,2,0.051125,0.022967,0.034182,-0.37611,0.51082,-9.6863,0,0,38.538,1,1,7745,3872
11181,1.0367e+08,2,0.059354,0.024456,0.033038,-0.32445,0.45041,-9.749,0,0,38.538,1,1,7745,3872
11184,1.0367e+08,2,0.033327,0.012741,0.016588,-0.1583,0.31411,-9.8277,0,0,38.538,1,1,7745,3872
11217,1.0367e+08,2,-0.016623,0.0009917,-0.0025079,0.073053,0.1757,-9.8287,0,0,38.538,1,1,7745,3872
11220,1.0368e+08,2,-0.031077,-0.0068195,-0.0073815,0.22694,0.10787,-9.7915,0,0,38.538,1,1,7745,3872
11223,1.0368e+08,2,-0.018841,-0.016241,-0.002962,0.35206,0.066737,-9.738,0,0,38.538,1,1,7745,3872
11228,1.0368e+08,2,0.011903,-0.02008,0.01444,0.46212,0.050328,-9.7021,0,0,38.538,1,1,7745,3872
11261,1.0368e+08,2,0.0067077,-0.0065197,0.024874,0.47,0.082635,-9.7762,0,0,38.538,1,1,7745,3872
11264,1.0369e+08,2,-0.0042187,-0.00067924,0.019606,0.42093,0.12321,-9.8564,0,0,38.538,1,1,7745,3872
11267,1.0369e+08,2,-0.0076931,-0.0043803,0.0048078,0.33359,0.17023,-9.9239,0,0,38.539,1,1,7745,3872
11270,1.0369e+08,2,-0.0080225,-0.010689,-0.02351,0.15055,0.25656,-9.9605,0,0,38.539,1,1,7745,3872
11303,1.0369e+08,2,-0.0075452,-0.0072879,-0.036265,0.01058,0.32972,-9.9395,0,0,38.539,1,1,7745,3872
11306,1.037e+08,2,-0.0037179,-0.0048232,-0.033357,-0.13204,0.40466,-9.8839,0,0,38.539,1,1,7745,3872
11309,1.037e+08,2,0.0096755,-0.00031889,-0.018723,-0.26299,0.46266,-9.813,0,0,38.539,1,1,7745,3872
11313,1.037e+08,2,0.029502,0.015339,0.0091439,-0.39062,0.49279,-9.7634,0,0,38.539,1,1,7745,3872
11346,1.037e+08,2,0.04018,0.03429,0.023256,-0.38958,0.44397,-9.8132,0,0,38.539,1,1,7745,3872
11349,1.0371e+08,2,0.042604,0.030646,0.019839,-0.31419,0.36675,-9.86,0,0,38.539,1,1,7745,3872
11352,1.0371e+08,2,0.035448,0.016782,0.0070686,-0.1915,0.26578,-9.8923,0,0,38.539,1,1,7745,3872
11356,1.0371e+08,2,-0.0034882,-0.00030935,-0.015103,0.047242,0.11625,-9.8658,0,0,38.539,1,1,7745,3872
11359,1.0371e+08,2,-0.034443,-0.013006,-0.022418,0.27999,0.029254,-9.7661,0,0,38.539,1,1,7745,3872
11392,1.0372e+08,2,-0.019615,-0.022246,-0.014783,0.3951,0.0093108,-9.7061,0,0,38.539,1,1,7745,3872
11395,1.0372e+08,2,0.010946,-0.017252,0.005615,0.48656,0.023672,-9.7241,0,0,38.539,1,1,7745,3872
11398,1.0372e+08,2,0.0047818,-0.0002022,0.014499,0.49482,0.039527,-9.759,0,0,38.539,1,1,7745,3872
11401,1.0372e+08,2,-0.016418,0.010204,0.008819,0.45056,0.11071,-9.8808,0,0,38.54,1,1,7745,3872
11434,1.0373e+08,2,-0.01294,-0.0030177,-0.017584,0.31738,0.18543,-9.9523,0,0,38.54,1,1,7745,3872
11437,1.0373e+08,2,-0.011581,-0.0062516,-0.027721,0.19524,0.23688,-9.9494,0,0,38.54,1,1,7745,3872
11441,1.0373e+08,2,-0.016999,-0.0094672,-0.047036,-0.012187,0.34274,-9.8733,0,0,38.54,1,1,7745,3872
11444,1.0374e+08,2,-0.0098834,-0.011663,-0.042565,-0.152,0.4196,-9.7955,0,0,38.54,1,1,7745,3872
11477,1.0374e+08,2,0.025242,-0.0054957,-0.013799,-0.32116,0.49463,-9.7192,0,0,38.54,1,1,7745,3872
11480,1.0374e+08,2,0.040165,0.028596,0.016674,-0.37703,0.49854,-9.7498,0,0,38.54,1,1,7745,3872
11483,1.0374e+08,2,0.035447,0.042823,0.025489,-0.34052,0.45292,-9.7989,0,0,38.54,1,1,7745,3872
11486,1.0375e+08,2,0.023921,0.023432,0.013847,-0.19405,0.31697,-9.8466,0,0,38.541,1,1,7745,3872
11519,1.0375e+08,2,0.0091708,0.0044332,-0.0052619,-0.049588,0.20664,-9.8476,0,0,38.541,1,1,7745,3872
11522,1.0375e+08,2,-0.02604,-0.0098208,-0.02665,0.19307,0.072849,-9.7794,0,0,38.541,1,1,7745,3872
11527,1.0375e+08,2,-0.033277,-0.022969,-0.02691,0.33137,0.026811,-9.7081,0,0,38.541,1,1,7745,3872
11530,1.0376e+08,2,-0.0021685,-0.040375,-0.008313,0.42568,0.011414,-9.6636,0,0,38.541,1,1,7745,3872
11563,1.0376e+08,2,0.0067042,-0.03574,0.00019374,0.47497,0.019266,-9.6821,0,0,38.541,1,1,7745,3872
11569,1.0376e+08,2,-0.0062608,0.0033136,0.019821,0.47265,0.072067,-9.7935,0,0,38.541,1,1,7745,3872
11573,1.0376e+08,2,-0.024624,0.018602,0.020481,0.41104,0.12251,-9.8674,0,0,38.541,1,1,7745,3872
11576,1.0377e+08,2,-0.017431,0.006904,-0.0030177,0.24002,0.19044,-9.9255,0,0,38.542,1,1,7745,3872
11609,1.0377e+08,2,-0.0091346,-0.0012585,-0.024955,0.099698,0.23815,-9.9185,0,0,38.542,1,1,7745,3872
11612,1.0377e+08,2,-0.018521,-0.0066062,-0.043542,-0.11804,0.33576,-9.8298,0,0,38.542,1,1,7745,3872
11616,1.0377e+08,2,-0.015621,-0.015141,-0.036947,-0.25699,0.40448,-9.7479,0,0,38.542,1,1,7745,3872
11619,1.0378e+08,2,0.019771,-0.010172,-0.0028823,-0.41317,0.46927,-9.6972,0,0,38.542,1,1,7745,3872
11652,1.0378e+08,2,0.039159,0.037723,0.031385,-0.43444,0.46313,-9.7582,0,0,38.542,1,1,7745,3872
11656,1.0378e+08,2,0.032195,0.05349,0.040193,-0.37379,0.41265,-9.8047,0,0,38.542,1,1,7745,3872
11659,1.0378e+08,2,0.01425,0.026144,0.028217,-0.1996,0.27598,-9.8403,0,0,38.543,1,1,7745,3872
11662,1.0379e+08,2,-0.0044342,0.0039554,0.0099477,-0.12177,0.22313,-9.8411,0,0,38.543,1,1,7745,3872
11695,1.0379e+08,2,-0.037451,-0.017298,-0.01251,0.14178,0.090218,-9.7942,0,0,38.543,1,1,7745,3872
11698,1.0379e+08,2,-0.037479,-0.033139,-0.013932,0.30109,0.043688,-9.7325,0,0,38.543,1,1,7745,3872
11702,1.0379e+08,2,-0.013931,-0.042291,-0.0030418,0.454,0.037604,-9.683,0,0,38.543,1,1,7745,3872
11705,1.038e+08,2,0.0094693,-0.028904,0.014354,0.4988,0.067205,-9.7103,0,0,38.543,1,1,7745,3872
11738,1.038e+08,2,-0.0050578,0.010098,0.032847,0.48091,0.14448,-9.7996,0,0,38.543,1,1,7745,3872
11741,1.038e+08,2,-0.031505,0.011776,0.025931,0.34963,0.23224,-9.8665,0,0,38.544,1,1,7745,3872
11746,1.038e+08,2,-0.020049,0.0010716,0.0070146,0.22115,0.28178,-9.8847,0,0,38.544,1,1,7745,3872
11749,1.0381e+08,2,0.0042808,-0.004209,-0.024034,0.0098981,0.35846,-9.8694,0,0,38.544,1,1,7745,3872
11782,1.0381e+08,2,0.0050923,-0.010823,-0.033343,-0.13413,0.41644,-9.8344,0,0,38.544,1,1,7745,3872
11785,1.0381e+08,2,0.0044332,-0.021365,-0.018458,-0.3296,0.48881,-9.7928,0,0,38.544,1,1,7745,3872
11788,1.0381e+08,2,0.015311,-0.00691,0.0063984,-0.41264,0.50634,-9.79,0,0,38.544,1,1,7745,3872
11791,1.0382e+08,2,0.029867,0.040463,0.039512,-0.4248,0.46559,-9.8033,0,0,38.544,1,1,7745,3872
11824,1.0382e+08,2,0.030478,0.049355,0.046518,-0.40175,0.4347,-9.8048,0,0,38.544,1,1,7745,3872
11827,1.0382e+08,2,0.028928,0.032332,0.039768,-0.26921,0.29967,-9.8074,0,0,38.545,1,1,7745,3872
11831,1.0382e+08,2,0.020186,0.010497,0.023634,-0.13014,0.18879,-9.8172,0,0,38.545,1,1,7745,3872
11834,1.0383e+08,2,-0.019378,-0.010778,-0.0031456,0.11913,0.056159,-9.8074,0,0,38.545,1,1,7745,3872
11867,1.0383e+08,2,-0.038332,-0.028496,-0.010739,0.26577,0.014778,-9.7827,0,0,38.545,1,1,7745,3872
11870,1.0383e+08,2,-0.019475,-0.042426,-0.00032101,0.40363,0.01924,-9.7838,0,0,38.545,1,1,7745,3872
11873,1.0383e+08,2,0.003456,-0.023281,0.015084,0.44343,0.055304,-9.8171,0,0,38.545,1,1,7745,3872
11876,1.0384e+08,2,-0.0063709,0.01851,0.033057,0.41357,0.13802,-9.8804,0,0,38.545,1,1,7745,3872
11909,1.0384e+08,2,-0.029351,0.023528,0.024784,0.26957,0.22848,-9.904,0,0,38.545,1,1,7745,3872
11912,1.0384e+08,2,-0.013805,0.012351,0.0037036,0.14155,0.27872,-9.8957,0,0,38.546,1,1,7745,3872
11916,1.0384e+08,2,0.010796,-0.0046724,-0.031371,-0.057251,0.35317,-9.864,0,0,38.546,1,1,7745,3872
11921,1.0385e+08,2,0.006755,-0.017672,-0.040656,-0.18702,0.41208,-9.8376,0,0,38.546,1,1,7745,3872
11954,1.0385e+08,2,0.021741,0.014193,0.016287,-0.38678,0.505,-9.7676,0,0,38.546,1,1,7745,3872
11957,1.0386e+08,2,0.031874,0.039127,0.036936,-0.3507,0.46987,-9.7615,0,0,38.546,1,1,7745,3872
11960,1.0386e+08,2,0.025477,0.032722,0.02647,-0.084784,0.25811,-9.7581,0,0,38.546,1,1,7745,3872
11998,1.0386e+08,2,0.0045941,-0.0013152,-0.006547,0.15613,0.10984,-9.7281,0,0,38.546,1,1,7745,3872
12004,1.0387e+08,2,-0.025741,-0.04427,-0.025581,0.36206,0.040575,-9.7101,0,0,38.546,1,1,7745,3872
12007,1.0387e+08,2,-0.024975,-0.056258,-0.021485,0.45256,0.046794,-9.7258,0,0,38.546,1,1,7745,3872
12010,1.0387e+08,2,0.0022626,-0.02731,0.0026176,0.50818,0.10689,-9.7763,0,0,38.546,1,1,7745,3872
12045,1.0387e+08,2,0.0042434,0.0037798,0.017458,0.47671,0.16244,-9.8252,0,0,38.546,1,1,7745,3872
12049,1.0388e+08,2,-0.021062,0.031763,0.019679,0.32674,0.2475,-9.8806,0,0,38.546,1,1,7745,3872
12052,1.0388e+08,2,-0.01944,0.031358,0.0034721,0.18863,0.2916,-9.8704,0,0,38.546,1,1,7745,3872
12055,1.0388e+08,2,0.010968,0.0041257,-0.034517,0.043003,0.3251,-9.8296,0,0,38.546,1,1,7745,3872
12090,1.0388e+08,2,0.017143,-0.037677,-0.056389,-0.17193,0.3823,-9.7794,0,0,38.546,1,1,7745,3872
12093,1.0389e+08,2,0.015114,-0.044446,-0.055199,-0.29388,0.4284,-9.7886,0,0,38.546,1,1,7745,3872
12097,1.0389e+08,2,0.015997,-0.019454,-0.025404,-0.39577,0.47004,-9.8431,0,0,38.547,1,1,7745,3872
12100,1.0389e+08,2,0.018551,0.020282,0.004823,-0.3971,0.45711,-9.8686,0,0,38.547,1,1,7745,3872
12135,1.0389e+08,2,0.0099629,0.057575,0.034912,-0.31672,0.37096,-9.861,0,0,38.547,1,1,7745,3872
12139,1.039e+08,2,0.014791,0.043664,0.028356,-0.1473,0.21958,-9.8027,0,0,38.547,1,1,7745,3872
12142,1.039e+08,2,0.020188,0.01765,0.0078194,0.0066621,0.11021,-9.7606,0,0,38.547,1,1,7745,3872
12145,1.039e+08,2,-0.0024713,-0.026624,-0.025016,0.24101,0.0060207,-9.7298,0,0,38.547,1,1,7745,3872
12180,1.0391e+08,2,-0.022872,-0.048341,-0.032698,0.36751,-0.001968,-9.7445,0,0,38.547,1,1,7745,3872
12183,1.0391e+08,2,-0.019533,-0.046903,-0.016332,0.48558,0.059562,-9.7923,0,0,38.547,1,1,7745,3872
12186,1.0391e+08,2,-0.007072,-0.024327,0.0035767,0.50238,0.12406,-9.8344,0,0,38.547,1,1,7745,3872
12189,1.0391e+08,2,-0.023666,0.023752,0.02418,0.46185,0.19248,-9.8843,0,0,38.547,1,1,7745,3872
12224,1.0392e+08,2,-0.023521,0.045768,0.014091,0.31177,0.28402,-9.9152,0,0,38.546,1,1,7745,3872
12229,1.0392e+08,2,0.0096699,0.032603,-0.0089002,0.10682,0.33994,-9.8769,0,0,38.546,1,1,7745,3872
12233,1.0392e+08,2,0.031556,0.0040326,-0.034665,-0.034108,0.37049,-9.8486,0,0,38.546,1,1,7745,3872
12236,1.0392e+08,2,0.013761,-0.035728,-0.053271,-0.21441,0.43626,-9.8307,0,0,38.546,1,1,7745,3872
12271,1.0393e+08,2,0.0042641,-0.033974,-0.030886,-0.31688,0.48798,-9.848,0,0,38.546,1,1,7745,3872
12274,1.0393e+08,2,0.017715,-0.0036334,-0.00097336,-0.3289,0.48302,-9.871,0,0,38.546,1,1,7745,3872
12277,1.0393e+08,2,0.017434,0.049768,0.038386,-0.2642,0.40487,-9.8874,0,0,38.546,1,1,7745,3872
12280,1.0393e+08,2,0.0046584,0.061287,0.047025,-0.1741,0.31149,-9.8638,0,0,38.546,1,1,7745,3872
12315,1.0394e+08,2,0.0067964,0.028015,0.026856,0.017741,0.13401,-9.7885,0,0,38.546,1,1,7745,3872
12319,1.0394e+08,2,0.0087199,-0.010538,0.00037086,0.16093,0.034229,-9.7508,0,0,38.546,1,1,7745,3872
12322,1.0394e+08,2,-0.013569,-0.049393,-0.027382,0.29021,-0.018924,-9.751,0,0,38.546,1,1,7745,3872
12325,1.0394e+08,2,-0.027571,-0.04925,-0.026518,0.43453,-0.00029742,-9.8082,0,0,38.546,1,1,7745,3872
12360,1.0395e+08,2,-0.023207,-0.03564,-0.010287,0.47646,0.059687,-9.8441,0,0,38.546,1,1,7745,3872
12364,1.0395e+08,2,-0.012838,-0.015319,0.013241,0.46039,0.13428,-9.8764,0,0,38.546,1,1,7745,3872
12367,1.0395e+08,2,-0.02767,0.025847,0.036453,0.34037,0.24056,-9.9061,0,0,38.546,1,1,7745,3872
12370,1.0395e+08,2,-0.03219,0.040458,0.032147,0.21699,0.29422,-9.8815,0,0,38.546,1,1,7745,3872
12405,1.0396e+08,2,0.012609,0.018978,-0.0021887,0.0074802,0.32903,-9.8182,0,0,38.546,1,1,7745,3872
12408,1.0396e+08,2,0.02966,-0.023338,-0.040223,-0.18503,0.35119,-9.824,0,0,38.546,1,1,7745,3872
12411,1.0396e+08,2,0.0093168,-0.030987,-0.046638,-0.28056,0.38291,-9.8627,0,0,38.546,1,1,7745,3872
12414,1.0396e+08,2,-0.0028192,-0.0032655,-0.019551,-0.35082,0.41867,-9.8942,0,0,38.546,1,1,7745,3872
12452,1.0397e+08,2,0.0091221,0.022925,0.014198,-0.34204,0.41068,-9.8702,0,0,38.546,1,1,7745,3872
12457,1.0397e+08,2,0.0071791,0.043489,0.055679,-0.24904,0.33582,-9.8028,0,0,38.546,1,1,7745,3872
12460,1.0397e+08,2,-0.0041178,0.039141,0.061605,-0.139,0.24864,-9.7517,0,0,38.546,1,1,7745,3872
12463,1.0397e+08,2,0.0023859,0.0089597,0.035831,0.0016908,0.13833,-9.7089,0,0,38.546,1,1,7745,3872
12498,1.0398e+08,2,0.0071598,-0.019278,0.0076819,0.2341,-0.0030357,-9.6845,0,0,38.546,1,1,7745,3872
12501,1.0398e+08,2,-0.001499,-0.042828,-0.014649,0.36806,-0.038627,-9.7145,0,0,38.546,1,1,7745,3872
12505,1.0398e+08,2,-0.026987,-0.040059,-0.019911,0.50072,0.0057668,-9.791,0,0,38.546,1,1,7745,3872
12508,1.0399e+08,2,-0.027893,-0.023731,-0.0033226,0.52807,0.08347,-9.8086,0,0,38.546,1,1,7745,3872
12545,1.0399e+08,2,-0.018077,-0.0041701,0.029344,0.45844,0.21762,-9.8038,0,0,38.546,1,1,7745,3872
12549,1.0399e+08,2,-0.021856,0.0049109,0.039571,0.35148,0.30001,-9.8033,0,0,38.546,1,1,7745,3872
12552,1.0399e+08,2,0.001511,0.0099034,0.025324,0.14519,0.38743,-9.7973,0,0,38.547,1,1,7745,3872
12555,1.04e+08,2,0.031277,0.0021821,0.00095848,0.0039794,0.41003,-9.8012,0,0,38.547,1,1,7745,3872
12590,1.04e+08,2,0.02271,-0.020916,-0.035026,-0.18649,0.43122,-9.834,0,0,38.547,1,1,7745,3872
12593,1.04e+08,2,0.00072182,-0.024731,-0.041923,-0.28257,0.44624,-9.866,0,0,38.547,1,1,7745,3872
12597,1.04e+08,2,0.0046497,0.0032356,-0.018433,-0.35203,0.43695,-9.8897,0,0,38.547,1,1,7745,3872
12600,1.0401e+08,2,0.019432,0.025099,0.0098596,-0.34262,0.39753,-9.8681,0,0,38.547,1,1,7745,3872
12635,1.0401e+08,2,0.0050973,0.027332,0.048628,-0.25098,0.28996,-9.802,0,0,38.547,1,1,7745,3872
12639,1.0401e+08,2,0.00038342,0.020487,0.049192,-0.14149,0.19215,-9.753,0,0,38.547,1,1,7745,3872
12642,1.0401e+08,2,0.0095026,-0.0074859,0.027221,0.074159,0.035852,-9.7271,0,0,38.547,1,1,7745,3872
12645,1.0402e+08,2,0.0094751,-0.024392,0.0030287,0.22025,-0.03619,-9.7616,0,0,38.547,1,1,7745,3872
12680,1.0402e+08,2,-0.021182,-0.030942,-0.017827,0.38525,-0.046057,-9.849,0,0,38.547,1,1,7745,3872
12685,1.0402e+08,2,-0.032909,-0.014482,-0.0095826,0.45923,0.042434,-9.8728,0,0,38.547,1,1,7745,3872
12688,1.0402e+08,2,-0.023067,-0.0084282,0.0047254,0.44275,0.12493,-9.8486,0,0,38.548,1,1,7745,3872
12691,1.0403e+08,2,-0.022668,-0.0029696,0.019156,0.32357,0.24991,-9.83,0,0,38.548,1,1,7745,3872
12726,1.0403e+08,2,-0.020768,0.0043183,0.015015,0.20469,0.32238,-9.8328,0,0,38.548,1,1,7745,3872
12729,1.0403e+08,2,0.02588,0.0077348,-0.012375,0.0085206,0.39534,-9.8587,0,0,38.548,1,1,7745,3872
12734,1.0403e+08,2,0.04799,0.0020453,-0.033181,-0.11903,0.42607,-9.8995,0,0,38.548,1,1,7745,3872
12737,1.0404e+08,2,0.018775,0.00072971,-0.046185,-0.27696,0.47573,-9.9447,0,0,38.548,1,1,7745,3872
12772,1.0404e+08,2,-0.0035044,0.0082586,-0.03523,-0.3131,0.48822,-9.9398,0,0,38.548,1,1,7745,3872
12776,1.0405e+08,2,0.010031,0.014926,0.031097,-0.16116,0.24822,-9.7326,0,0,38.548,1,1,7745,3872
12811,1.0405e+08,2,0.012987,0.0073152,0.023076,-0.023628,0.1408,-9.7423,0,0,38.548,1,1,7745,3872
12816,1.0405e+08,2,0.015287,-0.010394,-0.0034465,0.19861,0.010623,-9.8047,0,0,38.548,1,1,7745,3872
12819,1.0406e+08,2,-0.0058677,-0.01717,-0.018328,0.32805,-0.021161,-9.8536,0,0,38.548,1,1,7745,3872
12822,1.0406e+08,2,-0.039615,-0.01208,-0.019849,0.44993,0.027416,-9.8605,0,0,38.548,1,1,7745,3872
12857,1.0406e+08,2,-0.022557,-0.011389,-0.0002439,0.45974,0.14382,-9.7801,0,0,38.548,1,1,7745,3872
12861,1.0406e+08,2,-0.0051607,-0.016851,0.011892,0.40187,0.2286,-9.7425,0,0,38.548,1,1,7745,3872
12864,1.0407e+08,2,-0.014416,-0.013201,0.012949,0.24857,0.34354,-9.7436,0,0,38.549,1,1,7745,3872
12867,1.0407e+08,2,-0.010459,-0.0054538,-0.0010348,0.12084,0.40018,-9.7583,0,0,38.549,1,1,7745,3872
12905,1.0407e+08,2,0.030823,0.0014568,-0.03299,-0.013456,0.43095,-9.7847,0,0,38.549,1,1,7745,3872
12909,1.0407e+08,2,0.036902,0.0058833,-0.049196,-0.14388,0.44659,-9.827,0,0,38.549,1,1,7745,3872
12912,1.0408e+08,2,0.019761,0.014802,-0.051568,-0.30573,0.47016,-9.8697,0,0,38.549,1,1,7745,3872
12915,1.0408e+08,2,0.0046417,0.023716,-0.037977,-0.37343,0.47161,-9.846,0,0,38.549,1,1,7745,3872
12950,1.0408e+08,2,0.0095168,0.018975,-0.00068059,-0.39465,0.42004,-9.76,0,0,38.549,1,1,7745,3872
12954,1.0408e+08,2,0.01279,0.0079989,0.021361,-0.34579,0.35001,-9.7189,0,0,38.549,1,1,7745,3872
12957,1.0409e+08,2,-0.0029732,-0.0053657,0.033167,-0.18401,0.21235,-9.6934,0,0,38.549,1,1,7745,3872
12960,1.0409e+08,2,-0.0040792,-0.010033,0.026197,-0.038695,0.11336,-9.701,0,0,38.549,1,1,7745,3872
12995,1.0409e+08,2,0.0056704,-0.008834,0.002734,0.19217,0.0031835,-9.7602,0,0,38.549,1,1,7745,3872
12999,1.0409e+08,2,-0.011633,-0.00085414,-0.013574,0.37121,-0.0074616,-9.8381,0,0,38.549,1,1,7745,3872
13002,1.041e+08,2,-0.028521,0.0030713,-0.011655,0.43355,0.041031,-9.856,0,0,38.549,1,1,7745,3872
13005,1.041e+08,2,-0.026593,-0.0058652,0.0034529,0.44004,0.11802,-9.837,0,0,38.549,1,1,7745,3872
13040,1.041e+08,2,-0.015595,-0.014599,0.012816,0.39513,0.20488,-9.808,0,0,38.549,1,1,7745,3872
13044,1.041e+08,2,-0.011778,-0.019138,0.013948,0.26273,0.32631,-9.7878,0,0,38.55,1,1,7745,3872
13047,1.0411e+08,2,-0.0066861,-0.019636,0.0054894,0.14551,0.39291,-9.7933,0,0,38.55,1,1,7745,3872
13050,1.0411e+08,2,0.021925,-0.0088962,-0.017583,-0.045342,0.45683,-9.8306,0,0,38.55,1,1,7745,3872
13085,1.0411e+08,2,0.034914,0.0044366,-0.029568,-0.16103,0.48321,-9.8689,0,0,38.55,1,1,7745,3872
13089,1.0411e+08,2,0.027905,0.027482,-0.027943,-0.29792,0.50479,-9.9084,0,0,38.55,1,1,7745,3872
13092,1.0412e+08,2,0.017418,0.040078,-0.0052054,-0.36431,0.47975,-9.8797,0,0,38.55,1,1,7745,3872
13095,1.0412e+08,2,0.015445,0.031405,0.013473,-0.35248,0.42676,-9.8248,0,0,38.55,1,1,7745,3872
13130,1.0412e+08,2,0.008911,-0.00049185,0.032286,-0.24122,0.29322,-9.7588,0,0,38.55,1,1,7745,3872
13133,1.0413e+08,2,-0.0043691,-0.023755,0.030876,-0.043866,0.12774,-9.757,0,0,38.55,1,1,7745,3872
13136,1.0413e+08,2,-0.0041695,-0.020928,0.02056,0.10767,0.032857,-9.7944,0,0,38.55,1,1,7745,3872
13139,1.0413e+08,2,0.0035651,-0.00048682,0.0066725,0.24694,-0.024924,-9.8466,0,0,38.55,1,1,7745,3872
13174,1.0413e+08,2,0.00022681,0.016935,0.0051883,0.35248,-0.037474,-9.9021,0,0,38.55,1,1,7745,3872
13178,1.0413e+08,2,-0.012187,0.024007,0.010116,0.43192,0.022929,-9.9202,0,0,38.551,1,1,7745,3872
13181,1.0414e+08,2,-0.02161,0.0095726,0.018191,0.4252,0.10069,-9.8742,0,0,38.551,1,1,7745,3872
13184,1.0414e+08,2,-0.022394,-0.026272,0.024558,0.33033,0.2235,-9.8075,0,0,38.551,1,1,7745,3872
13219,1.0414e+08,2,-0.017185,-0.027923,0.013882,0.17586,0.32322,-9.8,0,0,38.551,1,1,7745,3872
13222,1.0414e+08,2,0.00068466,-0.012831,-0.0010127,0.054798,0.36917,-9.8163,0,0,38.551,1,1,7745,3872
13225,1.0415e+08,2,0.031994,0.011873,-0.022154,-0.12868,0.40356,-9.8634,0,0,38.551,1,1,7745,3872
13228,1.0415e+08,2,0.036288,0.027723,-0.026814,-0.23531,0.41342,-9.9022,0,0,38.551,1,1,7745,3872
13263,1.0415e+08,2,0.023996,0.049523,-0.013753,-0.3385,0.40892,-9.9217,0,0,38.551,1,1,7745,3872
13267,1.0416e+08,2,0.017905,0.046141,0.0032259,-0.35463,0.38123,-9.8797,0,0,38.551,1,1,7745,3872
13270,1.0416e+08,2,0.0083576,0.0070652,0.027274,-0.29185,0.29073,-9.787,0,0,38.552,1,1,7745,3872
13273,1.0416e+08,2,-0.0071821,-0.01797,0.03555,-0.18941,0.20286,-9.744,0,0,38.552,1,1,7745,3872
13308,1.0416e+08,2,-0.027433,-0.025162,0.031511,-0.049817,0.10425,-9.7245,0,0,38.552,1,1,7745,3872
13312,1.0417e+08,2,-0.020563,-0.013289,0.020878,0.18078,-0.020202,-9.738,0,0,38.552,1,1,7745,3872
13315,1.0417e+08,2,-0.0004121,0.0024229,0.010725,0.31477,-0.059353,-9.777,0,0,38.552,1,1,7745,3872
13318,1.0417e+08,2,0.0097645,0.0256,0.0055647,0.44944,-0.034447,-9.8446,0,0,38.552,1,1,7745,3872
13356,1.0417e+08,2,-0.0093183,0.024386,0.009096,0.4852,0.034627,-9.8382,0,0,38.552,1,1,7745,3872
13360,1.0418e+08,2,-0.033756,-0.022226,0.016194,0.44343,0.17401,-9.7554,0,0,38.552,1,1,7745,3872
13363,1.0418e+08,2,-0.033892,-0.048996,0.014998,0.36339,0.25914,-9.7226,0,0,38.552,1,1,7745,3872
13366,1.0418e+08,2,-0.022113,-0.032353,0.00164,0.20245,0.36112,-9.7395,0,0,38.552,1,1,7745,3872
13401,1.0418e+08,2,-0.0019658,-0.0037069,-0.011191,0.080158,0.40857,-9.7671,0,0,38.552,1,1,7745,3872
13405,1.0419e+08,2,0.03829,0.021185,-0.027332,-0.10899,0.44241,-9.8187,0,0,38.552,1,1,7745,3872
13408,1.0419e+08,2,0.047067,0.032383,-0.029964,-0.21673,0.44445,-9.8662,0,0,38.552,1,1,7745,3872
13411,1.0419e+08,2,0.020834,0.047292,-0.01815,-0.30202,0.41996,-9.8774,0,0,38.552,1,1,7745,3872
13425,1.0423e+08,2,0.032774,0.047406,-0.025455,-0.29308,0.47354,-9.9094,0,0,38.553,1,1,7745,3872
13429,1.0423e+08,2,0.0065598,0.027967,-0.016432,-0.29911,0.42123,-9.8672,0,0,38.553,1,1,7745,3872
13432,1.0423e+08,2,-0.020838,-0.031994,0.00012041,-0.21746,0.32545,-9.7696,0,0,38.553,1,1,7745,3872
13467,1.0424e+08,2,-0.019444,-0.043262,0.013827,-0.039735,0.19101,-9.7447,0,0,38.553,1,1,7745,3872
13473,1.0424e+08,2,-0.016908,-0.021209,0.018371,0.10875,0.10335,-9.7677,0,0,38.553,1,1,7745,3872
13476,1.0424e+08,2,0.0085747,0.034803,0.0071244,0.42885,0.0099053,-9.9028,0,0,38.553,1,1,7745,3872
13511,1.0425e+08,2,-0.040428,-0.051683,-0.0068617,0.41745,0.20817,-9.7767,0,0,38.553,1,1,7745,3872
13515,1.0425e+08,2,-0.039592,-0.079878,-0.009679,0.3236,0.30037,-9.7511,0,0,38.553,1,1,7745,3872
13518,1.0426e+08,2,-0.011723,-0.040644,-0.012048,0.1469,0.42296,-9.7895,0,0,38.553,1,1,7745,3872
13553,1.0426e+08,2,0.012722,0.0050099,-0.013299,0.080361,0.45442,-9.81,0,0,38.553,1,1,7745,3872
13556,1.0426e+08,2,0.040484,0.045306,-0.015338,-0.13171,0.50917,-9.8685,0,0,38.553,1,1,7745,3872
13559,1.0426e+08,2,0.044676,0.051885,-0.016228,-0.25567,0.51462,-9.9007,0,0,38.553,1,1,7745,3872
13562,1.0427e+08,2,0.037381,0.05725,-0.017347,-0.3573,0.4753,-9.9034,0,0,38.553,1,1,7745,3872
13597,1.0427e+08,2,0.014211,0.011468,-0.013633,-0.34697,0.38698,-9.8228,0,0,38.553,1,1,7745,3872
13600,1.0427e+08,2,0.0013336,-0.038629,-0.0072906,-0.28746,0.31194,-9.7666,0,0,38.553,1,1,7745,3872
13604,1.0427e+08,2,-0.011814,-0.059398,0.0082809,-0.11964,0.18654,-9.7515,0,0,38.553,1,1,7745,3872
13610,1.0428e+08,2,-0.020543,-0.028816,0.019825,0.024683,0.10829,-9.7701,0,0,38.553,1,1,7745,3872
13646,1.0428e+08,2,-0.012503,0.022284,0.030005,0.22147,0.025846,-9.8073,0,0,38.553,1,1,7745,3872
13649,1.0428e+08,2,0.017115,0.041112,0.027035,0.35868,0.0078094,-9.8601,0,0,38.553,1,1,7745,3872
13652,1.0428e+08,2,0.017147,0.036603,0.018288,0.41118,0.040054,-9.8767,0,0,38.553,1,1,7745,3872
13655,1.0429e+08,2,-0.020241,-0.01041,0.0024842,0.42553,0.1077,-9.8447,0,0,38.553,1,1,7745,3872
13690,1.0429e+08,2,-0.039029,-0.059723,-0.0066886,0.39346,0.19968,-9.7723,0,0,38.553,1,1,7745,3872
13693,1.0429e+08,2,-0.03366,-0.08471,-0.01118,0.2706,0.35143,-9.709,0,0,38.553,1,1,7745,3872
13697,1.0429e+08,2,-0.012257,-0.063447,-0.010653,0.16067,0.4444,-9.7322,0,0,38.553,1,1,7745,3872
13700,1.043e+08,2,0.024598,0.014187,-0.0052118,-0.029271,0.54639,-9.8074,0,0,38.553,1,1,7745,3872
13735,1.043e+08,2,0.060675,0.06834,-0.001408,-0.22217,0.57683,-9.8741,0,0,38.553,1,1,7745,3872
13738,1.043e+08,2,0.071323,0.076656,-0.0014429,-0.31366,0.55182,-9.9003,0,0,38.553,1,1,7745,3872
13741,1.043e+08,2,0.037908,0.043955,-0.0051091,-0.35767,0.45633,-9.8604,0,0,38.553,1,1,7745,3872
13744,1.0431e+08,2,0.0023529,-0.0082861,-0.008315,-0.32957,0.36963,-9.7877,0,0,38.553,1,1,7745,3872
13779,1.0431e+08,2,-0.013152,-0.067599,-0.0061836,-0.20812,0.21652,-9.71,0,0,38.552,1,1,7745,3872
13782,1.0431e+08,2,-0.0014983,-0.041394,0.010672,-0.009101,0.069623,-9.7236,0,0,38.552,1,1,7745,3872
13786,1.0432e+08,2,0.0013669,-0.0012578,0.024628,0.12542,0.00028281,-9.7625,0,0,38.552,1,1,7745,3872
13789,1.0432e+08,2,0.0095206,0.04215,0.037416,0.23613,-0.037778,-9.8096,0,0,38.552,1,1,7745,3872
13824,1.0432e+08,2,0.017698,0.051495,0.034096,0.35033,-0.034779,-9.8694,0,0,38.552,1,1,7745,3872
13827,1.0432e+08,2,0.011857,0.043793,0.029073,0.38658,0.0060813,-9.8671,0,0,38.552,1,1,7745,3872
13831,1.0433e+08,2,-0.02574,-0.019108,0.0052895,0.36061,0.11597,-9.7924,0,0,38.552,1,1,7745,3872
13834,1.0433e+08,2,-0.043772,-0.067095,-0.010533,0.29115,0.20535,-9.7361,0,0,38.552,1,1,7745,3872
13869,1.0433e+08,2,-0.012597,-0.043264,-0.022889,0.080174,0.38289,-9.7388,0,0,38.552,1,1,7745,3872
13873,1.0433e+08,2,0.0165,0.010775,-0.016424,-0.045489,0.4529,-9.7752,0,0,38.552,1,1,7745,3872
13877,1.0434e+08,2,0.054695,0.064911,-0.0018703,-0.23916,0.51109,-9.8391,0,0,38.552,1,1,7745,3872
13880,1.0434e+08,2,0.067067,0.078546,0.0044119,-0.33507,0.50299,-9.8879,0,0,38.552,1,1,7745,3872
13915,1.0434e+08,2,0.034903,0.065058,0.0032786,-0.37809,0.42127,-9.8914,0,0,38.552,1,1,7745,3872
13918,1.0434e+08,2,-0.019931,-0.012272,-0.0071318,-0.30779,0.29313,-9.7763,0,0,38.552,1,1,7745,3872
13922,1.0435e+08,2,-0.028534,-0.062642,-0.011004,-0.21325,0.19053,-9.7134,0,0,38.552,1,1,7745,3872
13925,1.0435e+08,2,-0.013053,-0.052804,-0.0028748,-0.085467,0.088614,-9.7033,0,0,38.553,1,1,7745,3872
13960,1.0435e+08,2,-0.011002,-0.0081005,0.010339,0.060389,0.0043947,-9.7384,0,0,38.553,1,1,7745,3872
13963,1.0435e+08,2,-0.011562,0.030523,0.025234,0.24745,-0.064297,-9.83,0,0,38.553,1,1,7745,3872
13966,1.0436e+08,2,-0.0016887,0.049903,0.034624,0.33267,-0.072305,-9.8929,0,0,38.553,1,1,7745,3872
13969,1.0436e+08,2,0.0066999,0.045773,0.029918,0.40801,-0.034498,-9.9428,0,0,38.553,1,1,7745,3872
14004,1.0436e+08,2,-0.032545,-0.0057444,0.0033174,0.39866,0.062153,-9.8874,0,0,38.553,1,1,7745,3872
14007,1.0437e+08,2,-0.058007,-0.052006,-0.016815,0.33574,0.14725,-9.8236,0,0,38.553,1,1,7745,3872
14011,1.0437e+08,2,-0.043271,-0.070903,-0.034136,0.18133,0.28681,-9.7632,0,0,38.553,1,1,7745,3872
14014,1.0437e+08,2,-0.0090066,-0.036235,-0.032673,0.058306,0.37441,-9.7632,0,0,38.553,1,1,7745,3872
14049,1.0437e+08,2,0.028877,0.031139,-0.015804,-0.14344,0.47638,-9.804,0,0,38.553,1,1,7745,3872
14052,1.0438e+08,2,0.045689,0.060903,-0.0034773,-0.2679,0.50572,-9.8493,0,0,38.553,1,1,7745,3872
14056,1.0438e+08,2,0.046272,0.07433,0.0025108,-0.37288,0.45961,-9.9079,0,0,38.553,1,1,7745,3872
14062,1.0438e+08,2,0.016993,0.053721,-0.0046163,-0.37381,0.38156,-9.9,0,0,38.554,1,1,7745,3872
14098,1.0438e+08,2,-0.031477,-0.017455,-0.021138,-0.32986,0.28477,-9.8529,0,0,38.554,1,1,7745,3872
14101,1.0439e+08,2,-0.034759,-0.054345,-0.02527,-0.24436,0.18052,-9.7891,0,0,38.554,1,1,7745,3872
14105,1.0439e+08,2,-0.019793,-0.05946,-0.019022,-0.052477,0.036723,-9.7169,0,0,38.554,1,1,7745,3872
14108,1.0439e+08,2,-0.011072,-0.038164,-0.0026428,0.089602,-0.031463,-9.713,0,0,38.554,1,1,7745,3872
14143,1.0439e+08,2,-0.022903,0.012108,0.028144,0.26214,-0.068541,-9.7822,0,0,38.554,1,1,7745,3872
14146,1.044e+08,2,-0.014425,0.047943,0.042134,0.37737,-0.041171,-9.8697,0,0,38.554,1,1,7745,3872
14150,1.044e+08,2,-0.0018585,0.042695,0.03358,0.4166,-0.00025256,-9.8947,0,0,38.554,1,1,7745,3872
14153,1.044e+08,2,-0.025457,-0.010132,-0.00094741,0.39212,0.096787,-9.8849,0,0,38.554,1,1,7745,3872
14188,1.044e+08,2,-0.066833,-0.056386,-0.034897,0.27586,0.23687,-9.8226,0,0,38.554,1,1,7745,3872
14191,1.0441e+08,2,-0.053272,-0.058596,-0.04366,0.16627,0.33935,-9.7567,0,0,38.554,1,1,7745,3872
14194,1.0441e+08,2,0.011029,-0.029003,-0.030524,-0.026289,0.47495,-9.6997,0,0,38.554,1,1,7745,3872
14197,1.0441e+08,2,0.042548,0.0048617,-0.010235,-0.15845,0.54182,-9.7304,0,0,38.554,1,1,7745,3872
14232,1.0441e+08,2,0.053501,0.061243,0.016188,-0.26582,0.57182,-9.8029,0,0,38.554,1,1,7745,3872
14235,1.0442e+08,2,0.040347,0.075171,0.020498,-0.32579,0.54904,-9.8706,0,0,38.554,1,1,7745,3872
14239,1.0442e+08,2,0.015954,0.052972,0.010966,-0.32171,0.42786,-9.894,0,0,38.554,1,1,7745,3872
14243,1.0442e+08,2,-0.0088158,0.0098661,-0.0071576,-0.26452,0.32065,-9.8666,0,0,38.554,1,1,7745,3872
14278,1.0443e+08,2,-0.02166,-0.047974,-0.025684,-0.037803,0.12449,-9.7491,0,0,38.554,1,1,7745,3872
14281,1.0443e+08,2,-0.0089474,-0.050657,-0.01262,0.0965,0.05845,-9.6911,0,0,38.554,1,1,7745,3872
14284,1.0443e+08,2,-0.0079511,-0.026464,0.024467,0.26943,0.018414,-9.6982,0,0,38.554,1,1,7745,3872
14287,1.0443e+08,2,-0.012956,0.0043849,0.046652,0.35962,0.027472,-9.7656,0,0,38.554,1,1,7745,3872
14322,1.0443e+08,2,-0.004,0.039554,0.05374,0.44592,0.06891,-9.8643,0,0,38.554,1,1,7745,3872
14325,1.0444e+08,2,0.001503,0.032963,0.036802,0.45348,0.11385,-9.8865,0,0,38.554,1,1,7745,3872
14329,1.0444e+08,2,-0.014338,-0.011165,-0.0069046,0.38059,0.21739,-9.8463,0,0,38.554,1,1,7745,3872
14332,1.0444e+08,2,-0.027132,-0.041592,-0.0321,0.28823,0.3127,-9.7824,0,0,38.554,1,1,7745,3872
14367,1.0444e+08,2,-0.0098093,-0.058496,-0.039954,0.16961,0.41526,-9.7141,0,0,38.554,1,1,7745,3872
14372,1.0445e+08,2,0.0030602,-0.051829,-0.034277,0.031874,0.50915,-9.6717,0,0,38.554,1,1,7745,3872
14375,1.0445e+08,2,0.068382,0.062739,0.021839,-0.29,0.59559,-9.805,0,0,38.554,1,1,7745,3872
14410,1.0446e+08,2,0.069037,0.068896,0.02395,-0.31608,0.52218,-9.8813,0,0,38.554,1,1,7745,3872
14413,1.0446e+08,2,0.026941,0.036384,0.0043397,-0.26355,0.35679,-9.9251,0,0,38.554,1,1,7745,3872
14417,1.0446e+08,2,-0.0072939,0.00057423,-0.011603,-0.171,0.24374,-9.8834,0,0,38.554,1,1,7745,3872
14420,1.0447e+08,2,-0.0042149,-0.052085,0.0071035,0.19941,0.013771,-9.7383,0,0,38.554,1,1,7745,3872
14455,1.0447e+08,2,-0.0068009,0.0063421,0.043834,0.34525,0.0078572,-9.8071,0,0,38.554,1,1,7745,3872
14459,1.0447e+08,2,0.0049673,0.039277,0.058679,0.40781,0.029627,-9.8791,0,0,38.554,1,1,7745,3872
14462,1.0447e+08,2,0.020328,0.045703,0.056154,0.43328,0.064525,-9.9385,0,0,38.554,1,1,7745,3872
14466,1.0448e+08,2,0.0069574,0.014865,0.02174,0.42083,0.11692,-9.9644,0,0,38.554,1,1,7745,3872
14503,1.0448e+08,2,-0.0084231,0.00011229,0.0061939,0.37676,0.18997,-9.9395,0,0,38.554,1,1,7745,3872
14506,1.0448e+08,2,-0.037978,-0.043644,-0.031813,0.2588,0.3343,-9.8138,0,0,38.554,1,1,7745,3872
14512,1.0448e+08,2,-0.015501,-0.05934,-0.041001,0.1447,0.43318,-9.735,0,0,38.554,1,1,7745,3872
14516,1.0449e+08,2,0.034126,-0.024225,-0.023831,-0.046049,0.556,-9.7308,0,0,38.555,1,1,7745,3872
14551,1.0449e+08,2,0.056482,0.049404,0.0084182,-0.19529,0.61368,-9.8296,0,0,38.555,1,1,7745,3872
14554,1.0449e+08,2,0.064486,0.072172,0.022357,-0.25302,0.58287,-9.9009,0,0,38.555,1,1,7745,3872
14557,1.0449e+08,2,0.060112,0.064363,0.021272,-0.26767,0.4988,-9.9505,0,0,38.555,1,1,7745,3872
14560,1.045e+08,2,0.015378,0.023779,-0.0031109,-0.19774,0.32256,-9.9407,0,0,38.555,1,1,7745,3872
14595,1.045e+08,2,-0.021551,-0.033924,-0.027185,-0.040586,0.1483,-9.8088,0,0,38.555,1,1,7745,3872
14598,1.045e+08,2,-0.013851,-0.068465,-0.027482,0.077036,0.052888,-9.7276,0,0,38.555,1,1,7745,3872
14601,1.045e+08,2,-0.007536,-0.054916,0.00050229,0.23476,-0.030737,-9.7255,0,0,38.555,1,1,7745,3872
14604,1.0451e+08,2,-0.019743,-0.0017722,0.028232,0.28068,-0.037276,-9.7519,0,0,38.555,1,1,7745,3872
14639,1.0451e+08,2,-0.008674,0.050499,0.055576,0.38128,-0.015669,-9.8414,0,0,38.555,1,1,7745,3872
14643,1.0451e+08,2,0.0096791,0.041366,0.051052,0.39963,0.02884,-9.8956,0,0,38.555,1,1,7745,3872
14646,1.0451e+08,2,0.0031046,0.014397,0.02833,0.37159,0.078383,-9.8984,0,0,38.555,1,1,7745,3872
14649,1.0452e+08,2,-0.047178,-0.032592,-0.020283,0.28996,0.1982,-9.7998,0,0,38.555,1,1,7745,3872
14684,1.0452e+08,2,-0.053955,-0.068649,-0.043182,0.202,0.29905,-9.7027,0,0,38.555,1,1,7745,3872
14687,1.0452e+08,2,-0.0022472,-0.072404,-0.045417,0.023612,0.4457,-9.6557,0,0,38.555,1,1,7745,3872
14690,1.0452e+08,2,0.027403,-0.017148,-0.027253,-0.09393,0.52893,-9.7106,0,0,38.555,1,1,7745,3872
14693,1.0453e+08,2,0.043919,0.076026,0.0079674,-0.22855,0.58191,-9.8224,0,0,38.556,1,1,7745,3872
14728,1.0453e+08,2,0.046538,0.088731,0.019426,-0.28066,0.54129,-9.864,0,0,38.556,1,1,7745,3872
14732,1.0453e+08,2,0.021631,0.042963,0.005787,-0.27503,0.39524,-9.8544,0,0,38.556,1,1,7745,3872
14735,1.0453e+08,2,-0.010785,0.002731,-0.015937,-0.2046,0.27493,-9.7921,0,0,38.556,1,1,7745,3872
14738,1.0454e+08,2,-0.034131,-0.062039,-0.039203,-0.040547,0.1075,-9.6625,0,0,38.556,1,1,7745,3872
14773,1.0454e+08,2,-0.015316,-0.083746,-0.028493,0.11726,-0.003005,-9.6632,0,0,38.556,1,1,7745,3872
14777,1.0454e+08,2,-0.02096,-0.037756,-0.0020826,0.20606,-0.028903,-9.7524,0,0,38.556,1,1,7745,3872
14780,1.0455e+08,2,-0.034094,0.031191,0.028869,0.28175,-0.020501,-9.8449,0,0,38.556,1,1,7745,3872
14783,1.0455e+08,2,-0.015843,0.071494,0.052606,0.33607,0.015417,-9.9107,0,0,38.556,1,1,7745,3872
14818,1.0455e+08,2,-0.0016186,0.020009,0.030097,0.30907,0.075818,-9.9145,0,0,38.556,1,1,7745,3872
14821,1.0455e+08,2,-0.029346,-0.016658,-0.0014961,0.26625,0.1425,-9.8718,0,0,38.556,1,1,7745,3872
14824,1.0456e+08,2,-0.064829,-0.064018,-0.044109,0.17029,0.27735,-9.7316,0,0,38.556,1,1,7745,3872
14827,1.0456e+08,2,-0.039765,-0.087199,-0.054815,0.070521,0.37168,-9.6784,0,0,38.556,1,1,7745,3872
14862,1.0456e+08,2,0.015579,-0.037833,-0.036877,-0.099589,0.49924,-9.7521,0,0,38.556,1,1,7745,3872
14866,1.0456e+08,2,0.03302,0.041874,-0.010948,-0.19119,0.5568,-9.8383,0,0,38.556,1,1,7745,3872
14869,1.0457e+08,2,0.047283,0.10795,0.016541,-0.28936,0.53847,-9.9124,0,0,38.556,1,1,7745,3872
14872,1.0457e+08,2,0.040768,0.08739,0.014898,-0.31807,0.45677,-9.9134,0,0,38.556,1,1,7745,3872
14907,1.0457e+08,2,-0.0041551,0.013769,-0.01297,-0.29823,0.3474,-9.8729,0,0,38.557,1,1,7745,3872
14910,1.0457e+08,2,-0.030503,-0.036657,-0.033494,-0.17279,0.1728,-9.7336,0,0,38.557,1,1,7745,3872
14915,1.0458e+08,2,-0.03123,-0.080849,-0.042928,-0.059597,0.070758,-9.6644,0,0,38.557,1,1,7745,3872
14918,1.0458e+08,2,-0.012845,-0.081814,-0.022987,0.093411,-0.021497,-9.7462,0,0,38.557,1,1,7745,3872
14953,1.0458e+08,2,-0.025625,0.020835,0.025526,0.21959,-0.025612,-9.9341,0,0,38.557,1,1,7745,3872
14957,1.0458e+08,2,-0.026035,0.078849,0.052237,0.27607,-0.0062017,-10.001,0,0,38.557,1,1,7745,3872
14963,1.0459e+08,2,-0.0081897,0.065165,0.054699,0.28526,0.037415,-9.9808,0,0,38.557,1,1,7745,3872
14967,1.0459e+08,2,-0.012131,0.016285,0.031141,0.25595,0.089048,-9.9174,0,0,38.557,1,1,7745,3872
15002,1.0459e+08,2,-0.040038,-0.044051,-0.017453,0.18692,0.20227,-9.7752,0,0,38.557,1,1,7745,3872
15006,1.0459e+08,2,-0.037711,-0.071985,-0.039892,0.11457,0.29577,-9.7078,0,0,38.557,1,1,7745,3872
15009,1.046e+08,2,0.0037449,-0.065455,-0.042099,-0.039475,0.44066,-9.7607,0,0,38.558,1,1,7745,3872
15012,1.046e+08,2,0.023849,-0.0086914,-0.022728,-0.14127,0.52442,-9.8575,0,0,38.558,1,1,7745,3872
15047,1.046e+08,2,0.03976,0.0858,0.01435,-0.21836,0.56894,-9.9322,0,0,38.558,1,1,7745,3872
15050,1.046e+08,2,0.04436,0.10014,0.025091,-0.27187,0.55096,-9.9621,0,0,38.558,1,1,7745,3872
15053,1.0461e+08,2,0.033595,0.074424,0.018072,-0.29666,0.43101,-9.9378,0,0,38.558,1,1,7745,3872
15056,1.0461e+08,2,0.011854,0.033308,0.00022929,-0.25521,0.32452,-9.8802,0,0,38.558,1,1,7745,3872
15091,1.0461e+08,2,-0.0070056,-0.033822,-0.025602,-0.11702,0.15921,-9.746,0,0,38.558,1,1,7745,3872
15095,1.0461e+08,2,-0.0037217,-0.082721,-0.025981,0.038153,0.041973,-9.7253,0,0,38.558,1,1,7745,3872
15098,1.0462e+08,2,-0.0090373,-0.063307,-0.0063976,0.13007,0.011489,-9.8081,0,0,38.559,1,1,7745,3872
15101,1.0462e+08,2,-0.0221,0.026448,0.039337,0.25355,0.018956,-9.9305,0,0,38.559,1,1,7745,3872
15136,1.0462e+08,2,-0.010114,0.061006,0.058952,0.30479,0.035377,-9.9596,0,0,38.559,1,1,7745,3872
15139,1.0462e+08,2,0.0051541,0.040304,0.052024,0.30906,0.082517,-9.9283,0,0,38.559,1,1,7745,3872
15142,1.0463e+08,2,-0.0060061,0.011027,0.028658,0.28051,0.14131,-9.8542,0,0,38.559,1,1,7745,3872
15145,1.0463e+08,2,-0.023162,-0.034999,-0.011967,0.23613,0.21468,-9.7371,0,0,38.559,1,1,7745,3872
15148,1.0463e+08,2,-0.012588,-0.065883,-0.030436,0.16685,0.29658,-9.6356,0,0,38.559,1,1,7745,3872
15184,1.0464e+08,2,0.0090666,-0.070794,-0.03484,0.014491,0.42956,-9.654,0,0,38.559,1,1,7745,3872
15187,1.0464e+08,2,0.033657,0.0015246,-0.013162,-0.13045,0.54024,-9.8006,0,0,38.559,1,1,7745,3872
15190,1.0464e+08,2,0.047913,0.057201,0.0094018,-0.19477,0.56125,-9.8651,0,0,38.559,1,1,7745,3872
