LineNo,TimeUS,I,GyrX,GyrY,GyrZ,AccX,AccY,AccZ,EG,EA,T,GH,AH,GHz,AHz
182,1.0097e+08,0,0.0039771,-0.00031364,-0.0006875,-0.020312,0.32787,-9.7704,0,0,44.899,1,1,8008,4004
217,1.0098e+08,0,0.0038824,3.7867e-05,-0.0002672,-0.020007,0.32901,-9.772,0,0,44.899,1,1,8008,4004
287,1.01e+08,0,0.0019749,-0.0044918,-6.4068e-06,-0.0062,0.3156,-9.7782,0,0,44.899,1,1,8008,4004
402,1.0103e+08,0,0.00054412,-0.0006066,-0.00073841,-0.021239,0.29887,-9.7765,0,0,44.899,1,1,8008,4004
518,1.0106e+08,0,-0.0017565,0.0033002,0.002264,-0.026178,0.30333,-9.7794,0,0,44.899,1,1,8008,4004
633,1.0109e+08,0,-0.0057737,0.0013055,0.0013844,-0.018411,0.29819,-9.7752,0,0,44.9,1,1,8008,4004
636,1.0109e+08,0,-0.0054468,0.00077492,0.0014546,-0.017908,0.30024,-9.7775,0,0,44.9,1,1,8008,4004
747,1.0111e+08,0,-0.0032803,-0.0021535,0.0010261,-0.029505,0.31374,-9.7828,0,0,44.9,1,1,8008,4004
782,1.0112e+08,0,-0.0021896,-0.0035008,0.0009905,-0.028957,0.31157,-9.7807,0,0,44.9,1,1,8008,4004
856,1.0113e+08,0,0.0001186,-0.002513,0.0013435,-0.025311,0.31497,-9.7773,0,0,44.901,1,1,8008,4004
974,1.0117e+08,0,0.0028681,0.00085817,-0.0010886,-0.033539,0.32685,-9.7779,0,0,44.902,1,1,8008,4004
1089,1.0122e+08,0,-0.0026002,0.0012156,-0.00029105,-0.013945,0.30292,-9.7741,0,0,44.906,1,1,8008,4004
1200,1.0133e+08,0,-0.00088504,-0.00032132,-0.00086698,-0.023871,0.31355,-9.7825,0,0,44.917,1,1,8008,4004
1282,1.0137e+08,0,-0.001935,-0.0016327,-0.00038826,-0.020272,0.31526,-9.7547,0,0,44.919,1,1,8008,4004
1317,1.0137e+08,0,-0.001294,-0.0015252,0.001632,-0.020938,0.31088,-9.7508,0,0,44.919,1,1,8008,4004
1381,1.0138e+08,0,-0.00031782,-0.0024732,-7.6498e-05,-0.026771,0.29804,-9.7527,0,0,44.92,1,1,8008,4004
1473,1.014e+08,0,-0.00029705,-0.0011548,-0.0020386,-0.035912,0.30879,-9.7621,0,0,44.921,1,1,8008,4004
1508,1.014e+08,0,-0.00059767,3.6078e-05,-0.0015357,-0.040086,0.31095,-9.7559,0,0,44.921,1,1,8008,4004
1558,1.0141e+08,0,-0.00040478,0.00043383,-0.00024154,-0.043835,0.31245,-9.7505,0,0,44.921,1,1,8008,4004
1560,1.0142e+08,0,-0.00087088,0.0016663,-0.0005103,-0.042036,0.3145,-9.7441,0,0,44.921,1,1,8008,4004
1570,1.0142e+08,0,-0.001034,0.001432,-0.00041304,-0.041842,0.3161,-9.7474,0,0,44.921,1,1,8008,4004
1605,1.0143e+08,0,-0.0007416,0.0021628,-0.00091746,-0.039007,0.31543,-9.7532,0,0,44.921,1,1,8008,4004
1608,1.0143e+08,0,-0.0001303,0.0025296,-0.00088402,-0.036456,0.31304,-9.7559,0,0,44.921,1,1,8008,4004
1611,1.0143e+08,0,-3.3804e-05,0.003182,-0.00070631,-0.032939,0.30961,-9.7574,0,0,44.922,1,1,8008,4004
1615,1.0143e+08,0,-0.00025347,0.0025637,-0.00080979,-0.030543,0.3071,-9.7592,0,0,44.922,1,1,8008,4004
1650,1.0143e+08,0,-0.0010813,0.0031464,-0.00070129,-0.027373,0.30599,-9.7629,0,0,44.922,1,1,8008,4004
1653,1.0144e+08,0,-0.0010915,0.0043508,-0.0002751,-0.024484,0.30568,-9.7654,0,0,44.922,1,1,8008,4004
1656,1.0144e+08,0,-0.00056081,0.0041175,0.00059859,-0.022049,0.30399,-9.7692,0,0,44.922,1,1,8008,4004
1659,1.0144e+08,0,-0.00013956,0.0029983,0.00096516,-0.020024,0.30249,-9.7713,0,0,44.922,1,1,8008,4004
1694,1.0144e+08,0,0.00086831,0.0015989,0.0010761,-0.015817,0.29986,-9.7708,0,0,44.922,1,1,8008,4004
1697,1.0145e+08,0,0.00071453,0.0016785,0.00076522,-0.012186,0.2984,-9.7692,0,0,44.921,1,1,8008,4004
1700,1.0145e+08,0,-0.00041094,0.0015472,-0.00068114,-0.0069617,0.2979,-9.7696,0,0,44.921,1,1,8008,4004
1706,1.0145e+08,0,-0.0012297,0.0015667,-0.001307,-0.0054693,0.29719,-9.7723,0,0,44.921,1,1,8008,4004
1741,1.0146e+08,0,-0.0011979,0.00032132,-0.0010691,-0.0032364,0.29583,-9.777,0,0,44.921,1,1,8008,4004
1744,1.0146e+08,0,-0.0012422,0.00032088,-0.00075068,-0.0024572,0.29448,-9.7769,0,0,44.922,1,1,8008,4004
1747,1.0146e+08,0,-0.00033586,-0.00082339,0.0010819,-0.0039763,0.29143,-9.7699,0,0,44.922,1,1,8008,4004
1782,1.0147e+08,0,-0.0010821,-4.763e-05,0.00054515,-0.0087975,0.29471,-9.7618,0,0,44.922,1,1,8008,4004
1785,1.0147e+08,0,-0.0019246,0.00012353,0.00046089,-0.011927,0.29705,-9.7592,0,0,44.922,1,1,8008,4004
1788,1.0147e+08,0,-0.0019055,-0.00054076,0.00073038,-0.014185,0.29854,-9.7597,0,0,44.922,1,1,8008,4004
1822,1.0148e+08,0,-0.0011996,-0.0014835,0.001129,-0.017445,0.3014,-9.7613,0,0,44.921,1,1,8008,4004
1825,1.0148e+08,0,-0.00037641,-0.0017589,0.0006888,-0.018847,0.30281,-9.7615,0,0,44.921,1,1,8008,4004
1828,1.0148e+08,0,0.00047271,-0.0010198,5.4323e-05,-0.020174,0.30108,-9.7619,0,0,44.921,1,1,8008,4004
1831,1.0148e+08,0,0.00061227,-0.00065512,-2.9587e-05,-0.02006,0.29931,-9.7627,0,0,44.921,1,1,8008,4004
1865,1.0149e+08,0,0.00050095,-0.0010017,-0.00056509,-0.018658,0.29867,-9.7635,0,0,44.921,1,1,8008,4004
1868,1.0149e+08,0,-0.00056957,-0.0015101,-0.00080486,-0.015642,0.2991,-9.7596,0,0,44.922,1,1,8008,4004
1874,1.0149e+08,0,-0.0013913,-0.0018582,-0.00024848,-0.012708,0.29927,-9.755,0,0,44.922,1,1,8008,4004
1878,1.015e+08,0,-0.0015386,-0.0019183,0.00014219,-0.0066846,0.29888,-9.7531,0,0,44.922,1,1,8008,4004
1911,1.015e+08,0,-0.00037176,-0.0022663,0.00023252,-0.0014454,0.29775,-9.7545,0,0,44.922,1,1,8008,4004
1914,1.015e+08,0,-0.00019071,-0.0035438,0.0001256,0.00016324,0.29797,-9.7545,0,0,44.922,1,1,8008,4004
1917,1.015e+08,0,-0.0011705,-0.0039198,-0.00028208,0.0013474,0.2994,-9.7524,0,0,44.922,1,1,8008,4004
1920,1.0151e+08,0,-0.0016857,-0.003145,-0.00038452,0.00088222,0.29998,-9.7509,0,0,44.922,1,1,8008,4004
1955,1.0151e+08,0,-0.0018609,-0.0022169,-0.00060193,-0.0021133,0.2986,-9.7488,0,0,44.922,1,1,8008,4004
1959,1.0151e+08,0,-0.0015775,-0.0018388,-0.0013882,-0.0037486,0.29728,-9.7483,0,0,44.922,1,1,8008,4004
1962,1.0151e+08,0,-0.00031122,-0.0018383,-0.0020683,-0.0036197,0.29445,-9.7497,0,0,44.922,1,1,8008,4004
1965,1.0152e+08,0,2.2886e-05,-0.0021998,-0.0017649,-0.0021911,0.29229,-9.751,0,0,44.922,1,1,8008,4004
1998,1.0152e+08,0,-0.00019066,-0.0033406,-0.00033202,-0.00078359,0.29028,-9.7535,0,0,44.922,1,1,8008,4004
2001,1.0152e+08,0,-0.00026868,-0.0033554,0.00046094,-0.0022087,0.29077,-9.7546,0,0,44.922,1,1,8008,4004
2004,1.0152e+08,0,0.000159,-0.0024406,0.0015514,-0.0064373,0.29326,-9.7563,0,0,44.922,1,1,8008,4004
2009,1.0153e+08,0,0.00086487,-0.0017738,0.0014005,-0.0088272,0.29495,-9.7573,0,0,44.922,1,1,8008,4004
2042,1.0153e+08,0,0.0014538,-0.0011742,0.00071818,-0.013332,0.29471,-9.7593,0,0,44.921,1,1,8008,4004
2046,1.0153e+08,0,0.0010549,-0.0012623,-0.00010731,-0.017155,0.29265,-9.7608,0,0,44.921,1,1,8008,4004
2049,1.0153e+08,0,0.00073772,-0.0016183,-0.00087408,-0.021373,0.29162,-9.7623,0,0,44.921,1,1,8008,4004
2052,1.0154e+08,0,0.00057926,-0.0016102,-0.00097263,-0.024362,0.29366,-9.7656,0,0,44.921,1,1,8008,4004
2085,1.0154e+08,0,0.00066232,-0.00097258,-0.00058718,-0.026021,0.2956,-9.7701,0,0,44.921,1,1,8008,4004
2089,1.0154e+08,0,0.00085776,0.0014105,-0.00053195,-0.028965,0.2971,-9.7779,0,0,44.921,1,1,8008,4004
2092,1.0154e+08,0,0.00055391,0.0023626,-0.00037084,-0.030136,0.29756,-9.7833,0,0,44.921,1,1,8008,4004
2095,1.0155e+08,0,0.00066004,0.0027172,-0.00083106,-0.029839,0.297,-9.7898,0,0,44.921,1,1,8008,4004
2128,1.0155e+08,0,0.0018262,0.0023202,-0.0005508,-0.027673,0.29678,-9.7923,0,0,44.921,1,1,8008,4004
2131,1.0155e+08,0,0.0023453,0.0030107,-0.00090628,-0.02587,0.29672,-9.7937,0,0,44.921,1,1,8008,4004
2134,1.0155e+08,0,0.0019288,0.0028248,-0.00098,-0.025164,0.29842,-9.7918,0,0,44.921,1,1,8008,4004
2137,1.0156e+08,0,0.0019707,0.0024379,-0.00013321,-0.025614,0.30099,-9.7877,0,0,44.921,1,1,8008,4004
2170,1.0156e+08,0,0.0007367,0.0026782,0.0013087,-0.026724,0.3023,-9.7816,0,0,44.921,1,1,8008,4004
2174,1.0156e+08,0,0.00054252,0.0023775,0.0010855,-0.026948,0.30257,-9.7788,0,0,44.921,1,1,8008,4004
2177,1.0156e+08,0,0.0013334,0.0011317,1.2135e-05,-0.025044,0.30322,-9.7761,0,0,44.921,1,1,8008,4004
2180,1.0157e+08,0,0.0017036,0.0003196,-0.0001889,-0.022219,0.30405,-9.7741,0,0,44.921,1,1,8008,4004
2213,1.0157e+08,0,0.0022297,-0.0006393,0.00017109,-0.018512,0.30528,-9.7699,0,0,44.921,1,1,8008,4004
2216,1.0157e+08,0,0.0019639,-0.0010091,8.7361e-05,-0.017268,0.30534,-9.7665,0,0,44.92,1,1,8008,4004
2219,1.0157e+08,0,0.0016128,-0.00038919,6.5674e-05,-0.016153,0.30588,-9.7632,0,0,44.92,1,1,8008,4004
2222,1.0158e+08,0,0.0016479,0.00020702,7.0121e-05,-0.015255,0.3066,-9.7625,0,0,44.92,1,1,8008,4004
2255,1.0158e+08,0,0.0023475,0.00095208,-8.4563e-07,-0.014058,0.30563,-9.762,0,0,44.92,1,1,8008,4004
2258,1.0158e+08,0,0.0019677,0.0011633,-0.000498,-0.0132,0.3027,-9.7639,0,0,44.92,1,1,8008,4004
2261,1.0158e+08,0,0.0015974,0.0011451,-0.00098358,-0.01305,0.30132,-9.7656,0,0,44.92,1,1,8008,4004
2265,1.0159e+08,0,0.0011951,0.0010396,-0.0014501,-0.013495,0.30069,-9.7673,0,0,44.92,1,1,8008,4004
2298,1.0159e+08,0,0.00019157,0.00049485,-0.001668,-0.013766,0.30118,-9.7701,0,0,44.92,1,1,8008,4004
2301,1.0159e+08,0,0.00061436,-0.00054029,-0.001164,-0.01341,0.30118,-9.7729,0,0,44.92,1,1,8008,4004
2307,1.0159e+08,0,0.00068869,-0.0015095,-0.00033272,-0.013368,0.30062,-9.7824,0,0,44.921,1,1,8008,4004
2311,1.016e+08,0,0.00028109,-0.0020744,0.0004627,-0.012823,0.29903,-9.7872,0,0,44.921,1,1,8008,4004
2344,1.016e+08,0,0.00092973,-0.0022367,0.00081197,-0.012934,0.29607,-9.7905,0,0,44.921,1,1,8008,4004
2348,1.016e+08,0,0.0020389,-0.0025096,2.922e-05,-0.013241,0.29454,-9.7922,0,0,44.921,1,1,8008,4004
2351,1.016e+08,0,0.0019727,-0.002423,-0.00057497,-0.012792,0.2939,-9.7932,0,0,44.921,1,1,8008,4004
2354,1.0161e+08,0,0.0010063,-0.0019164,0.00011763,-0.013214,0.29484,-9.7934,0,0,44.921,1,1,8008,4004
2387,1.0161e+08,0,-0.0009916,-0.00098852,0.0015625,-0.014488,0.29845,-9.7893,0,0,44.92,1,1,8008,4004
2391,1.0161e+08,0,-0.0024195,-0.0021211,0.0017841,-0.017116,0.30149,-9.7798,0,0,44.92,1,1,8008,4004
2394,1.0161e+08,0,-0.0017469,-0.0030247,0.0016783,-0.01884,0.30138,-9.7746,0,0,44.92,1,1,8008,4004
2397,1.0162e+08,0,-0.00011189,-0.0033159,0.0015534,-0.018667,0.3012,-9.7715,0,0,44.921,1,1,8008,4004
2430,1.0162e+08,0,-0.00014226,-0.0031208,0.00057179,-0.018413,0.30009,-9.7714,0,0,44.921,1,1,8008,4004
2433,1.0162e+08,0,-0.00058356,-0.0030824,-9.4774e-05,-0.019439,0.29923,-9.7723,0,0,44.921,1,1,8008,4004
2436,1.0163e+08,0,-0.0010286,-0.0022017,-0.00090981,-0.020872,0.29846,-9.7728,0,0,44.921,1,1,8008,4004
2439,1.0163e+08,0,-0.00096391,-0.0021771,-0.00089432,-0.020729,0.29729,-9.7719,0,0,44.921,1,1,8008,4004
2472,1.0163e+08,0,-0.00029848,-0.0036034,-1.724e-05,-0.019294,0.29558,-9.7686,0,0,44.921,1,1,8008,4004
2477,1.0163e+08,0,-3.3167e-05,-0.0040587,0.00033525,-0.017463,0.29452,-9.7657,0,0,44.921,1,1,8008,4004
2480,1.0164e+08,0,-0.0014796,-0.0034291,0.0011422,-0.016303,0.29365,-9.7632,0,0,44.921,1,1,8008,4004
2485,1.0164e+08,0,-0.0021914,-0.0024754,0.0011898,-0.017351,0.29315,-9.7611,0,0,44.921,1,1,8008,4004
2518,1.0164e+08,0,-0.0027422,-0.00079714,0.00042933,-0.020113,0.29246,-9.7579,0,0,44.92,1,1,8008,4004
2521,1.0165e+08,0,-0.0017788,0.00085785,0.00053261,-0.026981,0.29458,-9.747,0,0,44.92,1,1,8008,4004
2556,1.0165e+08,0,-0.0016543,0.00091668,0.00086917,-0.025702,0.29775,-9.7474,0,0,44.92,1,1,8008,4004
2559,1.0165e+08,0,-0.0024948,0.00037499,0.00065208,-0.024169,0.30115,-9.7485,0,0,44.92,1,1,8008,4004
2562,1.0166e+08,0,-0.0024142,0.00067935,0.00020747,-0.023689,0.30524,-9.7502,0,0,44.92,1,1,8008,4004
2565,1.0166e+08,0,-0.001666,0.0013917,-0.00050021,-0.024397,0.30759,-9.7523,0,0,44.92,1,1,8008,4004
2600,1.0166e+08,0,-0.00081087,0.002417,-0.00082016,-0.025553,0.31029,-9.7559,0,0,44.921,1,1,8008,4004
2604,1.0167e+08,0,-1.0276e-05,0.0027105,-0.00028178,-0.025891,0.31305,-9.7576,0,0,44.921,1,1,8008,4004
2607,1.0167e+08,0,0.00036813,0.0028969,-7.2264e-05,-0.024453,0.31506,-9.7594,0,0,44.921,1,1,8008,4004
2610,1.0167e+08,0,-0.00051052,0.0033369,0.00054402,-0.021305,0.31519,-9.7629,0,0,44.921,1,1,8008,4004
2645,1.0167e+08,0,-0.00086002,0.0035613,0.0018111,-0.018667,0.31375,-9.7639,0,0,44.921,1,1,8008,4004
2649,1.0168e+08,0,-0.00055846,0.0037498,0.0025772,-0.018233,0.31223,-9.7661,0,0,44.921,1,1,8008,4004
2652,1.0168e+08,0,-0.00072422,0.0040528,0.001079,-0.020061,0.30926,-9.7703,0,0,44.921,1,1,8008,4004
2655,1.0168e+08,0,-0.00073209,0.0041179,-0.00046548,-0.022189,0.30796,-9.7722,0,0,44.921,1,1,8008,4004
2690,1.0168e+08,0,-0.00075009,0.0036675,-0.0011086,-0.023051,0.30631,-9.7775,0,0,44.921,1,1,8008,4004
2693,1.0169e+08,0,-0.0012424,0.0033959,-0.001002,-0.022159,0.30546,-9.7796,0,0,44.922,1,1,8008,4004
2696,1.0169e+08,0,-0.0023565,0.0032383,-0.00087891,-0.02111,0.30623,-9.7759,0,0,44.922,1,1,8008,4004
2699,1.0169e+08,0,-0.0023844,0.0035913,-0.00092549,-0.020718,0.3069,-9.7732,0,0,44.922,1,1,8008,4004
2734,1.0169e+08,0,-0.0009012,0.004161,-0.00097856,-0.020208,0.30736,-9.7716,0,0,44.922,1,1,8008,4004
2738,1.017e+08,0,0.00033432,0.0033966,-0.00055101,-0.018011,0.30777,-9.7706,0,0,44.922,1,1,8008,4004
2744,1.017e+08,0,0.00036722,0.003797,-0.00012405,-0.016911,0.30765,-9.7694,0,0,44.922,1,1,8008,4004
2748,1.017e+08,0,0.0013698,0.0042616,9.9639e-05,-0.015991,0.30678,-9.7688,0,0,44.923,1,1,8008,4004
2783,1.017e+08,0,0.0009032,0.0032925,0.00029478,-0.015065,0.30618,-9.7658,0,0,44.923,1,1,8008,4004
2787,1.0171e+08,0,0.0013129,0.0019103,0.00053209,-0.01466,0.307,-9.7644,0,0,44.923,1,1,8008,4004
2790,1.0171e+08,0,0.0018333,0.0023577,0.00077439,-0.014552,0.31075,-9.7627,0,0,44.923,1,1,8008,4004
2793,1.0171e+08,0,0.0024623,0.0025209,0.0011902,-0.015234,0.31221,-9.7604,0,0,44.923,1,1,8008,4004
2828,1.0171e+08,0,0.002083,0.0011277,0.00045816,-0.015878,0.3123,-9.7585,0,0,44.923,1,1,8008,4004
2831,1.0172e+08,0,0.00095017,-0.00034136,-0.00067406,-0.016125,0.31195,-9.7564,0,0,44.924,1,1,8008,4004
2834,1.0172e+08,0,0.00038584,-0.00015518,-0.0012316,-0.016586,0.31099,-9.7566,0,0,44.924,1,1,8008,4004
2837,1.0172e+08,0,0.00046381,-0.00037884,-0.001647,-0.016392,0.30904,-9.7603,0,0,44.924,1,1,8008,4004
2872,1.0172e+08,0,0.00047684,-0.00064602,-0.0015316,-0.016018,0.30761,-9.7628,0,0,44.924,1,1,8008,4004
2878,1.0173e+08,0,0.00073798,-0.0013265,-0.0016961,-0.016018,0.30606,-9.7659,0,0,44.924,1,1,8008,4004
2881,1.0173e+08,0,0.00072002,-0.0019398,-0.0013968,-0.016124,0.30411,-9.7672,0,0,44.924,1,1,8008,4004
2884,1.0173e+08,0,0.0004642,-0.0014729,-0.00013606,-0.015812,0.30355,-9.77,0,0,44.925,1,1,8008,4004
2919,1.0173e+08,0,0.000887,-0.0013506,0.00038074,-0.016015,0.30353,-9.7734,0,0,44.925,1,1,8008,4004
2922,1.0174e+08,0,0.001839,-0.0010557,0.00054197,-0.015032,0.30396,-9.7752,0,0,44.925,1,1,8008,4004
2925,1.0174e+08,0,0.0027243,-0.00072786,4.0274e-05,-0.010926,0.30231,-9.776,0,0,44.925,1,1,8008,4004
2928,1.0174e+08,0,0.0024001,-0.0013343,-0.00081348,-0.0086603,0.30206,-9.7768,0,0,44.925,1,1,8008,4004
2963,1.0175e+08,0,0.0012925,-0.001854,-0.0011017,-0.0072778,0.30241,-9.7773,0,0,44.925,1,1,8008,4004
2966,1.0175e+08,0,0.00018218,-0.0014906,-0.00063559,-0.0064837,0.30251,-9.7772,0,0,44.925,1,1,8008,4004
2970,1.0175e+08,0,0.00088223,-0.0012799,-0.00060226,-0.0078011,0.30327,-9.7741,0,0,44.925,1,1,8008,4004
2973,1.0175e+08,0,0.0010385,-0.0016938,-0.00032781,-0.0087687,0.30325,-9.7697,0,0,44.926,1,1,8008,4004
3008,1.0176e+08,0,0.0015614,-0.0011631,-0.00013703,-0.011136,0.30199,-9.7632,0,0,44.926,1,1,8008,4004
3011,1.0176e+08,0,0.0017002,-0.0011614,-0.00074837,-0.013422,0.30114,-9.7607,0,0,44.926,1,1,8008,4004
3015,1.0176e+08,0,0.0013823,-0.002394,-0.00059071,-0.016045,0.30117,-9.7583,0,0,44.926,1,1,8008,4004
3018,1.0176e+08,0,0.0014463,-0.002887,-0.00088943,-0.015512,0.30064,-9.7581,0,0,44.926,1,1,8008,4004
3053,1.0177e+08,0,0.0024211,-0.0024313,-0.00098247,-0.014228,0.29889,-9.7603,0,0,44.926,1,1,8008,4004
3056,1.0177e+08,0,0.0020312,-0.0010526,-0.0004794,-0.013506,0.29707,-9.7643,0,0,44.926,1,1,8008,4004
3059,1.0177e+08,0,0.00097556,-0.00049696,-0.00028711,-0.012874,0.29537,-9.7672,0,0,44.926,1,1,8008,4004
3063,1.0177e+08,0,-0.00070454,2.2724e-05,-0.00067879,-0.013081,0.29416,-9.7735,0,0,44.926,1,1,8008,4004
3098,1.0178e+08,0,-0.0023617,0.00057824,-0.00038097,-0.015903,0.2945,-9.7803,0,0,44.926,1,1,8008,4004
3101,1.0178e+08,0,-0.0024643,0.00053715,0.00031581,-0.018566,0.29418,-9.7835,0,0,44.926,1,1,8008,4004
3105,1.0178e+08,0,-0.0017541,0.00025013,0.00034331,-0.019304,0.29347,-9.7835,0,0,44.926,1,1,8008,4004
3108,1.0178e+08,0,-0.00093723,-8.3718e-05,0.00047565,-0.019106,0.29336,-9.782,0,0,44.926,1,1,8008,4004
3145,1.0179e+08,0,-0.00067419,2.6012e-05,0.00062082,-0.017938,0.29385,-9.7794,0,0,44.926,1,1,8008,4004
3148,1.0179e+08,0,-0.000802,0.00088498,0.00070202,-0.017102,0.2956,-9.7774,0,0,44.926,1,1,8008,4004
3151,1.0179e+08,0,-0.00024972,0.0013838,0.001175,-0.015262,0.2985,-9.7725,0,0,44.927,1,1,8008,4004
3154,1.0179e+08,0,-0.00063916,0.0012324,0.0015555,-0.013768,0.30041,-9.7698,0,0,44.927,1,1,8008,4004
3189,1.018e+08,0,-0.00093322,0.0009755,0.00084049,-0.012761,0.30352,-9.7665,0,0,44.927,1,1,8008,4004
3192,1.018e+08,0,-0.0008065,4.7853e-05,0.00052212,-0.013319,0.30514,-9.7637,0,0,44.927,1,1,8008,4004
3199,1.018e+08,0,-2.0378e-05,1.3729e-05,0.00078077,-0.012436,0.30797,-9.7596,0,0,44.927,1,1,8008,4004
3203,1.018e+08,0,-0.00031788,0.00094135,0.00069681,-0.010212,0.30967,-9.7586,0,0,44.927,1,1,8008,4004
3239,1.0181e+08,0,-0.0018918,0.0014609,0.00074295,-0.0076224,0.30872,-9.7569,0,0,44.927,1,1,8008,4004
3242,1.0181e+08,0,-0.0018178,0.0010779,0.00029186,-0.0056631,0.30657,-9.7541,0,0,44.927,1,1,8008,4004
3246,1.0181e+08,0,-0.0019384,0.0018042,0.0004786,-0.0056278,0.30468,-9.754,0,0,44.927,1,1,8008,4004
3249,1.0181e+08,0,-0.0029132,0.001781,0.0011896,-0.0079015,0.30268,-9.7539,0,0,44.927,1,1,8008,4004
3284,1.0182e+08,0,-0.0026638,0.0016061,0.0013038,-0.0097744,0.3032,-9.7532,0,0,44.928,1,1,8008,4004
3287,1.0182e+08,0,-0.0025449,0.001865,0.00040224,-0.01096,0.3055,-9.7521,0,0,44.928,1,1,8008,4004
3290,1.0182e+08,0,-0.002763,0.0018438,-0.0011913,-0.011055,0.30807,-9.7514,0,0,44.928,1,1,8008,4004
3293,1.0182e+08,0,-0.0022804,0.0019096,-0.0019149,-0.012362,0.31304,-9.7526,0,0,44.928,1,1,8008,4004
3328,1.0183e+08,0,-0.0027846,0.0019751,-0.00080604,-0.012569,0.31562,-9.7522,0,0,44.928,1,1,8008,4004
3331,1.0183e+08,0,-0.0033187,0.00059968,0.0011102,-0.012907,0.31579,-9.7506,0,0,44.928,1,1,8008,4004
3336,1.0183e+08,0,-0.0032868,0.00027841,0.0016523,-0.012769,0.31448,-9.7494,0,0,44.929,1,1,8008,4004
3339,1.0184e+08,0,-0.0018389,0.00066401,0.00078381,-0.012814,0.31115,-9.7455,0,0,44.929,1,1,8008,4004
3374,1.0184e+08,0,-0.00067973,-0.00015444,-0.00058556,-0.015145,0.30698,-9.7435,0,0,44.929,1,1,8008,4004
3377,1.0184e+08,0,-0.00071709,-0.00098375,-0.0013303,-0.015886,0.30587,-9.7453,0,0,44.929,1,1,8008,4004
3380,1.0184e+08,0,-0.0014014,-0.0016922,-0.0015088,-0.015907,0.30828,-9.7478,0,0,44.93,1,1,8008,4004
3385,1.0185e+08,0,-0.0014514,-0.0022841,-0.0011292,-0.01574,0.31005,-9.7482,0,0,44.93,1,1,8008,4004
3420,1.0186e+08,0,-0.00063434,-0.00071056,-0.0008417,-0.019786,0.30882,-9.742,0,0,44.93,1,1,8008,4004
3425,1.0186e+08,0,-0.0010167,-0.00058163,-0.0010963,-0.020639,0.306,-9.7422,0,0,44.931,1,1,8008,4004
3460,1.0186e+08,0,-0.00027045,-0.0010201,-0.0012934,-0.023915,0.30161,-9.7446,0,0,44.931,1,1,8008,4004
3464,1.0186e+08,0,5.5827e-05,-0.0011076,-0.00058305,-0.026699,0.3001,-9.7478,0,0,44.931,1,1,8008,4004
3467,1.0186e+08,0,7.1494e-05,-0.0026882,-0.00057251,-0.029376,0.30217,-9.7519,0,0,44.931,1,1,8008,4004
3471,1.0187e+08,0,-0.00020292,-0.0030959,-0.00082928,-0.030027,0.30435,-9.756,0,0,44.931,1,1,8008,4004
3506,1.0187e+08,0,-0.00014245,-0.0030784,-0.00088175,-0.028249,0.30734,-9.7633,0,0,44.931,1,1,8008,4004
3509,1.0187e+08,0,0.00036497,-0.0030184,-0.00083406,-0.026134,0.30958,-9.7678,0,0,44.932,1,1,8008,4004
3512,1.0188e+08,0,0.00039838,-0.0030635,-0.0014294,-0.022702,0.31087,-9.7725,0,0,44.932,1,1,8008,4004
3515,1.0188e+08,0,-0.00027523,-0.0029895,-0.0021119,-0.021497,0.3104,-9.7742,0,0,44.932,1,1,8008,4004
3550,1.0188e+08,0,-0.00088919,-0.0029566,-0.002012,-0.019573,0.30913,-9.7752,0,0,44.932,1,1,8008,4004
3553,1.0188e+08,0,-0.00052721,-0.0027702,-0.00092994,-0.018438,0.3089,-9.7766,0,0,44.932,1,1,8008,4004
3556,1.0189e+08,0,0.00076072,-0.0033046,-0.00018064,-0.019954,0.30884,-9.7794,0,0,44.932,1,1,8008,4004
3560,1.0189e+08,0,0.0011435,-0.003469,-0.00022636,-0.022477,0.30905,-9.7808,0,0,44.932,1,1,8008,4004
3595,1.0189e+08,0,0.0018395,-0.0032502,-0.0002676,-0.024801,0.30963,-9.7819,0,0,44.933,1,1,8008,4004
3598,1.0189e+08,0,0.0025163,-0.0019905,-0.0005535,-0.024991,0.30842,-9.781,0,0,44.933,1,1,8008,4004
3601,1.019e+08,0,0.0034531,-0.0017999,0.00037846,-0.024858,0.30618,-9.7785,0,0,44.933,1,1,8008,4004
3605,1.019e+08,0,0.002853,-0.0014358,0.00071855,-0.023724,0.30313,-9.7754,0,0,44.933,1,1,8008,4004
3640,1.019e+08,0,0.0022056,-0.00065877,0.0017728,-0.022572,0.30079,-9.7692,0,0,44.933,1,1,8008,4004
3643,1.019e+08,0,0.0023724,-0.00070726,0.0019434,-0.022084,0.29901,-9.7645,0,0,44.933,1,1,8008,4004
3649,1.0191e+08,0,0.0030198,-0.0011971,0.001116,-0.019948,0.29451,-9.7611,0,0,44.934,1,1,8008,4004
3654,1.0191e+08,0,0.0032021,-0.00098216,-9.8951e-05,-0.018668,0.29249,-9.7598,0,0,44.934,1,1,8008,4004
3689,1.0191e+08,0,0.0023735,0.00042376,-0.00099056,-0.019575,0.29231,-9.7601,0,0,44.934,1,1,8008,4004
3692,1.0191e+08,0,0.0011617,0.00039816,-0.00047582,-0.020778,0.29342,-9.7613,0,0,44.934,1,1,8008,4004
3695,1.0192e+08,0,0.00024225,4.5284e-05,0.00086529,-0.021928,0.29532,-9.7629,0,0,44.934,1,1,8008,4004
3699,1.0192e+08,0,0.00012981,0.00020948,0.001572,-0.022824,0.29643,-9.7641,0,0,44.934,1,1,8008,4004
3734,1.0192e+08,0,0.00065257,0.0007457,0.002038,-0.024867,0.29747,-9.7653,0,0,44.935,1,1,8008,4004
3737,1.0192e+08,0,0.00042701,0.0012116,0.00079755,-0.026824,0.29826,-9.7662,0,0,44.935,1,1,8008,4004
3740,1.0193e+08,0,0.00063396,0.0017691,-0.00038923,-0.025722,0.29941,-9.7667,0,0,44.935,1,1,8008,4004
3743,1.0193e+08,0,0.0016198,0.0019703,-0.0016093,-0.021966,0.30247,-9.7678,0,0,44.935,1,1,8008,4004
3778,1.0193e+08,0,0.0015431,0.00098138,-0.001264,-0.021075,0.30639,-9.7681,0,0,44.936,1,1,8008,4004
3781,1.0193e+08,0,0.001923,0.0014459,-0.00076297,-0.020702,0.30761,-9.7696,0,0,44.936,1,1,8008,4004
3788,1.0194e+08,0,0.0019329,0.0026318,-0.00045121,-0.02074,0.30483,-9.7705,0,0,44.936,1,1,8008,4004
3792,1.0194e+08,0,0.0010732,0.00318,0.00024167,-0.020739,0.30293,-9.769,0,0,44.936,1,1,8008,4004
3827,1.0194e+08,0,0.0014283,0.0031476,0.0012828,-0.019258,0.30076,-9.7699,0,0,44.936,1,1,8008,4004
3830,1.0195e+08,0,0.0010798,0.0025403,0.0010852,-0.015629,0.29996,-9.7727,0,0,44.937,1,1,8008,4004
3833,1.0195e+08,0,0.00056313,0.0021846,0.00035354,-0.013919,0.30012,-9.7726,0,0,44.937,1,1,8008,4004
3836,1.0195e+08,0,-0.00071527,0.0019256,1.0656e-05,-0.011826,0.30187,-9.7692,0,0,44.937,1,1,8008,4004
3839,1.0195e+08,0,-0.0010798,0.0022069,-0.00016215,-0.0092967,0.30169,-9.7648,0,0,44.937,1,1,8008,4004
3874,1.0196e+08,0,-0.0005156,0.0028478,-0.00017053,-0.0073376,0.29969,-9.7646,0,0,44.938,1,1,8008,4004
3877,1.0196e+08,0,8.3615e-05,0.0032076,-0.00050757,-0.0076461,0.29808,-9.764,0,0,44.938,1,1,8008,4004
3881,1.0196e+08,0,-0.00020054,0.0030782,-0.00038276,-0.0074208,0.29751,-9.7618,0,0,44.938,1,1,8008,4004
3884,1.0196e+08,0,-0.00095112,0.0020847,-0.00041424,-0.0052618,0.29639,-9.7597,0,0,44.938,1,1,8008,4004
3919,1.0197e+08,0,-0.0019956,0.0011539,-1.6349e-05,-0.0022251,0.2954,-9.7598,0,0,44.939,1,1,8008,4004
3922,1.0197e+08,0,-0.0017436,0.00056872,0.00051838,0.00037694,0.29511,-9.7612,0,0,44.939,1,1,8008,4004
3925,1.0197e+08,0,-0.00069073,-0.00012074,0.0011514,0.0028126,0.29673,-9.7646,0,0,44.939,1,1,8008,4004
3928,1.0197e+08,0,-0.00062519,-0.00056876,0.00071165,0.0034098,0.29808,-9.7666,0,0,44.939,1,1,8008,4004
3963,1.0198e+08,0,-0.0011988,-0.00085096,-0.00015936,0.0030306,0.2999,-9.7702,0,0,44.939,1,1,8008,4004
3966,1.0198e+08,0,-0.0010759,-0.0009427,-0.00081932,0.00011718,0.29998,-9.7734,0,0,44.94,1,1,8008,4004
3971,1.0198e+08,0,-0.0012587,-0.0016518,-2.7207e-05,-0.0027334,0.29968,-9.7748,0,0,44.94,1,1,8008,4004
3974,1.0198e+08,0,-0.0023332,-0.0015469,0.00051252,-0.005632,0.29964,-9.7758,0,0,44.94,1,1,8008,4004
4009,1.0199e+08,0,-0.0023939,-0.00065561,-0.00035883,-0.0099572,0.29943,-9.7764,0,0,44.94,1,1,8008,4004
4012,1.0199e+08,0,-0.0022374,-0.00062094,-0.00075951,-0.012829,0.30081,-9.7759,0,0,44.941,1,1,8008,4004
4018,1.0199e+08,0,-0.0013433,-0.0010165,-0.00045696,-0.015497,0.30358,-9.7753,0,0,44.941,1,1,8008,4004
4021,1.0199e+08,0,-0.00099053,-0.0019041,-0.00061945,-0.016129,0.30501,-9.7754,0,0,44.941,1,1,8008,4004
4056,1.02e+08,0,-0.0008689,-0.0020216,-0.00048254,-0.01638,0.30647,-9.7753,0,0,44.941,1,1,8008,4004
4059,1.02e+08,0,-0.0019174,-0.0024316,0.00023581,-0.01604,0.30643,-9.7729,0,0,44.941,1,1,8008,4004
4062,1.02e+08,0,-0.0032255,-0.002416,0.00030352,-0.016595,0.3061,-9.7697,0,0,44.941,1,1,8008,4004
4065,1.02e+08,0,-0.0037214,-0.0022809,0.00035272,-0.018177,0.30594,-9.7672,0,0,44.941,1,1,8008,4004
4102,1.0201e+08,0,-0.003403,-0.0011866,0.0004033,-0.021192,0.30633,-9.7658,0,0,44.942,1,1,8008,4004
4108,1.0201e+08,0,-0.0029128,-0.00019951,0.00068104,-0.020333,0.30674,-9.7624,0,0,44.942,1,1,8008,4004
4113,1.0201e+08,0,-0.0023102,0.00010491,0.0011945,-0.017365,0.30709,-9.7592,0,0,44.942,1,1,8008,4004
4116,1.0201e+08,0,-0.0019304,-0.00033429,0.00078575,-0.014147,0.30855,-9.7567,0,0,44.942,1,1,8008,4004
4151,1.0202e+08,0,-0.0018965,-0.00083204,-0.00056025,-0.0090125,0.31272,-9.7541,0,0,44.942,1,1,8008,4004
4154,1.0202e+08,0,-0.0020597,-0.00078172,-0.0013478,-0.0066526,0.31478,-9.7536,0,0,44.942,1,1,8008,4004
4157,1.0202e+08,0,-0.0013899,-0.00011261,-0.0012307,-0.0060465,0.31533,-9.7546,0,0,44.943,1,1,8008,4004
4160,1.0202e+08,0,-0.00065607,0.00028604,-0.00070961,-0.005685,0.31527,-9.7569,0,0,44.943,1,1,8008,4004
4195,1.0203e+08,0,0.00027987,0.00060944,-0.00070124,-0.0039913,0.31475,-9.7584,0,0,44.943,1,1,8008,4004
4198,1.0203e+08,0,0.00068054,0.00042968,-0.0010267,-0.002106,0.31421,-9.7586,0,0,44.943,1,1,8008,4004
4202,1.0203e+08,0,0.00041976,8.612e-05,-0.0012419,-0.0027834,0.31432,-9.7575,0,0,44.943,1,1,8008,4004
4205,1.0203e+08,0,1.2076e-05,0.00063403,-0.00072613,-0.0033421,0.314,-9.7549,0,0,44.943,1,1,8008,4004
4240,1.0204e+08,0,-0.00032943,0.000919,5.3417e-05,-0.0033908,0.3133,-9.7549,0,0,44.944,1,1,8008,4004
4243,1.0204e+08,0,0.00033138,0.00039302,-9.0046e-05,-0.0036938,0.31248,-9.7574,0,0,44.944,1,1,8008,4004
4247,1.0204e+08,0,0.0012246,0.00049949,-0.00064018,-0.0037117,0.31161,-9.7601,0,0,44.944,1,1,8008,4004
4250,1.0204e+08,0,0.0012854,4.6629e-05,-0.0010973,-0.0025845,0.31161,-9.7616,0,0,44.944,1,1,8008,4004
4285,1.0205e+08,0,0.0010967,-0.0002977,-0.0015531,-0.0020711,0.31312,-9.764,0,0,44.944,1,1,8008,4004
4288,1.0205e+08,0,0.00064505,1.7424e-07,-0.0010116,-0.0043007,0.31529,-9.7668,0,0,44.944,1,1,8008,4004
4294,1.0205e+08,0,0.00049502,0.0003588,-0.00021243,-0.0069143,0.31678,-9.7695,0,0,44.944,1,1,8008,4004
4297,1.0206e+08,0,0.0010282,6.1086e-05,0.00078337,-0.01231,0.31751,-9.7721,0,0,44.945,1,1,8008,4004
4332,1.0206e+08,0,0.0012881,0.00032686,0.00063943,-0.013736,0.31702,-9.7719,0,0,44.945,1,1,8008,4004
4335,1.0207e+08,0,0.00098817,0.0011322,-5.723e-05,-0.024624,0.31034,-9.7674,0,0,44.945,1,1,8008,4004
4371,1.0207e+08,0,0.0024183,0.00099379,0.00027947,-0.022798,0.30655,-9.7687,0,0,44.945,1,1,8008,4004
4374,1.0207e+08,0,0.0026325,0.00076129,0.00096777,-0.020793,0.30197,-9.7692,0,0,44.946,1,1,8008,4004
4377,1.0208e+08,0,0.0024207,0.00040652,0.0015769,-0.018692,0.29677,-9.7677,0,0,44.946,1,1,8008,4004
4380,1.0208e+08,0,0.0021788,0.00026623,0.0018551,-0.017161,0.28755,-9.7613,0,0,44.946,1,1,8008,4004
4415,1.0208e+08,0,0.0015281,-9.3316e-05,0.0020523,-0.017149,0.28449,-9.758,0,0,44.946,1,1,8008,4004
4419,1.0208e+08,0,0.0016537,-0.00040046,0.0020426,-0.019827,0.28391,-9.7526,0,0,44.947,1,1,8008,4004
4422,1.0209e+08,0,0.0020183,-0.00080472,0.0017464,-0.022787,0.28703,-9.7491,0,0,44.947,1,1,8008,4004
4425,1.0209e+08,0,0.0016328,-0.0012832,0.0010592,-0.023318,0.2903,-9.7467,0,0,44.947,1,1,8008,4004
4460,1.0209e+08,0,0.0019865,-0.0012757,0.00080586,-0.021705,0.29437,-9.7462,0,0,44.947,1,1,8008,4004
4463,1.0209e+08,0,0.0031975,-0.00091396,0.00042654,-0.015708,0.29938,-9.7493,0,0,44.947,1,1,8008,4004
4466,1.021e+08,0,0.0032838,-0.001008,0.0010804,-0.011994,0.3035,-9.7514,0,0,44.947,1,1,8008,4004
4469,1.021e+08,0,0.0017721,-0.00017951,0.0013467,-0.011603,0.30518,-9.7518,0,0,44.947,1,1,8008,4004
4504,1.021e+08,0,0.0010143,0.00074604,0.001312,-0.011527,0.30652,-9.7526,0,0,44.948,1,1,8008,4004
4508,1.021e+08,0,0.00085865,0.0013585,0.0012134,-0.014408,0.30757,-9.7523,0,0,44.948,1,1,8008,4004
4511,1.0211e+08,0,0.0012451,0.00033444,0.001823,-0.017683,0.30739,-9.7507,0,0,44.948,1,1,8008,4004
4514,1.0211e+08,0,0.00093289,-0.0015343,0.0023201,-0.022873,0.30687,-9.7497,0,0,44.948,1,1,8008,4004
4549,1.0211e+08,0,0.0004228,-0.0021817,0.00089582,-0.023102,0.30643,-9.7516,0,0,44.948,1,1,8008,4004
4555,1.0211e+08,0,0.00015464,-0.002832,0.00029648,-0.021578,0.30387,-9.7531,0,0,44.949,1,1,8008,4004
4560,1.0212e+08,0,-0.00058352,-0.0035278,0.00058086,-0.018631,0.30044,-9.7545,0,0,44.949,1,1,8008,4004
4563,1.0212e+08,0,-0.00083496,-0.0032809,0.00069759,-0.017292,0.29921,-9.7561,0,0,44.949,1,1,8008,4004
4598,1.0212e+08,0,-0.0012649,-0.0028345,0.0011744,-0.016319,0.29997,-9.7585,0,0,44.949,1,1,8008,4004
4602,1.0212e+08,0,-0.00097844,-0.002991,0.00037004,-0.014875,0.29982,-9.7614,0,0,44.949,1,1,8008,4004
4605,1.0213e+08,0,-0.0010286,-0.0032201,2.9195e-05,-0.014103,0.29886,-9.7652,0,0,44.95,1,1,8008,4004
4608,1.0213e+08,0,-0.001797,-0.0028398,0.00028714,-0.015158,0.29804,-9.7642,0,0,44.95,1,1,8008,4004
4643,1.0213e+08,0,-0.0017459,-0.0020089,1.3932e-05,-0.017749,0.29741,-9.7589,0,0,44.95,1,1,8008,4004
4647,1.0213e+08,0,-0.0011269,-0.0024989,-1.2686e-05,-0.020411,0.29748,-9.7556,0,0,44.95,1,1,8008,4004
4650,1.0214e+08,0,-6.8871e-05,-0.0016988,0.0004231,-0.025072,0.29659,-9.7526,0,0,44.95,1,1,8008,4004
4653,1.0214e+08,0,-0.00071257,-0.0004774,0.00113,-0.02628,0.29592,-9.7541,0,0,44.951,1,1,8008,4004
4688,1.0214e+08,0,-0.0011902,0.00041847,5.356e-05,-0.026381,0.29625,-9.7615,0,0,44.951,1,1,8008,4004
4691,1.0214e+08,0,-0.0015252,0.00076085,-0.00027991,-0.025835,0.29802,-9.7661,0,0,44.951,1,1,8008,4004
4694,1.0215e+08,0,-0.00039279,0.00041836,0.0002089,-0.025655,0.30228,-9.7665,0,0,44.951,1,1,8008,4004
4697,1.0215e+08,0,9.0745e-05,0.0006015,0.00038302,-0.026266,0.30456,-9.7648,0,0,44.951,1,1,8008,4004
4732,1.0215e+08,0,-0.00048702,0.00066506,5.2987e-05,-0.026285,0.3079,-9.7636,0,0,44.951,1,1,8008,4004
4737,1.0215e+08,0,-0.0007059,0.00038906,0.00010331,-0.024577,0.31001,-9.766,0,0,44.952,1,1,8008,4004
4740,1.0216e+08,0,-0.00053005,6.6387e-05,-0.00022233,-0.022634,0.31059,-9.7683,0,0,44.952,1,1,8008,4004
4743,1.0216e+08,0,0.00056475,-0.00085504,-0.00091285,-0.017783,0.31165,-9.7691,0,0,44.952,1,1,8008,4004
4746,1.0216e+08,0,0.00062137,-0.0010584,-0.0013009,-0.013764,0.31133,-9.7673,0,0,44.952,1,1,8008,4004
4781,1.0216e+08,0,0.00022076,-0.0011455,-0.0011714,-0.01058,0.30968,-9.762,0,0,44.952,1,1,8008,4004
4784,1.0217e+08,0,0.00067399,-0.0015206,-0.00057662,-0.012903,0.30931,-9.7612,0,0,44.952,1,1,8008,4004
4787,1.0217e+08,0,0.0010053,0.00027432,-0.00067886,-0.017178,0.30682,-9.7628,0,0,44.952,1,1,8008,4004
4790,1.0217e+08,0,0.001135,0.0010825,-0.0011544,-0.018894,0.30528,-9.7643,0,0,44.953,1,1,8008,4004
4825,1.0218e+08,0,0.0009882,0.001799,-0.00067647,-0.023788,0.30314,-9.7674,0,0,44.953,1,1,8008,4004
4829,1.0218e+08,0,0.00010008,0.0016445,-0.00058078,-0.028331,0.30235,-9.7674,0,0,44.953,1,1,8008,4004
4833,1.0218e+08,0,-0.00051159,0.0014263,-0.00086161,-0.037921,0.30252,-9.7685,0,0,44.953,1,1,8008,4004
4836,1.0218e+08,0,-0.00051358,0.00097563,-0.0014,-0.043228,0.30225,-9.7706,0,0,44.953,1,1,8008,4004
4871,1.0219e+08,0,-0.00026489,0.00046858,-0.0011034,-0.04708,0.30194,-9.7744,0,0,44.953,1,1,8008,4004
4875,1.0219e+08,0,0.00011632,0.00091525,-0.00099243,-0.047393,0.30265,-9.7746,0,0,44.953,1,1,8008,4004
4878,1.0219e+08,0,0.00018712,0.0017973,-0.00057049,-0.045544,0.30225,-9.7733,0,0,44.953,1,1,8008,4004
4881,1.0219e+08,0,0.00086795,0.0026119,-0.00045445,-0.042056,0.29981,-9.7714,0,0,44.953,1,1,8008,4004
4916,1.022e+08,0,0.0012665,0.0028611,-0.00041823,-0.037617,0.29575,-9.7727,0,0,44.953,1,1,8008,4004
4919,1.022e+08,0,0.001001,0.0024339,-0.00026048,-0.032072,0.29407,-9.7718,0,0,44.954,1,1,8008,4004
4922,1.022e+08,0,0.00042769,0.0023811,-0.0003556,-0.026956,0.29373,-9.7686,0,0,44.954,1,1,8008,4004
4926,1.022e+08,0,-0.00037658,0.0020714,-0.00044713,-0.021877,0.29358,-9.7671,0,0,44.954,1,1,8008,4004
4961,1.0221e+08,0,-0.00041496,0.00079493,-0.00043675,-0.015562,0.2937,-9.7654,0,0,44.954,1,1,8008,4004
4965,1.0221e+08,0,0.0001478,0.00057992,0.00031717,-0.012723,0.29408,-9.7631,0,0,44.954,1,1,8008,4004
4968,1.0221e+08,0,5.9379e-05,0.00053796,0.0015951,-0.013066,0.29472,-9.7628,0,0,44.954,1,1,8008,4004
4971,1.0221e+08,0,-0.00025179,0.000705,0.0021493,-0.013831,0.29689,-9.7617,0,0,44.954,1,1,8008,4004
5009,1.0222e+08,0,-0.00072746,0.00033672,0.0016087,-0.016457,0.29987,-9.7604,0,0,44.954,1,1,8008,4004
5013,1.0222e+08,0,-0.00035332,0.0012178,0.00032605,-0.01923,0.30199,-9.7618,0,0,44.954,1,1,8008,4004
5016,1.0222e+08,0,-0.00054615,0.0018448,-0.00059381,-0.019938,0.30404,-9.7633,0,0,44.954,1,1,8008,4004
5019,1.0222e+08,0,-0.000258,0.0015363,-0.00025744,-0.021126,0.30653,-9.7644,0,0,44.954,1,1,8008,4004
5054,1.0223e+08,0,0.00061316,-4.881e-05,0.00050237,-0.024478,0.31045,-9.767,0,0,44.954,1,1,8008,4004
5058,1.0223e+08,0,0.00086638,-0.0007439,0.00069206,-0.027307,0.31383,-9.7691,0,0,44.954,1,1,8008,4004
5062,1.0223e+08,0,0.00069628,-0.001314,0.00054699,-0.028596,0.3142,-9.7705,0,0,44.953,1,1,8008,4004
5065,1.0223e+08,0,0.00023701,-0.001277,-0.00022461,-0.028394,0.31408,-9.7724,0,0,44.953,1,1,8008,4004
5100,1.0224e+08,0,0.00010199,-0.0011975,-0.0017417,-0.027178,0.31604,-9.7731,0,0,44.953,1,1,8008,4004
5106,1.0224e+08,0,-0.00065984,-0.0010212,-0.0018243,-0.026757,0.31644,-9.7711,0,0,44.953,1,1,8008,4004
5109,1.0224e+08,0,-0.0017999,-0.00064414,-7.6217e-05,-0.026275,0.3146,-9.7665,0,0,44.953,1,1,8008,4004
5112,1.0225e+08,0,0.00055421,0.0020345,0.00015234,-0.019932,0.30306,-9.7546,0,0,44.953,1,1,8008,4004
5147,1.0225e+08,0,0.00071272,0.0027755,0.00013365,-0.01611,0.30097,-9.7507,0,0,44.953,1,1,8008,4004
5151,1.0226e+08,0,0.00061107,0.001772,0.00090386,-0.013874,0.29974,-9.749,0,0,44.953,1,1,8008,4004
5154,1.0226e+08,0,-0.0001693,-0.00063354,0.0014576,-0.013772,0.29908,-9.7466,0,0,44.953,1,1,8008,4004
5157,1.0226e+08,0,-7.1161e-05,-0.0012185,0.0023739,-0.01203,0.30139,-9.7439,0,0,44.953,1,1,8008,4004
5192,1.0226e+08,0,-8.4059e-05,-0.00064306,0.0031172,-0.0084847,0.30466,-9.7441,0,0,44.953,1,1,8008,4004
5195,1.0227e+08,0,0.00010874,-0.00014565,0.0032443,-0.0045559,0.30783,-9.7466,0,0,44.953,1,1,8008,4004
5199,1.0227e+08,0,-0.0012679,-0.00015347,0.0017218,-3.598e-05,0.31036,-9.7524,0,0,44.953,1,1,8008,4004
5202,1.0227e+08,0,-0.0023096,0.000437,0.0012561,0.0018723,0.31186,-9.7539,0,0,44.953,1,1,8008,4004
5237,1.0227e+08,0,-0.0028997,0.00088276,0.0018722,0.0018241,0.31482,-9.7535,0,0,44.953,1,1,8008,4004
5241,1.0228e+08,0,-0.0026304,-9.9099e-05,0.0027874,-2.5496e-05,0.31609,-9.7543,0,0,44.953,1,1,8008,4004
5244,1.0228e+08,0,-0.002004,-0.0011575,0.0022985,-0.0016948,0.31644,-9.7551,0,0,44.953,1,1,8008,4004
5247,1.0228e+08,0,-0.00058106,-0.0022339,0.00014922,-0.0044984,0.31654,-9.7572,0,0,44.953,1,1,8008,4004
5282,1.0229e+08,0,3.8452e-05,-0.0021108,-0.00029881,-0.0087992,0.31407,-9.7581,0,0,44.953,1,1,8008,4004
5285,1.0229e+08,0,0.00061498,-0.0013371,0.00026664,-0.011884,0.31247,-9.759,0,0,44.953,1,1,8008,4004
5289,1.0229e+08,0,0.0013409,-0.00036572,0.00054668,-0.015116,0.31148,-9.763,0,0,44.953,1,1,8008,4004
5292,1.0229e+08,0,0.00089093,0.00022439,0.00027831,-0.015524,0.31061,-9.765,0,0,44.953,1,1,8008,4004
5327,1.023e+08,0,-0.00045936,0.00062406,-4.4026e-05,-0.016059,0.30955,-9.7656,0,0,44.953,1,1,8008,4004
5331,1.023e+08,0,-0.0010975,0.00057267,9.9041e-05,-0.017797,0.30876,-9.7651,0,0,44.953,1,1,8008,4004
5334,1.023e+08,0,-0.0018259,0.00052741,-0.00088262,-0.019402,0.30579,-9.7648,0,0,44.953,1,1,8008,4004
5337,1.023e+08,0,-0.0023149,0.00019219,-0.0014438,-0.019532,0.30359,-9.7653,0,0,44.953,1,1,8008,4004
5372,1.0231e+08,0,-0.0012475,0.00039626,-0.00063365,-0.019706,0.301,-9.7688,0,0,44.953,1,1,8008,4004
5375,1.0231e+08,0,-0.00057244,0.0018813,-0.00066794,-0.02068,0.30007,-9.7708,0,0,44.954,1,1,8008,4004
5378,1.0231e+08,0,-0.0002597,0.0031738,-0.00087371,-0.020609,0.29968,-9.7712,0,0,44.954,1,1,8008,4004
5381,1.0231e+08,0,-0.00061371,0.0028856,-0.00076601,-0.019804,0.29978,-9.7708,0,0,44.954,1,1,8008,4004
5416,1.0231e+08,0,-0.0010565,0.0023561,-0.00064919,-0.016574,0.3,-9.7695,0,0,44.954,1,1,8008,4004
5420,1.0232e+08,0,-0.00049201,0.0024313,-0.00051918,-0.013691,0.30001,-9.7679,0,0,44.954,1,1,8008,4004
5426,1.0232e+08,0,0.00053451,0.001869,-0.00073799,-0.011241,0.2986,-9.765,0,0,44.954,1,1,8008,4004
5430,1.0232e+08,0,0.00068193,0.00096098,-0.0015835,-0.010917,0.29749,-9.7659,0,0,44.954,1,1,8008,4004
5465,1.0233e+08,0,-0.00081986,-0.00030265,-0.002556,-0.012753,0.2955,-9.7715,0,0,44.955,1,1,8008,4004
5468,1.0233e+08,0,-0.0015336,-0.00060875,-0.0017513,-0.012749,0.29594,-9.7731,0,0,44.955,1,1,8008,4004
5471,1.0233e+08,0,-0.0023148,-0.00052767,-0.00073265,-0.012479,0.2987,-9.7752,0,0,44.955,1,1,8008,4004
5474,1.0233e+08,0,-0.0020342,-0.00053166,-0.00023171,-0.01137,0.30043,-9.7752,0,0,44.955,1,1,8008,4004
5509,1.0234e+08,0,-0.0012292,-0.00044667,-0.00060451,-0.0098859,0.30468,-9.7717,0,0,44.955,1,1,8008,4004
5513,1.0234e+08,0,-0.00079907,-0.00087632,-0.001258,-0.0077002,0.31018,-9.7649,0,0,44.955,1,1,8008,4004
5516,1.0234e+08,0,-0.00084705,-0.0013562,-0.0011523,-0.0056461,0.31195,-9.7597,0,0,44.955,1,1,8008,4004
5519,1.0234e+08,0,-0.00087908,-0.0013196,-0.0014649,-0.0035951,0.31227,-9.7553,0,0,44.955,1,1,8008,4004
5554,1.0235e+08,0,0.00048544,-0.00072811,-0.0013467,-0.0053356,0.31051,-9.7549,0,0,44.955,1,1,8008,4004
5558,1.0235e+08,0,0.0010005,-0.00040906,-0.0010408,-0.0068796,0.30957,-9.7552,0,0,44.956,1,1,8008,4004
5561,1.0235e+08,0,0.0010038,0.0003274,-0.0006148,-0.0089647,0.31014,-9.7549,0,0,44.956,1,1,8008,4004
5564,1.0235e+08,0,0.00082601,-0.00013409,-0.00079345,-0.010653,0.31006,-9.7528,0,0,44.956,1,1,8008,4004
5599,1.0236e+08,0,0.00030489,-0.0014197,-0.0012283,-0.012768,0.30955,-9.752,0,0,44.956,1,1,8008,4004
5602,1.0236e+08,0,0.00026378,-0.0021382,-0.001199,-0.014773,0.30941,-9.7528,0,0,44.956,1,1,8008,4004
5605,1.0236e+08,0,-5.028e-05,-0.0017516,-0.0003506,-0.020223,0.30988,-9.7566,0,0,44.956,1,1,8008,4004
5608,1.0236e+08,0,-0.00026528,-0.00069102,0.00030035,-0.024676,0.30914,-9.7587,0,0,44.956,1,1,8008,4004
5643,1.0237e+08,0,-0.00015453,0.00031804,0.00042661,-0.031299,0.30649,-9.7594,0,0,44.956,1,1,8008,4004
5648,1.0237e+08,0,0.00022642,0.00065859,0.00042295,-0.034821,0.30623,-9.7574,0,0,44.956,1,1,8008,4004
5651,1.0237e+08,0,0.00026934,-0.00060084,-0.00049149,-0.037127,0.30667,-9.7568,0,0,44.956,1,1,8008,4004
5654,1.0237e+08,0,-0.00033378,-0.00093386,-8.2213e-05,-0.037367,0.30778,-9.7588,0,0,44.957,1,1,8008,4004
5689,1.0238e+08,0,-0.00025082,-0.00079807,0.001533,-0.035147,0.30864,-9.7621,0,0,44.957,1,1,8008,4004
5692,1.0238e+08,0,0.00050408,-0.0010999,0.0027086,-0.032009,0.30843,-9.7629,0,0,44.957,1,1,8008,4004
5695,1.0238e+08,0,0.0010245,-0.0013089,0.0038921,-0.027874,0.30631,-9.7599,0,0,44.957,1,1,8008,4004
5698,1.0238e+08,0,0.0011964,-0.00077843,0.0033327,-0.025183,0.30513,-9.7589,0,0,44.957,1,1,8008,4004
5733,1.0239e+08,0,0.00061288,0.00052292,0.0021528,-0.023972,0.30389,-9.7597,0,0,44.957,1,1,8008,4004
5737,1.0239e+08,0,0.00029634,0.000552,0.0011711,-0.024894,0.30534,-9.7628,0,0,44.957,1,1,8008,4004
5740,1.0239e+08,0,0.00016107,0.00023634,0.0010328,-0.024276,0.30566,-9.7652,0,0,44.957,1,1,8008,4004
5743,1.024e+08,0,0.00045684,0.00020203,0.00028453,-0.023596,0.30514,-9.7685,0,0,44.957,1,1,8008,4004
5778,1.024e+08,0,9.5156e-05,0.0012154,-0.00029475,-0.022308,0.30471,-9.7664,0,0,44.958,1,1,8008,4004
5781,1.024e+08,0,-0.00019483,0.0018296,0.00027397,-0.020929,0.3048,-9.7643,0,0,44.958,1,1,8008,4004
5784,1.024e+08,0,0.00020385,0.0010805,0.0013377,-0.019558,0.30653,-9.7625,0,0,44.958,1,1,8008,4004
5787,1.0241e+08,0,-0.00022245,0.0001764,0.0020005,-0.01912,0.30829,-9.7617,0,0,44.958,1,1,8008,4004
5822,1.0241e+08,0,-0.0013541,-0.00097007,0.0028387,-0.018334,0.31086,-9.7614,0,0,44.958,1,1,8008,4004
5826,1.0241e+08,0,-0.00095231,-0.00072736,0.003065,-0.018681,0.31127,-9.7629,0,0,44.958,1,1,8008,4004
5829,1.0241e+08,0,-0.00029855,-4.8087e-05,0.0024595,-0.021672,0.31105,-9.7662,0,0,44.958,1,1,8008,4004
5832,1.0242e+08,0,-0.00042774,0.00013887,0.0012561,-0.024398,0.31128,-9.7674,0,0,44.959,1,1,8008,4004
5867,1.0242e+08,0,-0.00084672,0.0005583,0.00010151,-0.029236,0.31091,-9.7688,0,0,44.959,1,1,8008,4004
5871,1.0242e+08,0,-0.0012279,0.001277,0.00067465,-0.03229,0.30976,-9.7697,0,0,44.959,1,1,8008,4004
5877,1.0242e+08,0,-0.0025279,0.0010241,0.0018208,-0.035247,0.31121,-9.7717,0,0,44.959,1,1,8008,4004
5881,1.0243e+08,0,-0.0031501,0.0010158,0.0019848,-0.036418,0.31285,-9.7728,0,0,44.959,1,1,8008,4004
5916,1.0243e+08,0,-0.0029788,0.0013448,0.0011374,-0.038247,0.31539,-9.7728,0,0,44.959,1,1,8008,4004
5919,1.0243e+08,0,-0.0030284,0.0019718,0.0013017,-0.039833,0.31646,-9.7733,0,0,44.959,1,1,8008,4004
5922,1.0243e+08,0,-0.0031681,0.0026788,0.0014714,-0.03892,0.3165,-9.7737,0,0,44.96,1,1,8008,4004
5925,1.0244e+08,0,-0.0031586,0.0022085,0.0017974,-0.037172,0.31551,-9.775,0,0,44.96,1,1,8008,4004
5960,1.0244e+08,0,-0.0026397,0.0015321,0.0015694,-0.034884,0.31262,-9.7787,0,0,44.96,1,1,8008,4004
5964,1.0244e+08,0,-0.0028353,0.0020373,0.0015604,-0.033855,0.3106,-9.7789,0,0,44.96,1,1,8008,4004
5967,1.0244e+08,0,-0.0041199,0.0027134,0.0010032,-0.033231,0.30694,-9.7766,0,0,44.96,1,1,8008,4004
5972,1.0245e+08,0,-0.0036726,0.0026348,0.00086545,-0.032486,0.30529,-9.7739,0,0,44.96,1,1,8008,4004
6007,1.0245e+08,0,-0.003556,0.0021451,0.0010118,-0.021455,0.30927,-9.7658,0,0,44.96,1,1,8008,4004
6010,1.0245e+08,0,-0.0028779,0.00091695,0.00093123,-0.017643,0.31144,-9.7633,0,0,44.96,1,1,8008,4004
6013,1.0246e+08,0,-0.0031456,-0.0011446,-0.00051456,-0.011133,0.3134,-9.7551,0,0,44.96,1,1,8008,4004
6046,1.0246e+08,0,-0.0037626,-0.00052091,-0.0011003,-0.012106,0.31316,-9.7545,0,0,44.96,1,1,8008,4004
6050,1.0247e+08,0,-0.0030136,-9.6438e-05,-0.00081174,-0.014175,0.31197,-9.7557,0,0,44.96,1,1,8008,4004
6053,1.0247e+08,0,-0.0017642,0.00014979,0.00017798,-0.017012,0.31014,-9.7565,0,0,44.961,1,1,8008,4004
6056,1.0247e+08,0,-0.0019133,-0.00019272,0.0001913,-0.018306,0.31055,-9.756,0,0,44.961,1,1,8008,4004
6089,1.0247e+08,0,-0.0022703,3.682e-05,0.00024473,-0.021091,0.31249,-9.7574,0,0,44.961,1,1,8008,4004
6092,1.0248e+08,0,-0.0016727,0.00051443,0.0010248,-0.022887,0.31394,-9.7625,0,0,44.961,1,1,8008,4004
6096,1.0248e+08,0,-0.00061098,0.0003047,0.00099739,-0.025716,0.31494,-9.7698,0,0,44.961,1,1,8008,4004
6099,1.0248e+08,0,-0.00044021,9.9092e-05,0.00055901,-0.029281,0.31571,-9.7723,0,0,44.961,1,1,8008,4004
6132,1.0248e+08,0,-0.00053253,0.00040783,-0.00066681,-0.033321,0.31615,-9.7738,0,0,44.961,1,1,8008,4004
6136,1.0249e+08,0,-0.00044936,0.0008798,-0.0019802,-0.035993,0.31539,-9.7752,0,0,44.961,1,1,8008,4004
6139,1.0249e+08,0,-0.00054927,0.0010385,-0.0018007,-0.038563,0.31318,-9.7749,0,0,44.961,1,1,8008,4004
6142,1.0249e+08,0,-0.00038635,0.00098827,-0.00071474,-0.041624,0.30979,-9.7735,0,0,44.961,1,1,8008,4004
6175,1.0249e+08,0,-0.00076285,0.00067334,0.00011131,-0.040202,0.30682,-9.7691,0,0,44.961,1,1,8008,4004
6179,1.025e+08,0,-0.0010738,0.00010354,0.00041022,-0.038491,0.30486,-9.7667,0,0,44.962,1,1,8008,4004
6182,1.025e+08,0,0.00014849,0.00078417,-0.00033076,-0.034428,0.30267,-9.7645,0,0,44.962,1,1,8008,4004
6185,1.025e+08,0,0.00081084,0.001989,-0.0010452,-0.031448,0.30308,-9.7637,0,0,44.962,1,1,8008,4004
6220,1.025e+08,0,0.0019703,0.0028011,-0.00073951,-0.028624,0.30461,-9.7615,0,0,44.962,1,1,8008,4004
6224,1.0251e+08,0,0.00239,0.0017598,-0.00054268,-0.026931,0.30525,-9.7591,0,0,44.962,1,1,8008,4004
6227,1.0251e+08,0,0.0024627,0.00034042,-0.00036375,-0.022749,0.30669,-9.7575,0,0,44.962,1,1,8008,4004
6230,1.0251e+08,0,0.0026929,-0.0002442,-0.00078153,-0.019715,0.30822,-9.7559,0,0,44.962,1,1,8008,4004
6263,1.0251e+08,0,0.0029427,-0.00040355,-0.0010426,-0.016194,0.31106,-9.7546,0,0,44.962,1,1,8008,4004
6267,1.0252e+08,0,0.0030361,0.00071794,-0.00093216,-0.014794,0.31259,-9.7543,0,0,44.962,1,1,8008,4004
6270,1.0252e+08,0,0.003055,0.0015289,-0.00019733,-0.014364,0.31316,-9.7537,0,0,44.962,1,1,8008,4004
6273,1.0252e+08,0,0.0025277,0.0014767,0.00018592,-0.014777,0.31394,-9.7537,0,0,44.962,1,1,8008,4004
6306,1.0252e+08,0,0.0015967,0.00089335,0.00054573,-0.015339,0.31373,-9.7533,0,0,44.963,1,1,8008,4004
6312,1.0253e+08,0,0.00097751,0.00079116,-2.5702e-05,-0.015692,0.31086,-9.7536,0,0,44.963,1,1,8008,4004
6316,1.0253e+08,0,0.0013963,0.00091639,-0.00084657,-0.016894,0.30696,-9.7553,0,0,44.963,1,1,8008,4004
6319,1.0253e+08,0,0.001495,0.00079658,-0.0013682,-0.017116,0.30522,-9.756,0,0,44.963,1,1,8008,4004
6352,1.0253e+08,0,0.0014032,0.0003929,-0.0016243,-0.016024,0.30225,-9.7562,0,0,44.963,1,1,8008,4004
6356,1.0254e+08,0,0.00091507,-0.00030057,-0.0015347,-0.01404,0.29999,-9.7585,0,0,44.963,1,1,8008,4004
6359,1.0254e+08,0,0.0011835,-0.00077407,-0.00096676,-0.013324,0.29935,-9.7627,0,0,44.963,1,1,8008,4004
6362,1.0254e+08,0,0.0015149,-0.0016678,-0.00071245,-0.010963,0.29963,-9.7718,0,0,44.963,1,1,8008,4004
6395,1.0255e+08,0,0.0013129,-0.00026733,-0.000825,-0.0072069,0.29989,-9.7771,0,0,44.963,1,1,8008,4004
6399,1.0255e+08,0,0.001134,0.00094133,-0.00017395,-0.0050099,0.30008,-9.7778,0,0,44.964,1,1,8008,4004
6402,1.0255e+08,0,0.0015182,0.0011342,0.0014827,-0.0027363,0.3025,-9.7784,0,0,44.964,1,1,8008,4004
6405,1.0255e+08,0,0.0022109,0.00095874,0.0019316,-0.0027811,0.3046,-9.7765,0,0,44.964,1,1,8008,4004
6438,1.0256e+08,0,0.0021935,0.00071157,0.0014602,-0.0040155,0.30579,-9.7702,0,0,44.964,1,1,8008,4004
6442,1.0256e+08,0,0.0013863,0.00019955,0.0006877,-0.0058059,0.30535,-9.7661,0,0,44.964,1,1,8008,4004
6445,1.0256e+08,0,0.00014314,0.00020535,-0.00050153,-0.0089643,0.30483,-9.7626,0,0,44.964,1,1,8008,4004
6448,1.0256e+08,0,-0.00047636,-0.00040436,-0.00080408,-0.011678,0.30538,-9.7594,0,0,44.964,1,1,8008,4004
6481,1.0256e+08,0,0.00016619,-0.0004197,-0.00021104,-0.016361,0.30615,-9.7587,0,0,44.964,1,1,8008,4004
6485,1.0257e+08,0,0.0010055,5.2974e-05,0.00020302,-0.018623,0.30519,-9.7608,0,0,44.964,1,1,8008,4004
6488,1.0257e+08,0,0.00039521,0.00012769,-0.00010994,-0.019782,0.30192,-9.7662,0,0,44.964,1,1,8008,4004
6491,1.0257e+08,0,-0.00032747,-0.0001006,0.00011277,-0.018568,0.29995,-9.769,0,0,44.965,1,1,8008,4004
6525,1.0257e+08,0,-0.00079132,-0.0011285,-0.00074189,-0.014159,0.29749,-9.7696,0,0,44.965,1,1,8008,4004
6528,1.0258e+08,0,-0.00073376,-0.0015295,-0.0011111,-0.011697,0.29623,-9.7713,0,0,44.965,1,1,8008,4004
6531,1.0258e+08,0,-0.00063585,-0.0018298,0.0002697,-0.0097045,0.29528,-9.7761,0,0,44.965,1,1,8008,4004
6534,1.0258e+08,0,-0.00071319,-0.0019194,0.0012841,-0.0090596,0.29491,-9.7769,0,0,44.965,1,1,8008,4004
6537,1.0258e+08,0,-0.0012173,-0.0018637,0.001682,-0.0090128,0.29549,-9.7727,0,0,44.965,1,1,8008,4004
6571,1.0259e+08,0,-0.00047973,-0.0014996,0.0017665,-0.010789,0.29699,-9.7689,0,0,44.965,1,1,8008,4004
6574,1.0259e+08,0,-0.00078838,-0.00071699,0.0017846,-0.0137,0.2985,-9.7643,0,0,44.965,1,1,8008,4004
6577,1.0259e+08,0,-0.0018344,-0.00088076,0.0021038,-0.016359,0.29851,-9.7623,0,0,44.965,1,1,8008,4004
6580,1.026e+08,0,-0.0015908,-0.0022226,0.0022504,-0.018688,0.29925,-9.7601,0,0,44.966,1,1,8008,4004
6613,1.026e+08,0,-0.00074725,-0.002308,0.00081396,-0.021256,0.30203,-9.7585,0,0,44.966,1,1,8008,4004
6617,1.026e+08,0,-0.00027281,-0.0017723,0.0011535,-0.024571,0.30303,-9.7585,0,0,44.966,1,1,8008,4004
6620,1.026e+08,0,0.00027982,-0.0023951,0.0019279,-0.028921,0.30414,-9.7607,0,0,44.966,1,1,8008,4004
6623,1.0261e+08,0,-9.8229e-05,-0.0033011,0.0010245,-0.030228,0.30542,-9.7628,0,0,44.966,1,1,8008,4004
6656,1.0261e+08,0,-0.001345,-0.0043583,-0.00018936,-0.030462,0.30737,-9.7675,0,0,44.966,1,1,8008,4004
6659,1.0261e+08,0,-0.0013142,-0.0039004,-0.00048137,-0.030549,0.30777,-9.7704,0,0,44.966,1,1,8008,4004
6662,1.0261e+08,0,-0.002009,-0.0026189,-0.0012668,-0.029638,0.30653,-9.7692,0,0,44.967,1,1,8008,4004
6665,1.0262e+08,0,-0.0027662,-0.0015383,-0.0011973,-0.027281,0.30604,-9.7655,0,0,44.967,1,1,8008,4004
6698,1.0262e+08,0,-0.0039079,-0.0013688,0.00058596,-0.022354,0.30743,-9.7638,0,0,44.967,1,1,8008,4004
6702,1.0262e+08,0,-0.0032657,-0.0018954,0.0015023,-0.018783,0.30861,-9.7659,0,0,44.967,1,1,8008,4004
6705,1.0262e+08,0,-0.0012684,-0.0020529,0.0024578,-0.014787,0.31049,-9.7697,0,0,44.967,1,1,8008,4004
6708,1.0263e+08,0,-0.00056521,-0.0015441,0.0030068,-0.013997,0.31076,-9.7707,0,0,44.967,1,1,8008,4004
6744,1.0263e+08,0,-0.0012644,-0.00028136,0.0025516,-0.012875,0.3113,-9.7708,0,0,44.967,1,1,8008,4004
6748,1.0263e+08,0,-0.0023373,0.00049165,0.0016482,-0.012482,0.31185,-9.7709,0,0,44.967,1,1,8008,4004
6751,1.0263e+08,0,-0.0027893,0.00012217,0.00040629,-0.013469,0.31118,-9.7699,0,0,44.967,1,1,8008,4004
6754,1.0264e+08,0,-0.0021492,-0.00088082,-0.00026948,-0.015495,0.31084,-9.7698,0,0,44.967,1,1,8008,4004
6787,1.0264e+08,0,-0.0013659,-0.00049463,-0.00014913,-0.018108,0.31182,-9.7718,0,0,44.967,1,1,8008,4004
6791,1.0264e+08,0,-0.00083703,0.00033914,0.00045624,-0.019097,0.31401,-9.7744,0,0,44.968,1,1,8008,4004
6794,1.0264e+08,0,-0.00013662,0.0012296,0.00021929,-0.022459,0.3171,-9.7798,0,0,44.968,1,1,8008,4004
6797,1.0265e+08,0,0.00060648,0.0018346,-0.0004567,-0.025689,0.31915,-9.7844,0,0,44.968,1,1,8008,4004
6830,1.0265e+08,0,0.00010472,0.0027064,-0.001668,-0.032001,0.32084,-9.7874,0,0,44.968,1,1,8008,4004
6835,1.0265e+08,0,2.6217e-05,0.0022971,-0.0019509,-0.034165,0.32139,-9.787,0,0,44.968,1,1,8008,4004
6838,1.0265e+08,0,0.00089957,0.00042105,-0.0025019,-0.035842,0.32122,-9.7845,0,0,44.968,1,1,8008,4004
6841,1.0266e+08,0,0.0017172,-0.00031287,-0.0021243,-0.03492,0.31841,-9.7833,0,0,44.968,1,1,8008,4004
6875,1.0266e+08,0,0.0011146,0.00077531,-0.0013853,-0.032991,0.31544,-9.7825,0,0,44.968,1,1,8008,4004
6878,1.0267e+08,0,0.0014196,0.0010195,-0.0015378,-0.03067,0.31269,-9.7842,0,0,44.968,1,1,8008,4004
6881,1.0267e+08,0,0.0017282,0.00099709,-0.0007385,-0.027978,0.30703,-9.7835,0,0,44.968,1,1,8008,4004
6916,1.0268e+08,0,0.0013565,0.0010843,-0.0015304,-0.022641,0.29878,-9.773,0,0,44.968,1,1,8008,4004
6919,1.0268e+08,0,0.0011973,0.00090366,-0.00199,-0.019007,0.29721,-9.7691,0,0,44.968,1,1,8008,4004
6922,1.0268e+08,0,0.001838,0.00038603,-0.00099856,-0.015519,0.29587,-9.7655,0,0,44.968,1,1,8008,4004
6957,1.0268e+08,0,0.0021452,0.00060375,-0.0013341,-0.01714,0.29396,-9.7639,0,0,44.968,1,1,8008,4004
6960,1.0269e+08,0,0.0024916,0.00043477,-0.0019064,-0.01933,0.29161,-9.7648,0,0,44.968,1,1,8008,4004
6963,1.0269e+08,0,0.0021995,1.7157e-05,-0.0015855,-0.022784,0.28985,-9.7685,0,0,44.968,1,1,8008,4004
6966,1.0269e+08,0,0.0017789,-0.00027467,-0.0012746,-0.025105,0.29072,-9.7719,0,0,44.968,1,1,8008,4004
7001,1.0269e+08,0,0.00065107,-0.00049599,-0.0013956,-0.027615,0.29288,-9.7753,0,0,44.968,1,1,8008,4004
7004,1.027e+08,0,0.00024562,-0.00029404,-0.0014962,-0.028336,0.2953,-9.7763,0,0,44.968,1,1,8008,4004
7008,1.027e+08,0,0.00056364,0.00033339,-0.000815,-0.03007,0.30026,-9.7775,0,0,44.968,1,1,8008,4004
7011,1.027e+08,0,0.0010582,0.00048064,0.00043112,-0.031043,0.30248,-9.7773,0,0,44.968,1,1,8008,4004
7046,1.027e+08,0,0.0013536,0.00022227,0.0018688,-0.030972,0.3032,-9.7741,0,0,44.968,1,1,8008,4004
7049,1.0271e+08,0,0.0017168,-0.00019877,0.0025923,-0.029407,0.30358,-9.771,0,0,44.968,1,1,8008,4004
7054,1.0271e+08,0,0.0016339,-0.00047926,0.0024926,-0.026719,0.30336,-9.7679,0,0,44.968,1,1,8008,4004
7057,1.0271e+08,0,0.0015284,-0.00019209,0.0017418,-0.024813,0.30335,-9.7663,0,0,44.968,1,1,8008,4004
7092,1.0271e+08,0,0.0011304,0.00019846,0.00017849,-0.0207,0.30381,-9.7661,0,0,44.967,1,1,8008,4004
7095,1.0272e+08,0,-0.00064332,0.00055988,-0.001179,-0.015773,0.30448,-9.7668,0,0,44.967,1,1,8008,4004
7098,1.0272e+08,0,-0.0018404,-9.7197e-05,-0.0011235,-0.012638,0.30561,-9.7668,0,0,44.967,1,1,8008,4004
7101,1.0272e+08,0,-0.0021364,-0.0014289,6.3703e-05,-0.010294,0.30873,-9.7664,0,0,44.967,1,1,8008,4004
7136,1.0272e+08,0,-0.0022507,-0.0014362,0.00062254,-0.010011,0.30989,-9.767,0,0,44.967,1,1,8008,4004
7139,1.0273e+08,0,-0.0021044,-0.0013889,0.00087318,-0.010155,0.31109,-9.7701,0,0,44.967,1,1,8008,4004
7143,1.0273e+08,0,-0.0016091,-0.0019115,0.0010371,-0.010091,0.3103,-9.7727,0,0,44.967,1,1,8008,4004
7149,1.0273e+08,0,-0.0018761,-0.001367,0.0014754,-0.014438,0.30686,-9.7755,0,0,44.967,1,1,8008,4004
7185,1.0273e+08,0,-0.0023806,-0.00036336,0.0010097,-0.018499,0.30419,-9.7758,0,0,44.967,1,1,8008,4004
7188,1.0274e+08,0,-0.0023549,-0.00034083,0.00061858,-0.024322,0.30087,-9.7764,0,0,44.967,1,1,8008,4004
7191,1.0274e+08,0,-0.0018562,-0.00041484,0.00090168,-0.026236,0.30006,-9.7749,0,0,44.967,1,1,8008,4004
7194,1.0274e+08,0,-0.00078923,-0.0010378,0.0013526,-0.025931,0.30098,-9.7739,0,0,44.967,1,1,8008,4004
7229,1.0274e+08,0,-0.0011587,-0.001005,0.0021021,-0.023698,0.30323,-9.7748,0,0,44.967,1,1,8008,4004
7232,1.0275e+08,0,-0.0018726,-0.00028538,0.0021523,-0.02,0.30464,-9.7769,0,0,44.967,1,1,8008,4004
7237,1.0275e+08,0,-0.0018689,0.00059189,0.0014867,-0.013311,0.305,-9.7828,0,0,44.966,1,1,8008,4004
7240,1.0275e+08,0,-0.0022002,0.0010628,0.0002904,-0.0097255,0.30334,-9.7875,0,0,44.966,1,1,8008,4004
7275,1.0275e+08,0,-0.0021688,0.0007525,-0.0010411,-0.0079739,0.29987,-9.793,0,0,44.966,1,1,8008,4004
7278,1.0276e+08,0,-0.0020338,0.00047561,-0.0012637,-0.0082532,0.29913,-9.7946,0,0,44.966,1,1,8008,4004
7281,1.0276e+08,0,-0.0022661,0.00048412,-0.0012153,-0.0073708,0.29756,-9.7951,0,0,44.966,1,1,8008,4004
7284,1.0276e+08,0,-0.0024317,0.00091827,-0.00063973,-0.007572,0.29449,-9.7934,0,0,44.966,1,1,8008,4004
7319,1.0276e+08,0,-0.0025385,0.0014766,0.00042212,-0.0083278,0.2929,-9.7914,0,0,44.966,1,1,8008,4004
7322,1.0277e+08,0,-0.0025467,0.0020299,0.00072507,-0.0080519,0.29236,-9.789,0,0,44.966,1,1,8008,4004
7326,1.0277e+08,0,-0.0023698,0.0027664,0.00072706,-0.0064579,0.29267,-9.7871,0,0,44.966,1,1,8008,4004
7329,1.0277e+08,0,-0.0028909,0.0029587,0.00067194,-0.004604,0.29514,-9.784,0,0,44.966,1,1,8008,4004
7364,1.0277e+08,0,-0.0031493,0.0028421,0.00022269,-0.0045202,0.29695,-9.7816,0,0,44.967,1,1,8008,4004
7367,1.0278e+08,0,-0.0030283,0.0025545,-0.00072704,-0.0037135,0.29783,-9.7791,0,0,44.967,1,1,8008,4004
7370,1.0278e+08,0,-0.001606,0.0026187,-0.000325,0.00099421,0.29829,-9.7777,0,0,44.967,1,1,8008,4004
7405,1.0279e+08,0,-0.00073309,0.0019318,-0.00018722,0.0030651,0.29767,-9.7747,0,0,44.967,1,1,8008,4004
7408,1.0279e+08,0,3.6871e-05,0.00037404,0.00021007,0.0049878,0.29901,-9.7733,0,0,44.967,1,1,8008,4004
7412,1.0279e+08,0,0.00075846,-0.00011565,-0.00019089,0.003821,0.30187,-9.7723,0,0,44.967,1,1,8008,4004
7415,1.0279e+08,0,0.0024862,0.00032778,-0.00095872,0.0011281,0.30622,-9.7692,0,0,44.967,1,1,8008,4004
7450,1.028e+08,0,0.0027895,-0.00099831,-0.0020007,-0.0023705,0.3092,-9.7641,0,0,44.967,1,1,8008,4004
7453,1.028e+08,0,0.0013429,-0.0012435,-0.0030854,-0.0057946,0.31079,-9.7604,0,0,44.967,1,1,8008,4004
7458,1.028e+08,0,-0.00063427,-0.0010927,-0.0033825,-0.010494,0.31134,-9.7581,0,0,44.967,1,1,8008,4004
7462,1.028e+08,0,-0.0015495,-0.0013154,-0.0026068,-0.013562,0.31198,-9.7572,0,0,44.967,1,1,8008,4004
7498,1.0281e+08,0,-0.00093312,-0.00063411,-0.0013906,-0.019196,0.31242,-9.7558,0,0,44.967,1,1,8008,4004
7501,1.0281e+08,0,-0.00039977,-0.00025105,-0.0014739,-0.022955,0.31263,-9.7558,0,0,44.967,1,1,8008,4004
7504,1.0281e+08,0,0.0011192,0.0002206,-0.001676,-0.026246,0.31205,-9.7565,0,0,44.967,1,1,8008,4004
7507,1.0281e+08,0,0.0013932,0.00026445,-0.001751,-0.028378,0.31016,-9.7565,0,0,44.967,1,1,8008,4004
7542,1.0282e+08,0,0.0022569,0.00094119,-0.0021745,-0.030741,0.30895,-9.759,0,0,44.967,1,1,8008,4004
7545,1.0282e+08,0,0.0021471,0.001147,-0.0020212,-0.030504,0.31052,-9.7619,0,0,44.967,1,1,8008,4004
7549,1.0282e+08,0,0.0010861,0.0010961,-0.0017431,-0.02813,0.31563,-9.7643,0,0,44.967,1,1,8008,4004
7552,1.0282e+08,0,0.00080101,0.00038608,-0.0014331,-0.024481,0.31988,-9.7651,0,0,44.967,1,1,8008,4004
7587,1.0283e+08,0,0.0054255,-0.0015386,0.0022396,-0.016235,0.33025,-9.7667,0,0,44.967,1,1,8008,4004
7590,1.0283e+08,0,0.0058817,-0.001499,0.0040377,-0.012745,0.33096,-9.7677,0,0,44.967,1,1,8008,4004
7593,1.0283e+08,0,0.001101,0.001386,0.0081972,-0.011564,0.31959,-9.7672,0,0,44.967,1,1,8008,4004
7599,1.0283e+08,0,-0.0016616,0.0030377,0.0095754,-0.013269,0.31775,-9.7697,0,0,44.967,1,1,8008,4004
7635,1.0284e+08,0,0.0056291,-0.0002242,0.0084261,-0.015246,0.32054,-9.7732,0,0,44.967,1,1,8008,4004
7640,1.0284e+08,0,0.008558,-0.002396,0.0057384,-0.016873,0.31345,-9.771,0,0,44.967,1,1,8008,4004
7644,1.0285e+08,0,0.0030473,0.0010739,0.0040022,-0.015661,0.31755,-9.769,0,0,44.967,1,1,8008,4004
7679,1.0285e+08,0,0.0021649,-0.0014927,0.0062174,-0.013981,0.30563,-9.7557,0,0,44.967,1,1,8008,4004
7683,1.0285e+08,0,-0.0055699,0.0011915,0.0087521,-0.021293,0.29438,-9.7504,0,0,44.966,1,1,8008,4004
7686,1.0285e+08,0,-0.0015065,0.0050512,0.010283,-0.022585,0.3142,-9.7669,0,0,44.966,1,1,8008,4004
7689,1.0286e+08,0,0.018728,0.0013219,0.012784,-0.015118,0.33714,-9.7859,0,0,44.966,1,1,8008,4004
7724,1.0286e+08,0,0.0074109,-0.005524,0.013866,-0.016461,0.2923,-9.7628,0,0,44.966,1,1,8008,4004
7727,1.0286e+08,0,-0.030382,0.0022354,0.011565,-0.034419,0.26383,-9.7378,0,0,44.966,1,1,8008,4004
7731,1.0287e+08,0,-0.012614,0.0090308,0.008883,-0.0423,0.29538,-9.7467,0,0,44.966,1,1,8008,4004
7734,1.0287e+08,0,0.026562,0.0029522,0.0061879,-0.039143,0.3495,-9.782,0,0,44.966,1,1,8008,4004
7769,1.0287e+08,0,0.035489,-0.0071868,0.002821,-0.039269,0.33229,-9.7849,0,0,44.966,1,1,8008,4004
7773,1.0287e+08,0,-0.0064868,-0.0025671,0.0030167,-0.055027,0.26295,-9.7464,0,0,44.966,1,1,8008,4004
7776,1.0288e+08,0,-0.049878,0.010281,0.0056048,-0.059836,0.2632,-9.7296,0,0,44.966,1,1,8008,4004
7779,1.0288e+08,0,-0.019748,0.0063148,0.0054003,-0.041109,0.34757,-9.7584,0,0,44.965,1,1,8008,4004
7814,1.0288e+08,0,0.045754,-0.0095954,0.0014872,-0.026141,0.36328,-9.7903,0,0,44.965,1,1,8008,4004
7817,1.0288e+08,0,0.011308,0.00088576,-0.0011449,-0.035496,0.30291,-9.7718,0,0,44.965,1,1,8008,4004
7820,1.0289e+08,0,-0.037298,0.013814,-0.0030773,-0.043896,0.25549,-9.7209,0,0,44.965,1,1,8008,4004
7823,1.0289e+08,0,-0.048816,0.013308,-0.0048133,-0.024579,0.29628,-9.7148,0,0,44.965,1,1,8008,4004
7858,1.0289e+08,0,0.013218,-0.01268,-0.0086715,0.0024972,0.361,-9.7555,0,0,44.965,1,1,8008,4004
7862,1.0289e+08,0,0.04799,-0.014051,-0.012953,-0.024732,0.32717,-9.7632,0,0,44.965,1,1,8008,4004
7865,1.029e+08,0,0.01076,0.0074457,-0.011323,-0.045152,0.27245,-9.7257,0,0,44.965,1,1,8008,4004
7868,1.029e+08,0,-0.046514,0.020072,-0.0112,-0.016864,0.26824,-9.6951,0,0,44.965,1,1,8008,4004
7903,1.029e+08,0,0.017211,-0.025795,-0.019565,0.020442,0.34896,-9.7476,0,0,44.965,1,1,8008,4004
7906,1.029e+08,0,0.045492,-0.022113,-0.021988,-0.0057488,0.35959,-9.7848,0,0,44.965,1,1,8008,4004
7910,1.0291e+08,0,0.005053,0.016038,-0.016017,-0.05704,0.29917,-9.7718,0,0,44.965,1,1,8008,4004
7914,1.0291e+08,0,-0.033833,0.024165,-0.013137,-0.044336,0.26905,-9.7326,0,0,44.965,1,1,8008,4004
7949,1.0291e+08,0,-0.025965,-0.010071,-0.01754,0.0073997,0.29166,-9.7102,0,0,44.965,1,1,8008,4004
7953,1.0291e+08,0,0.026904,-0.025272,-0.02492,-7.0843e-05,0.3298,-9.7563,0,0,44.965,1,1,8008,4004
7956,1.0292e+08,0,0.033532,-0.0025843,-0.024199,-0.031504,0.31669,-9.7786,0,0,44.965,1,1,8008,4004
7959,1.0292e+08,0,-0.0049902,0.018826,-0.018172,-0.027231,0.26569,-9.7773,0,0,44.965,1,1,8008,4004
7994,1.0292e+08,0,-0.026879,-0.01184,-0.017191,0.035472,0.26609,-9.7583,0,0,44.965,1,1,8008,4004
7998,1.0293e+08,0,-0.01811,-0.026847,-0.017822,0.031285,0.28369,-9.7317,0,0,44.965,1,1,8008,4004
8001,1.0293e+08,0,0.012295,-0.0068471,-0.017704,0.00029172,0.29619,-9.7355,0,0,44.965,1,1,8008,4004
8005,1.0293e+08,0,0.020243,0.0094851,-0.016189,-0.012282,0.30416,-9.7567,0,0,44.966,1,1,8008,4004
8040,1.0293e+08,0,0.0090201,0.00079202,-0.017854,0.013974,0.29115,-9.8004,0,0,44.966,1,1,8008,4004
8043,1.0294e+08,0,-0.0049024,-0.014962,-0.019398,0.024987,0.28574,-9.8056,0,0,44.966,1,1,8008,4004
8049,1.0294e+08,0,-0.018639,-0.012602,-0.019575,-0.0080212,0.28822,-9.7509,0,0,44.966,1,1,8008,4004
8053,1.0294e+08,0,-0.014285,-0.0017201,-0.016579,-0.027298,0.29067,-9.7278,0,0,44.966,1,1,8008,4004
8088,1.0294e+08,0,0.010692,-0.0049627,-0.013771,-0.015638,0.31762,-9.7861,0,0,44.966,1,1,8008,4004
8092,1.0295e+08,0,0.022112,-0.011494,-0.011965,-0.020429,0.33312,-9.8411,0,0,44.966,1,1,8008,4004
8095,1.0295e+08,0,0.0034041,-0.0015468,-0.006102,-0.041942,0.31042,-9.8176,0,0,44.966,1,1,8008,4004
8098,1.0295e+08,0,-0.021809,0.0078479,-0.0027171,-0.050746,0.2854,-9.7647,0,0,44.966,1,1,8008,4004
8133,1.0295e+08,0,-0.020789,0.0015183,-0.00342,-0.030963,0.29426,-9.7303,0,0,44.966,1,1,8008,4004
8136,1.0296e+08,0,0.0092118,-0.013713,-0.0058881,-0.016975,0.34104,-9.7933,0,0,44.966,1,1,8008,4004
8139,1.0296e+08,0,0.031215,-0.011069,-0.0056374,-0.031568,0.33766,-9.8238,0,0,44.966,1,1,8008,4004
8142,1.0296e+08,0,0.0066842,0.0050377,-0.0019869,-0.045538,0.30017,-9.8115,0,0,44.966,1,1,8008,4004
8178,1.0296e+08,0,-0.034515,0.015376,0.0044647,-0.024725,0.26875,-9.771,0,0,44.967,1,1,8008,4004
8182,1.0297e+08,0,-0.010125,-0.00099924,0.006272,-0.00010805,0.32238,-9.7843,0,0,44.967,1,1,8008,4004
8185,1.0297e+08,0,0.015837,-0.0048419,0.0077806,-0.010272,0.34629,-9.8073,0,0,44.967,1,1,8008,4004
8188,1.0297e+08,0,0.0074571,0.0092566,0.0099815,-0.034939,0.31337,-9.8116,0,0,44.967,1,1,8008,4004
8223,1.0297e+08,0,-0.027027,0.015289,0.012017,-0.028608,0.29189,-9.7825,0,0,44.967,1,1,8008,4004
8226,1.0298e+08,0,-0.012291,0.001645,0.01288,-0.017751,0.33243,-9.7646,0,0,44.967,1,1,8008,4004
8229,1.0298e+08,0,0.013388,-0.0065036,0.0148,-0.016896,0.36049,-9.7624,0,0,44.967,1,1,8008,4004
8233,1.0298e+08,0,0.013432,-0.00028386,0.019492,-0.017594,0.34892,-9.7544,0,0,44.968,1,1,8008,4004
8268,1.0299e+08,0,-0.020747,0.019602,0.023621,-0.024845,0.32213,-9.7471,0,0,44.968,1,1,8008,4004
8273,1.0299e+08,0,-0.0086848,0.021229,0.023718,-0.026034,0.36224,-9.7535,0,0,44.968,1,1,8008,4004
8276,1.0299e+08,0,0.018433,0.0063165,0.0219,-0.010446,0.39109,-9.7558,0,0,44.968,1,1,8008,4004
8279,1.0299e+08,0,0.016715,-0.012683,0.018687,0.013167,0.35886,-9.738,0,0,44.968,1,1,8008,4004
8316,1.03e+08,0,-0.026158,-0.0030719,0.019247,0.0083753,0.3046,-9.7286,0,0,44.968,1,1,8008,4004
8320,1.03e+08,0,-0.026865,0.0077516,0.022039,0.0037439,0.31757,-9.747,0,0,44.968,1,1,8008,4004
8323,1.03e+08,0,0.017662,0.0039467,0.025282,0.017327,0.36386,-9.7822,0,0,44.969,1,1,8008,4004
8326,1.03e+08,0,0.032972,-0.0061222,0.025276,0.027366,0.3566,-9.7879,0,0,44.969,1,1,8008,4004
8361,1.0301e+08,0,0.001988,-0.006737,0.025536,0.0029765,0.2922,-9.7755,0,0,44.969,1,1,8008,4004
8364,1.0301e+08,0,-0.022097,-0.00033401,0.026049,-0.011979,0.29331,-9.781,0,0,44.969,1,1,8008,4004
8367,1.0301e+08,0,-0.01446,-0.0014314,0.023713,-0.015392,0.31346,-9.787,0,0,44.969,1,1,8008,4004
8370,1.0301e+08,0,0.0084637,-0.0079567,0.020262,-0.017857,0.32729,-9.7794,0,0,44.969,1,1,8008,4004
8405,1.0302e+08,0,0.023082,-0.010001,0.016999,-0.044431,0.31064,-9.7439,0,0,44.97,1,1,8008,4004
8409,1.0302e+08,0,0.0063332,-0.0048958,0.017506,-0.052515,0.29659,-9.7639,0,0,44.97,1,1,8008,4004
8412,1.0302e+08,0,-0.0047259,-0.0033301,0.017849,-0.056159,0.29468,-9.7933,0,0,44.97,1,1,8008,4004
8417,1.0302e+08,0,-0.0073226,0.0041826,0.015598,-0.082487,0.29216,-9.8094,0,0,44.97,1,1,8008,4004
8452,1.0303e+08,0,0.003031,0.010409,0.01153,-0.095183,0.29257,-9.7888,0,0,44.97,1,1,8008,4004
8456,1.0303e+08,0,0.01167,0.0034051,0.0081968,-0.080643,0.28996,-9.7812,0,0,44.97,1,1,8008,4004
8459,1.0303e+08,0,0.011442,-0.0091308,0.0025493,-0.069147,0.26632,-9.7846,0,0,44.97,1,1,8008,4004
8462,1.0303e+08,0,-0.0028309,-0.0017651,0.00088215,-0.084671,0.24564,-9.7838,0,0,44.97,1,1,8008,4004
8497,1.0304e+08,0,-0.022968,0.017126,0.001189,-0.088493,0.23943,-9.7599,0,0,44.971,1,1,8008,4004
8501,1.0304e+08,0,-0.016897,0.013163,0.00016767,-0.058803,0.25473,-9.7378,0,0,44.971,1,1,8008,4004
8507,1.0304e+08,0,0.012107,-0.010071,-0.0050501,-0.018979,0.27054,-9.7293,0,0,44.971,1,1,8008,4004
8511,1.0304e+08,0,0.019656,-0.013088,-0.0080418,-0.019516,0.26395,-9.7346,0,0,44.971,1,1,8008,4004
8548,1.0305e+08,0,-0.0033404,0.0022395,-0.0087735,-0.012215,0.25061,-9.7341,0,0,44.971,1,1,8008,4004
8552,1.0305e+08,0,-0.0081914,-0.016634,-0.018161,0.063771,0.29934,-9.7436,0,0,44.971,1,1,8008,4004
8555,1.0306e+08,0,0.0088384,-0.017711,-0.020977,0.058684,0.31898,-9.7682,0,0,44.971,1,1,8008,4004
8590,1.0306e+08,0,0.006166,0.00083609,-0.016863,0.060753,0.34301,-9.8219,0,0,44.971,1,1,8008,4004
8594,1.0306e+08,0,-0.0081086,-0.0040516,-0.017167,0.050509,0.34518,-9.8272,0,0,44.971,1,1,8008,4004
8597,1.0307e+08,0,-0.010191,-0.0072322,-0.019843,0.0088987,0.3649,-9.8225,0,0,44.971,1,1,8008,4004
8632,1.0307e+08,0,0.0026662,-0.0037259,-0.021573,-0.019563,0.37507,-9.8088,0,0,44.971,1,1,8008,4004
8635,1.0307e+08,0,0.015139,0.0026457,-0.021702,-0.055777,0.35485,-9.7738,0,0,44.971,1,1,8008,4004
8639,1.0307e+08,0,0.0073347,0.0084495,-0.020503,-0.084591,0.3266,-9.7516,0,0,44.971,1,1,8008,4004
8642,1.0308e+08,0,-0.012866,0.014994,-0.017501,-0.12023,0.29912,-9.7266,0,0,44.972,1,1,8008,4004
8677,1.0308e+08,0,-0.016168,0.0094245,-0.015365,-0.12168,0.29266,-9.7116,0,0,44.972,1,1,8008,4004
8680,1.0308e+08,0,-0.0026281,-0.0049725,-0.014064,-0.11174,0.28652,-9.698,0,0,44.972,1,1,8008,4004
8683,1.0308e+08,0,0.004849,-0.0038112,-0.013169,-0.11586,0.28089,-9.707,0,0,44.972,1,1,8008,4004
8686,1.0309e+08,0,0.0040749,0.011096,-0.010836,-0.11007,0.28107,-9.7435,0,0,44.972,1,1,8008,4004
8689,1.0309e+08,0,-0.0022027,0.0090749,-0.010558,-0.05821,0.29241,-9.7788,0,0,44.972,1,1,8008,4004
8724,1.0309e+08,0,-0.0060335,-0.0063368,-0.012894,-0.022804,0.2996,-9.7933,0,0,44.972,1,1,8008,4004
8728,1.0309e+08,0,-0.0034682,-0.0099224,-0.014023,0.0051269,0.31493,-9.813,0,0,44.972,1,1,8008,4004
8731,1.031e+08,0,0.0031369,-0.005728,-0.01342,0.020156,0.32647,-9.8267,0,0,44.972,1,1,8008,4004
8734,1.031e+08,0,0.010474,0.0070183,-0.012684,0.039963,0.32433,-9.8381,0,0,44.972,1,1,8008,4004
8769,1.031e+08,0,0.0096854,0.011066,-0.013647,0.04316,0.31353,-9.8337,0,0,44.972,1,1,8008,4004
8773,1.031e+08,0,0.0042848,0.009073,-0.016639,0.028744,0.29538,-9.8022,0,0,44.972,1,1,8008,4004
8776,1.0311e+08,0,-0.0011245,0.0081735,-0.017903,0.0071407,0.27366,-9.7625,0,0,44.972,1,1,8008,4004
8779,1.0311e+08,0,-0.011491,0.0096553,-0.01719,-0.028335,0.23744,-9.6914,0,0,44.972,1,1,8008,4004
8814,1.0311e+08,0,-0.0066317,0.0017819,-0.0136,-0.042825,0.23472,-9.6506,0,0,44.972,1,1,8008,4004
8817,1.0312e+08,0,0.0090812,-0.0084649,-0.0093801,-0.055716,0.23727,-9.6645,0,0,44.972,1,1,8008,4004
8821,1.0312e+08,0,0.0067653,-0.0052308,-0.0054403,-0.07029,0.23019,-9.694,0,0,44.972,1,1,8008,4004
8824,1.0312e+08,0,-0.012395,0.0056737,0.0037644,-0.064887,0.24898,-9.7507,0,0,44.973,1,1,8008,4004
8859,1.0312e+08,0,-0.015711,0.00020647,0.0088203,-0.029857,0.28875,-9.7905,0,0,44.973,1,1,8008,4004
8863,1.0312e+08,0,-0.00018641,-0.018308,0.011156,0.02626,0.3476,-9.8495,0,0,44.973,1,1,8008,4004
8867,1.0313e+08,0,0.0078594,-0.017711,0.011679,0.042906,0.37472,-9.8856,0,0,44.973,1,1,8008,4004
8870,1.0313e+08,0,0.0036796,0.0043039,0.014028,0.059658,0.4117,-9.9228,0,0,44.973,1,1,8008,4004
8905,1.0313e+08,0,0.0012154,0.014388,0.014369,0.082995,0.43645,-9.9247,0,0,44.973,1,1,8008,4004
8908,1.0313e+08,0,0.0019831,0.0090549,0.013156,0.10282,0.44646,-9.8596,0,0,44.973,1,1,8008,4004
8911,1.0314e+08,0,0.00053321,0.0023593,0.011678,0.082818,0.4298,-9.7819,0,0,44.974,1,1,8008,4004
8914,1.0314e+08,0,0.0025687,0.002855,0.0095657,0.024334,0.40629,-9.6823,0,0,44.974,1,1,8008,4004
8949,1.0314e+08,0,0.011957,0.0034896,0.0096518,-0.01402,0.39373,-9.6512,0,0,44.974,1,1,8008,4004
8956,1.0315e+08,0,0.024594,-0.0048217,0.010783,-0.069445,0.35506,-9.6555,0,0,44.974,1,1,8008,4004
8960,1.0315e+08,0,0.02161,-0.010655,0.013637,-0.10746,0.32411,-9.678,0,0,44.974,1,1,8008,4004
8963,1.0315e+08,0,0.010074,-0.014299,0.021499,-0.14946,0.29134,-9.7082,0,0,44.974,1,1,8008,4004
8998,1.0315e+08,0,0.0068718,-0.011474,0.025851,-0.16268,0.27248,-9.7354,0,0,44.975,1,1,8008,4004
9001,1.0315e+08,0,0.0072404,0.0025895,0.028665,-0.17057,0.24438,-9.8299,0,0,44.975,1,1,8008,4004
9004,1.0316e+08,0,0.0078626,0.016085,0.027514,-0.16818,0.22777,-9.9093,0,0,44.975,1,1,8008,4004
9007,1.0316e+08,0,0.0027728,0.029926,0.022084,-0.12883,0.19198,-9.959,0,0,44.975,1,1,8008,4004
9042,1.0316e+08,0,-0.0078295,0.025969,0.016801,-0.075032,0.15368,-9.9192,0,0,44.976,1,1,8008,4004
9046,1.0317e+08,0,-0.030215,0.0028709,0.0070015,0.020593,0.098467,-9.7881,0,0,44.976,1,1,8008,4004
9050,1.0317e+08,0,-0.035804,-0.010883,0.0027721,0.07875,0.088027,-9.7085,0,0,44.976,1,1,8008,4004
9053,1.0317e+08,0,-0.014768,-0.017738,0.0049397,0.15774,0.12895,-9.6715,0,0,44.977,1,1,8008,4004
9088,1.0317e+08,0,0.012308,-0.02634,0.013248,0.23596,0.2062,-9.6997,0,0,44.977,1,1,8008,4004
9092,1.0318e+08,0,0.013576,-0.034877,0.018885,0.27013,0.26353,-9.7074,0,0,44.977,1,1,8008,4004
9095,1.0318e+08,0,-0.0070144,-0.026869,0.025919,0.24505,0.36755,-9.6963,0,0,44.978,1,1,8008,4004
9098,1.0318e+08,0,-0.016812,-0.0056814,0.028197,0.18186,0.45648,-9.7037,0,0,44.978,1,1,8008,4004
9133,1.0318e+08,0,0.005985,0.016771,0.020951,0.076104,0.60458,-9.7517,0,0,44.978,1,1,8008,4004
9136,1.0319e+08,0,0.03688,0.012682,0.010578,0.0025568,0.66896,-9.784,0,0,44.978,1,1,8008,4004
9139,1.0319e+08,0,0.046052,0.0029401,-0.0048457,-0.14039,0.64475,-9.7948,0,0,44.979,1,1,8008,4004
9142,1.0319e+08,0,0.018594,0.00532,-0.011227,-0.22986,0.57869,-9.7936,0,0,44.979,1,1,8008,4004
9145,1.0319e+08,0,-0.0076349,0.011664,-0.011981,-0.29876,0.50341,-9.8171,0,0,44.979,1,1,8008,4004
9181,1.032e+08,0,0.027251,-0.0022755,-0.0018748,-0.29428,0.41873,-9.8475,0,0,44.979,1,1,8008,4004
9184,1.032e+08,0,0.051659,-0.014118,0.0069991,-0.26571,0.31987,-9.853,0,0,44.98,1,1,8008,4004
9187,1.032e+08,0,0.034177,-0.0037807,0.018074,-0.21628,0.14618,-9.8237,0,0,44.98,1,1,8008,4004
9190,1.032e+08,0,-0.0046183,0.022461,0.022595,-0.1806,0.049722,-9.7792,0,0,44.98,1,1,8008,4004
9225,1.0321e+08,0,-0.037632,0.041248,0.016804,-0.083756,-0.024832,-9.6911,0,0,44.98,1,1,8008,4004
9229,1.0321e+08,0,-0.029522,0.022966,0.0031544,0.00022901,-0.047462,-9.6184,0,0,44.981,1,1,8008,4004
9232,1.0321e+08,0,-0.02087,-0.0083181,-0.024215,0.080262,-0.093976,-9.532,0,0,44.981,1,1,8008,4004
9235,1.0321e+08,0,-0.039208,-0.0042961,-0.040847,0.11968,-0.071749,-9.5643,0,0,44.981,1,1,8008,4004
9270,1.0322e+08,0,-0.039207,0.00073339,-0.040201,0.16446,0.020081,-9.6467,0,0,44.982,1,1,8008,4004
9274,1.0322e+08,0,-0.013943,-0.019102,-0.025811,0.23157,0.19111,-9.7852,0,0,44.982,1,1,8008,4004
9277,1.0322e+08,0,-0.0017714,-0.029903,-0.012636,0.22617,0.30519,-9.8658,0,0,44.982,1,1,8008,4004
9280,1.0322e+08,0,-0.004012,-0.0098577,0.0093836,0.13728,0.49984,-9.9272,0,0,44.982,1,1,8008,4004
9315,1.0323e+08,0,-0.0015167,0.020718,0.019116,0.034552,0.67653,-9.8801,0,0,44.982,1,1,8008,4004
9318,1.0323e+08,0,0.01191,0.022158,0.013451,-0.026192,0.74763,-9.7923,0,0,44.983,1,1,8008,4004
9321,1.0323e+08,0,0.025982,0.001044,-0.012835,-0.1264,0.74829,-9.6216,0,0,44.983,1,1,8008,4004
9325,1.0323e+08,0,0.026432,-0.0095592,-0.034493,-0.18656,0.69341,-9.5485,0,0,44.983,1,1,8008,4004
9360,1.0324e+08,0,0.033401,-0.0035963,-0.054004,-0.23084,0.58427,-9.5725,0,0,44.983,1,1,8008,4004
9363,1.0324e+08,0,0.044846,0.0016379,-0.05283,-0.21662,0.49093,-9.6472,0,0,44.983,1,1,8008,4004
9366,1.0324e+08,0,0.04687,0.0017199,-0.03406,-0.14743,0.30776,-9.7857,0,0,44.983,1,1,8008,4004
9369,1.0324e+08,0,0.031811,0.0037814,-0.016782,-0.097161,0.19089,-9.8814,0,0,44.984,1,1,8008,4004
9407,1.0325e+08,0,-0.0064497,0.012166,0.0073556,-0.031246,0.050851,-9.9553,0,0,44.984,1,1,8008,4004
9412,1.0325e+08,0,-0.034364,0.0043264,0.013833,0.040962,-0.051925,-9.8758,0,0,44.984,1,1,8008,4004
9417,1.0325e+08,0,-0.044618,-0.00863,0.0056255,0.08035,-0.1024,-9.7615,0,0,44.984,1,1,8008,4004
9420,1.0325e+08,0,-0.048876,-0.022077,-0.019482,0.098012,-0.13489,-9.6232,0,0,44.984,1,1,8008,4004
9455,1.0326e+08,0,-0.011104,-0.010721,-0.044123,0.098059,0.040095,-9.7648,0,0,44.984,1,1,8008,4004
9458,1.0327e+08,0,-0.021492,0.003349,0.0018663,0.044779,0.40401,-9.9855,0,0,44.985,1,1,8008,4004
9493,1.0327e+08,0,-0.022188,0.0050375,0.020773,0.0070054,0.54708,-9.9739,0,0,44.985,1,1,8008,4004
9496,1.0327e+08,0,-0.00093759,-0.0043726,0.031476,-0.06324,0.69221,-9.8436,0,0,44.985,1,1,8008,4004
9500,1.0327e+08,0,0.016219,-0.012068,0.02455,-0.11599,0.7232,-9.7214,0,0,44.985,1,1,8008,4004
9504,1.0328e+08,0,0.035437,-0.012638,-0.0042205,-0.18673,0.69288,-9.6106,0,0,44.985,1,1,8008,4004
9539,1.0328e+08,0,0.048016,0.0021685,-0.031988,-0.21498,0.59809,-9.6513,0,0,44.986,1,1,8008,4004
9542,1.0328e+08,0,0.05264,0.0067071,-0.039472,-0.18766,0.50437,-9.7282,0,0,44.986,1,1,8008,4004
9546,1.0328e+08,0,0.041593,0.0077469,-0.030965,-0.10704,0.32646,-9.8616,0,0,44.986,1,1,8008,4004
9549,1.0329e+08,0,0.021407,0.012681,-0.013854,-0.051052,0.2054,-9.9437,0,0,44.986,1,1,8008,4004
9584,1.0329e+08,0,-0.014734,0.015558,0.018409,0.040903,0.051288,-9.9778,0,0,44.986,1,1,8008,4004
9587,1.0329e+08,0,-0.031764,0.003934,0.033213,0.10849,-0.035685,-9.8955,0,0,44.986,1,1,8008,4004
9590,1.0329e+08,0,-0.045307,-0.024799,0.034731,0.17534,-0.14497,-9.687,0,0,44.986,1,1,8008,4004
9593,1.033e+08,0,-0.048326,-0.035038,0.023189,0.17936,-0.17887,-9.5887,0,0,44.987,1,1,8008,4004
9628,1.033e+08,0,-0.03766,-0.027321,0.00049789,0.15527,-0.12036,-9.5974,0,0,44.987,1,1,8008,4004
9631,1.033e+08,0,-0.010824,-0.014285,-0.010338,0.14269,-0.014274,-9.6745,0,0,44.987,1,1,8008,4004
9634,1.0331e+08,0,-0.0031373,-0.0052473,-0.0065611,0.11146,0.18479,-9.7876,0,0,44.987,1,1,8008,4004
9637,1.0331e+08,0,-0.016936,0.0075606,0.012628,0.049009,0.41819,-9.8751,0,0,44.987,1,1,8008,4004
9672,1.0331e+08,0,-0.020883,0.010549,0.029201,-0.0038127,0.59297,-9.9099,0,0,44.987,1,1,8008,4004
9675,1.0331e+08,0,0.0018399,0.0010576,0.045637,-0.10138,0.79149,-9.8498,0,0,44.987,1,1,8008,4004
9678,1.0331e+08,0,0.023037,-0.0051787,0.042942,-0.17162,0.83795,-9.7591,0,0,44.987,1,1,8008,4004
9682,1.0332e+08,0,0.043118,-0.0022719,0.02102,-0.255,0.80371,-9.6597,0,0,44.988,1,1,8008,4004
9717,1.0332e+08,0,0.051198,0.0097254,-0.0032844,-0.28272,0.67953,-9.6331,0,0,44.988,1,1,8008,4004
9720,1.0332e+08,0,0.056239,0.015311,-0.013503,-0.25784,0.56125,-9.645,0,0,44.988,1,1,8008,4004
9723,1.0333e+08,0,0.054524,0.025837,-0.013505,-0.18027,0.35297,-9.7082,0,0,44.988,1,1,8008,4004
9726,1.0333e+08,0,0.035275,0.032454,-0.0021599,-0.11219,0.20501,-9.7689,0,0,44.988,1,1,8008,4004
9761,1.0333e+08,0,-0.0084103,0.023597,0.023963,0.012943,0.010674,-9.8005,0,0,44.988,1,1,8008,4004
9764,1.0333e+08,0,-0.031523,0.0037729,0.036664,0.087992,-0.09395,-9.7393,0,0,44.988,1,1,8008,4004
9769,1.0333e+08,0,-0.051226,-0.021071,0.036795,0.1483,-0.22385,-9.6123,0,0,44.989,1,1,8008,4004
9773,1.0334e+08,0,-0.055181,-0.021861,0.02473,0.15643,-0.26206,-9.5923,0,0,44.989,1,1,8008,4004
9808,1.0334e+08,0,-0.044164,-0.0087849,0.0029284,0.14316,-0.19522,-9.6887,0,0,44.989,1,1,8008,4004
9811,1.0334e+08,0,-0.028498,0.00035236,-0.0063427,0.12436,-0.084135,-9.7738,0,0,44.989,1,1,8008,4004
9814,1.0334e+08,0,-0.018282,0.015095,-0.0038434,0.076097,0.13049,-9.8532,0,0,44.989,1,1,8008,4004
9817,1.0335e+08,0,-0.025999,0.02095,0.0081056,0.035213,0.30311,-9.8828,0,0,44.989,1,1,8008,4004
9855,1.0335e+08,0,-0.031539,0.011852,0.030419,-0.032546,0.5927,-9.8628,0,0,44.99,1,1,8008,4004
9859,1.0335e+08,0,-0.00065603,-0.01384,0.039646,-0.11378,0.81201,-9.7418,0,0,44.99,1,1,8008,4004
9862,1.0336e+08,0,0.02644,-0.016805,0.031357,-0.17522,0.87066,-9.6787,0,0,44.99,1,1,8008,4004
9866,1.0336e+08,0,0.047098,0.0062331,0.0050864,-0.24397,0.85031,-9.6866,0,0,44.99,1,1,8008,4004
9901,1.0336e+08,0,0.053158,0.021575,-0.014029,-0.24326,0.78887,-9.7177,0,0,44.99,1,1,8008,4004
9904,1.0336e+08,0,0.06452,0.027293,-0.034019,-0.17705,0.63463,-9.7479,0,0,44.99,1,1,8008,4004
9907,1.0337e+08,0,0.059312,0.028671,-0.035129,-0.11596,0.48917,-9.7756,0,0,44.99,1,1,8008,4004
9910,1.0337e+08,0,0.014614,0.021826,-0.017059,0.0075955,0.26048,-9.8275,0,0,44.99,1,1,8008,4004
9945,1.0337e+08,0,-0.015591,-0.0095392,0.0086747,0.14325,0.091713,-9.7875,0,0,44.99,1,1,8008,4004
9948,1.0337e+08,0,-0.021234,-0.031622,0.018175,0.19659,-0.023282,-9.6999,0,0,44.99,1,1,8008,4004
9951,1.0338e+08,0,-0.035258,-0.040017,0.0099986,0.21369,-0.18577,-9.638,0,0,44.991,1,1,8008,4004
9955,1.0338e+08,0,-0.04552,-0.027183,-0.0054822,0.19665,-0.21562,-9.707,0,0,44.991,1,1,8008,4004
9990,1.0338e+08,0,-0.031691,-0.004021,-0.024286,0.13377,-0.1268,-9.8764,0,0,44.991,1,1,8008,4004
9993,1.0338e+08,0,-0.018193,0.0091271,-0.028853,0.073869,-0.030988,-9.9411,0,0,44.991,1,1,8008,4004
9996,1.0339e+08,0,-0.029153,0.017152,-0.021341,-0.014133,0.1511,-9.9585,0,0,44.991,1,1,8008,4004
10000,1.0339e+08,0,-0.050419,0.0073981,-0.0069866,-0.070587,0.31372,-9.9312,0,0,44.991,1,1,8008,4004
10035,1.0339e+08,0,-0.041519,-0.019025,0.014303,-0.17214,0.58224,-9.7895,0,0,44.99,1,1,8008,4004
10038,1.034e+08,0,0.042369,-0.020209,0.0044407,-0.30735,0.78069,-9.6148,0,0,44.99,1,1,8008,4004
10041,1.034e+08,0,0.056955,-0.00011334,-0.01388,-0.32293,0.77614,-9.6764,0,0,44.99,1,1,8008,4004
10076,1.034e+08,0,0.065969,0.031438,-0.037793,-0.28782,0.71202,-9.782,0,0,44.99,1,1,8008,4004
10080,1.034e+08,0,0.063525,0.044298,-0.045771,-0.21431,0.61202,-9.8236,0,0,44.99,1,1,8008,4004
10083,1.0341e+08,0,0.023879,0.031511,-0.040795,-0.030612,0.40041,-9.8635,0,0,44.99,1,1,8008,4004
10087,1.0341e+08,0,-0.0087608,0.0037117,-0.02784,0.10048,0.27781,-9.8605,0,0,44.99,1,1,8008,4004
10090,1.0341e+08,0,-0.020289,-0.027609,-0.0029251,0.2271,0.13095,-9.73,0,0,44.99,1,1,8008,4004
10125,1.0341e+08,0,-0.015129,-0.038798,0.0072491,0.28335,0.012623,-9.5996,0,0,44.99,1,1,8008,4004
10128,1.0342e+08,0,-0.018357,-0.047554,-0.001812,0.33972,-0.13873,-9.5483,0,0,44.99,1,1,8008,4004
10131,1.0342e+08,0,-0.022813,-0.038184,-0.015504,0.30814,-0.15338,-9.6542,0,0,44.989,1,1,8008,4004
10134,1.0342e+08,0,-0.014171,0.0054853,-0.026624,0.17173,-0.06081,-9.8484,0,0,44.989,1,1,8008,4004
10169,1.0342e+08,0,-0.020035,0.035083,-0.023267,0.065918,0.07609,-9.9279,0,0,44.989,1,1,8008,4004
10172,1.0343e+08,0,-0.048751,0.0018589,-0.0094773,-0.014272,0.27922,-9.9198,0,0,44.989,1,1,8008,4004
10176,1.0343e+08,0,-0.053874,-0.020966,0.0024589,-0.11971,0.452,-9.8399,0,0,44.989,1,1,8008,4004
10179,1.0343e+08,0,-0.015577,-0.026231,0.018674,-0.28018,0.67203,-9.6278,0,0,44.989,1,1,8008,4004
10214,1.0343e+08,0,0.027047,-0.02546,0.01764,-0.31548,0.75382,-9.5452,0,0,44.989,1,1,8008,4004
10219,1.0344e+08,0,0.069331,-0.017743,-0.00077188,-0.33085,0.77796,-9.6017,0,0,44.989,1,1,8008,4004
10222,1.0345e+08,0,0.034875,0.056699,-0.02212,-0.059534,0.46266,-9.8186,0,0,44.988,1,1,8008,4004
10258,1.0345e+08,0,0.00020521,-0.016194,-0.015494,0.14211,0.267,-9.7869,0,0,44.988,1,1,8008,4004
10262,1.0345e+08,0,-0.01776,-0.032487,-0.0020771,0.19777,0.14869,-9.68,0,0,44.988,1,1,8008,4004
10268,1.0345e+08,0,-0.021509,-0.033716,0.015678,0.30893,-0.02121,-9.504,0,0,44.988,1,1,8008,4004
10272,1.0346e+08,0,-0.011492,-0.045914,0.014665,0.38062,-0.10713,-9.5024,0,0,44.988,1,1,8008,4004
10307,1.0346e+08,0,0.001798,-0.029143,0.0039335,0.30075,-0.13821,-9.6883,0,0,44.987,1,1,8008,4004
10310,1.0346e+08,0,-0.0050696,0.05009,0.0014402,0.10694,-0.068487,-9.8745,0,0,44.987,1,1,8008,4004
10313,1.0346e+08,0,-0.022582,0.068665,0.0012641,0.056093,0.01121,-9.9466,0,0,44.987,1,1,8008,4004
10316,1.0347e+08,0,-0.047276,0.0064555,0.00029984,0.0024557,0.18965,-9.9804,0,0,44.987,1,1,8008,4004
10351,1.0347e+08,0,-0.052951,-0.026615,0.011817,-0.21607,0.40208,-9.8517,0,0,44.987,1,1,8008,4004
10356,1.0347e+08,0,-0.035939,-0.0087849,0.025505,-0.33542,0.5278,-9.7038,0,0,44.987,1,1,8008,4004
10359,1.0347e+08,0,0.022985,-0.01186,0.031549,-0.32117,0.64815,-9.5802,0,0,44.987,1,1,8008,4004
10362,1.0348e+08,0,0.060838,-0.026112,0.024064,-0.29963,0.66885,-9.6168,0,0,44.987,1,1,8008,4004
10397,1.0348e+08,0,0.073299,0.027609,0.013294,-0.34789,0.63106,-9.7453,0,0,44.986,1,1,8008,4004
10401,1.0348e+08,0,0.05312,0.08501,0.011748,-0.29255,0.57155,-9.8117,0,0,44.986,1,1,8008,4004
10404,1.0348e+08,0,0.017979,0.0684,0.0041772,0.0091324,0.44325,-9.8545,0,0,44.986,1,1,8008,4004
10407,1.0349e+08,0,0.00036813,0.0057093,-0.0033189,0.18735,0.34505,-9.8322,0,0,44.986,1,1,8008,4004
10444,1.0349e+08,0,-0.019586,-0.041444,0.0010643,0.28109,0.21022,-9.6968,0,0,44.986,1,1,8008,4004
10447,1.0349e+08,0,-0.023288,-0.041793,0.011841,0.34751,0.13074,-9.5828,0,0,44.986,1,1,8008,4004
10450,1.035e+08,0,0.015762,-0.048382,0.011217,0.37819,0.014853,-9.7516,0,0,44.986,1,1,8008,4004
10485,1.035e+08,0,0.012695,0.013093,0.012203,0.20405,0.04277,-9.8823,0,0,44.986,1,1,8008,4004
10489,1.035e+08,0,-0.014851,0.069153,0.011926,0.051697,0.11716,-9.9906,0,0,44.986,1,1,8008,4004
10492,1.035e+08,0,-0.028552,0.033423,0.0054598,0.0021319,0.20035,-10.007,0,0,44.986,1,1,8008,4004
10495,1.0351e+08,0,-0.035732,-0.030455,0.0013881,-0.21463,0.34534,-9.9068,0,0,44.986,1,1,8008,4004
10530,1.0351e+08,0,-0.026153,-0.022058,0.013872,-0.44353,0.46085,-9.699,0,0,44.986,1,1,8008,4004
10533,1.0351e+08,0,-0.0029054,-0.021147,0.021153,-0.45158,0.51016,-9.6089,0,0,44.986,1,1,8008,4004
10536,1.0352e+08,0,0.050624,-0.036363,0.020082,-0.41133,0.53403,-9.6417,0,0,44.986,1,1,8008,4004
10540,1.0352e+08,0,0.073015,-0.00013377,0.018122,-0.44286,0.5106,-9.7357,0,0,44.986,1,1,8008,4004
10575,1.0352e+08,0,0.049205,0.09173,0.017938,-0.36713,0.40524,-9.8548,0,0,44.986,1,1,8008,4004
10579,1.0352e+08,0,0.011822,0.090333,0.011324,-0.15331,0.31571,-9.8862,0,0,44.986,1,1,8008,4004
10582,1.0352e+08,0,-0.024984,0.005011,-0.0070279,0.14137,0.20581,-9.8471,0,0,44.986,1,1,8008,4004
10585,1.0353e+08,0,-0.032196,-0.032029,-0.011361,0.21937,0.14743,-9.7533,0,0,44.986,1,1,8008,4004
10620,1.0353e+08,0,-0.028898,-0.047919,-0.0053624,0.35623,0.06809,-9.5833,0,0,44.986,1,1,8008,4004
10623,1.0353e+08,0,-0.0090803,-0.077478,-0.0041946,0.49797,0.030752,-9.5752,0,0,44.985,1,1,8008,4004
10626,1.0354e+08,0,0.0079105,-0.065316,-0.0055538,0.43346,0.061834,-9.697,0,0,44.985,1,1,8008,4004
10629,1.0354e+08,0,0.010386,0.023382,0.00027367,0.19987,0.1528,-9.8949,0,0,44.985,1,1,8008,4004
10664,1.0354e+08,0,-0.018213,0.058348,-0.0030177,0.07764,0.24524,-9.9659,0,0,44.985,1,1,8008,4004
10668,1.0354e+08,0,-0.034139,0.022427,-0.014625,-0.0057655,0.33176,-9.9444,0,0,44.985,1,1,8008,4004
10671,1.0355e+08,0,-0.031012,-0.017723,-0.022168,-0.26629,0.48398,-9.8002,0,0,44.985,1,1,8008,4004
10674,1.0355e+08,0,-0.012842,-0.017478,-0.015942,-0.40663,0.55483,-9.6536,0,0,44.985,1,1,8008,4004
10709,1.0355e+08,0,0.021052,-0.033227,-0.0063875,-0.42389,0.57396,-9.5273,0,0,44.985,1,1,8008,4004
10713,1.0355e+08,0,0.044263,-0.038092,-0.0043635,-0.41884,0.56128,-9.5756,0,0,44.985,1,1,8008,4004
10720,1.0356e+08,0,0.067966,0.021432,0.002704,-0.44895,0.52266,-9.7617,0,0,44.985,1,1,8008,4004
10724,1.0356e+08,0,0.057867,0.070281,0.00799,-0.36387,0.43952,-9.8587,0,0,44.985,1,1,8008,4004
10727,1.0356e+08,0,0.0063067,0.056785,-0.0010847,-0.054012,0.26412,-9.8823,0,0,44.985,1,1,8008,4004
10762,1.0356e+08,0,-0.030164,0.013319,-0.012778,0.11535,0.17843,-9.8248,0,0,44.985,1,1,8008,4004
10765,1.0357e+08,0,-0.04164,-0.024142,-0.017986,0.24833,0.11327,-9.6525,0,0,44.985,1,1,8008,4004
10768,1.0357e+08,0,-0.025504,-0.041816,-0.015788,0.35059,0.071767,-9.5373,0,0,44.985,1,1,8008,4004
10771,1.0357e+08,0,-0.0054451,-0.063802,-0.018079,0.44197,0.020219,-9.5544,0,0,44.985,1,1,8008,4004
10806,1.0357e+08,0,0.012778,-0.025475,-0.016888,0.30061,0.11154,-9.8081,0,0,44.984,1,1,8008,4004
10810,1.0358e+08,0,0.01484,0.032543,-0.0077886,0.12791,0.2191,-9.9706,0,0,44.984,1,1,8008,4004
10813,1.0358e+08,0,-0.013058,0.033712,-0.011774,0.048454,0.24054,-9.9711,0,0,44.984,1,1,8008,4004
10816,1.0358e+08,0,-0.063601,0.0024199,-0.024846,-0.13983,0.34283,-9.8999,0,0,44.984,1,1,8008,4004
10851,1.0358e+08,0,-0.054356,-0.0023163,-0.023787,-0.31154,0.46879,-9.8072,0,0,44.984,1,1,8008,4004
10854,1.0359e+08,0,0.010241,0.0028914,-0.011434,-0.47016,0.5551,-9.6163,0,0,44.984,1,1,8008,4004
10857,1.0359e+08,0,0.038834,-0.0033132,-0.006274,-0.48659,0.5189,-9.5639,0,0,44.984,1,1,8008,4004
10860,1.0359e+08,0,0.048712,0.0001562,-0.0010181,-0.48147,0.48493,-9.6868,0,0,44.984,1,1,8008,4004
10895,1.036e+08,0,0.051239,0.023106,0.0043428,-0.44461,0.46744,-9.8063,0,0,44.984,1,1,8008,4004
10899,1.036e+08,0,0.023116,0.04571,0.0075841,-0.22987,0.31931,-9.8987,0,0,44.984,1,1,8008,4004
10902,1.036e+08,0,-0.016766,0.031204,0.00056067,-0.018798,0.20812,-9.902,0,0,44.984,1,1,8008,4004
10905,1.036e+08,0,-0.053635,0.0011361,-0.0060309,0.22508,0.15074,-9.8196,0,0,44.984,1,1,8008,4004
10940,1.036e+08,0,-0.037331,-0.011103,-0.0020369,0.33522,0.13997,-9.6941,0,0,44.984,1,1,8008,4004
10944,1.0361e+08,0,-0.012301,-0.034951,0.0017494,0.47728,0.073578,-9.5218,0,0,44.984,1,1,8008,4004
10947,1.0361e+08,0,-0.018719,-0.039598,-0.0026682,0.48946,0.049616,-9.5545,0,0,44.984,1,1,8008,4004
10950,1.0361e+08,0,-0.0042562,-0.014898,-0.0087761,0.35429,0.18846,-9.8257,0,0,44.984,1,1,8008,4004
10985,1.0362e+08,0,0.027467,0.0017073,-0.0072392,0.20409,0.33514,-10.012,0,0,44.984,1,1,8008,4004
10989,1.0362e+08,0,-0.023172,-0.0042081,-0.012167,0.029257,0.35439,-9.9821,0,0,44.984,1,1,8008,4004
10992,1.0362e+08,0,-0.070466,-0.0011438,-0.010767,-0.12713,0.43355,-9.9164,0,0,44.984,1,1,8008,4004
10995,1.0362e+08,0,-0.041891,0.0068334,0.0069565,-0.33765,0.62384,-9.7541,0,0,44.984,1,1,8008,4004
11030,1.0363e+08,0,0.042341,0.0030281,0.021061,-0.46499,0.62124,-9.5811,0,0,44.984,1,1,8008,4004
11034,1.0363e+08,0,0.061857,0.0097125,0.020946,-0.51633,0.54952,-9.5861,0,0,44.985,1,1,8008,4004
11037,1.0363e+08,0,0.060075,0.029991,0.018405,-0.4981,0.49973,-9.742,0,0,44.985,1,1,8008,4004
11040,1.0363e+08,0,0.051827,0.032253,0.016554,-0.38972,0.42635,-9.8115,0,0,44.985,1,1,8008,4004
11075,1.0364e+08,0,-0.0081357,0.014404,0.0058577,-0.12968,0.19691,-9.8278,0,0,44.985,1,1,8008,4004
11078,1.0364e+08,0,-0.057506,0.002531,0.00026902,0.0493,0.10004,-9.8222,0,0,44.985,1,1,8008,4004
11081,1.0364e+08,0,-0.055135,-0.00064108,0.0087261,0.27334,0.099742,-9.7509,0,0,44.985,1,1,8008,4004
11086,1.0364e+08,0,-0.0089657,-0.008945,0.019878,0.39357,0.093561,-9.6351,0,0,44.985,1,1,8008,4004
11089,1.0365e+08,0,0.0098448,-0.026182,0.026046,0.47771,0.02267,-9.5197,0,0,44.985,1,1,8008,4004
11125,1.0365e+08,0,-0.02067,-0.0079057,0.007272,0.2925,0.21724,-9.8192,0,0,44.985,1,1,8008,4004
11128,1.0365e+08,0,-0.0020685,-0.0091391,-0.0037734,0.18842,0.32393,-9.9049,0,0,44.985,1,1,8008,4004
11134,1.0366e+08,0,-0.040962,0.003402,-0.017132,-0.22438,0.51992,-9.7903,0,0,44.985,1,1,8008,4004
11139,1.0366e+08,0,-0.020624,0.0053041,1.0367e-05,-0.32765,0.62885,-9.7001,0,0,44.985,1,1,8008,4004
11172,1.0366e+08,0,0.041401,0.0015311,0.025715,-0.43739,0.66048,-9.5792,0,0,44.985,1,1,8008,4004
11175,1.0367e+08,0,0.062246,0.014477,0.034452,-0.48131,0.61041,-9.6038,0,0,44.985,1,1,8008,4004
11179,1.0367e+08,0,0.063246,0.032413,0.034259,-0.42512,0.5412,-9.7577,0,0,44.985,1,1,8008,4004
11182,1.0367e+08,0,0.051218,0.023704,0.025404,-0.29674,0.4538,-9.8039,0,0,44.986,1,1,8008,4004
11215,1.0367e+08,0,0.0012951,0.0029099,0.0019314,-0.057501,0.23221,-9.7546,0,0,44.986,1,1,8008,4004
11218,1.0368e+08,0,-0.048515,-0.0059694,-0.010338,0.19193,0.095062,-9.7123,0,0,44.986,1,1,8008,4004
11221,1.0368e+08,0,-0.037128,-0.014556,-0.0059526,0.3514,0.090626,-9.7052,0,0,44.986,1,1,8008,4004
11226,1.0368e+08,0,0.016986,-0.031134,0.011137,0.49068,0.089248,-9.6593,0,0,44.986,1,1,8008,4004
11259,1.0368e+08,0,0.023635,-0.0262,0.021373,0.48712,0.063641,-9.646,0,0,44.986,1,1,8008,4004
11262,1.0369e+08,0,-0.0094249,-0.0039481,0.019449,0.38904,0.10689,-9.7714,0,0,44.986,1,1,8008,4004
11265,1.0369e+08,0,-0.019606,-0.0025234,0.0064207,0.29,0.20674,-9.8992,0,0,44.985,1,1,8008,4004
11268,1.0369e+08,0,-0.0073716,-0.016897,-0.021519,0.081266,0.32831,-9.9639,0,0,44.985,1,1,8008,4004
11301,1.0369e+08,0,-0.0080091,-0.016791,-0.036386,-0.083639,0.37267,-9.9201,0,0,44.985,1,1,8008,4004
11304,1.037e+08,0,-0.012983,-0.0025985,-0.03421,-0.28906,0.48257,-9.8332,0,0,44.985,1,1,8008,4004
11307,1.037e+08,0,0.0055531,0.0030381,-0.017054,-0.38888,0.56594,-9.7642,0,0,44.985,1,1,8008,4004
11311,1.037e+08,0,0.044195,0.012428,0.013283,-0.50287,0.57723,-9.6679,0,0,44.985,1,1,8008,4004
11344,1.037e+08,0,0.051496,0.032017,0.024726,-0.53131,0.52105,-9.6927,0,0,44.985,1,1,8008,4004
11347,1.0371e+08,0,0.044743,0.042519,0.023304,-0.43354,0.4253,-9.8452,0,0,44.985,1,1,8008,4004
11350,1.0371e+08,0,0.037895,0.022818,0.010112,-0.28874,0.33057,-9.8984,0,0,44.985,1,1,8008,4004
11354,1.0371e+08,0,0.0022575,-0.0024871,-0.01622,-0.042903,0.11855,-9.8207,0,0,44.985,1,1,8008,4004
11357,1.0371e+08,0,-0.038293,-0.0082422,-0.025258,0.13047,0.0033346,-9.7424,0,0,44.985,1,1,8008,4004
11390,1.0372e+08,0,-0.045596,-0.020738,-0.020541,0.38884,-0.0063829,-9.7001,0,0,44.985,1,1,8008,4004
11393,1.0372e+08,0,-0.004406,-0.034815,-0.0079254,0.49588,0.041485,-9.6962,0,0,44.985,1,1,8008,4004
11396,1.0372e+08,0,0.025401,-0.019817,0.012608,0.48957,0.047071,-9.7117,0,0,44.985,1,1,8008,4004
11399,1.0372e+08,0,-0.0051394,0.0054732,0.015523,0.42431,0.059783,-9.7834,0,0,44.985,1,1,8008,4004
11432,1.0373e+08,0,-0.038182,0.0085973,-0.0031637,0.29549,0.21572,-9.9396,0,0,44.985,1,1,8008,4004
11435,1.0373e+08,0,-0.010739,-0.016004,-0.035602,0.075172,0.36443,-9.9376,0,0,44.986,1,1,8008,4004
11439,1.0373e+08,0,-0.01019,-0.015991,-0.049707,-0.10092,0.39369,-9.8456,0,0,44.986,1,1,8008,4004
11442,1.0374e+08,0,-0.017348,-0.0099855,-0.038847,-0.2871,0.49478,-9.7411,0,0,44.986,1,1,8008,4004
11475,1.0374e+08,0,0.023596,-0.013131,-0.015477,-0.40572,0.64079,-9.6792,0,0,44.986,1,1,8008,4004
11478,1.0374e+08,0,0.059991,0.0031884,0.0097124,-0.48679,0.62852,-9.6409,0,0,44.986,1,1,8008,4004
11481,1.0374e+08,0,0.049904,0.053423,0.029387,-0.4978,0.50254,-9.7,0,0,44.986,1,1,8008,4004
11484,1.0375e+08,0,0.021075,0.041165,0.018667,-0.38078,0.43533,-9.7906,0,0,44.986,1,1,8008,4004
11517,1.0375e+08,0,0.015875,0.0062954,-0.0011263,-0.14199,0.29504,-9.8136,0,0,44.986,1,1,8008,4004
11520,1.0375e+08,0,-0.0025209,-0.011773,-0.020577,-0.002645,0.14518,-9.7381,0,0,44.986,1,1,8008,4004
11525,1.0375e+08,0,-0.052028,-0.012346,-0.031152,0.23931,-0.010412,-9.6316,0,0,44.986,1,1,8008,4004
11528,1.0376e+08,0,-0.025718,-0.041289,-0.017171,0.41777,0.0036015,-9.6171,0,0,44.986,1,1,8008,4004
11561,1.0376e+08,0,0.018211,-0.051778,-0.00013338,0.52639,0.064458,-9.6254,0,0,44.986,1,1,8008,4004
11567,1.0376e+08,0,0.0053891,-0.0019543,0.021985,0.46071,0.052924,-9.6472,0,0,44.986,1,1,8008,4004
11571,1.0376e+08,0,-0.036838,0.028011,0.022888,0.33209,0.097939,-9.7802,0,0,44.987,1,1,8008,4004
11574,1.0377e+08,0,-0.030837,0.0061416,-0.0026234,0.24819,0.22541,-9.8944,0,0,44.987,1,1,8008,4004
11607,1.0377e+08,0,0.00045622,-0.0164,-0.026161,-0.00052778,0.36514,-9.9025,0,0,44.987,1,1,8008,4004
11610,1.0377e+08,0,-0.014077,-0.0078155,-0.045194,-0.20696,0.37367,-9.8062,0,0,44.987,1,1,8008,4004
11614,1.0377e+08,0,-0.034205,-0.0046304,-0.039165,-0.37752,0.45242,-9.6917,0,0,44.987,1,1,8008,4004
11617,1.0378e+08,0,0.013823,-0.020549,-0.0073529,-0.42573,0.56297,-9.6661,0,0,44.987,1,1,8008,4004
11650,1.0378e+08,0,0.058618,-3.4179e-05,0.019984,-0.54034,0.59451,-9.6482,0,0,44.987,1,1,8008,4004
11654,1.0378e+08,0,0.049065,0.067854,0.046224,-0.54086,0.46148,-9.7114,0,0,44.987,1,1,8008,4004
11657,1.0378e+08,0,0.020019,0.068678,0.044431,-0.38312,0.38772,-9.7909,0,0,44.987,1,1,8008,4004
11660,1.0379e+08,0,0.0044707,0.0063469,0.015186,-0.10929,0.25966,-9.8114,0,0,44.988,1,1,8008,4004
11693,1.0379e+08,0,-0.030433,-0.016687,-0.013197,0.08905,0.060543,-9.7113,0,0,44.988,1,1,8008,4004
11696,1.0379e+08,0,-0.059475,-0.017057,-0.018532,0.26971,-0.0047943,-9.6709,0,0,44.988,1,1,8008,4004
11700,1.0379e+08,0,-0.028929,-0.044183,-0.0076749,0.52464,0.061549,-9.6901,0,0,44.988,1,1,8008,4004
11703,1.038e+08,0,0.029653,-0.033493,0.018477,0.54507,0.11437,-9.7144,0,0,44.988,1,1,8008,4004
11736,1.038e+08,0,0.0091066,0.0063612,0.032823,0.42361,0.12287,-9.7483,0,0,44.988,1,1,8008,4004
11739,1.038e+08,0,-0.052087,0.022441,0.025812,0.35441,0.16708,-9.8104,0,0,44.988,1,1,8008,4004
11744,1.038e+08,0,-0.040609,-0.0036672,0.0034233,0.18548,0.35536,-9.9289,0,0,44.988,1,1,8008,4004
11747,1.0381e+08,0,-0.001013,-0.019328,-0.019863,-0.024941,0.45842,-9.9363,0,0,44.988,1,1,8008,4004
11780,1.0381e+08,0,0.01299,-0.0071803,-0.035865,-0.29836,0.49605,-9.8467,0,0,44.988,1,1,8008,4004
11783,1.0381e+08,0,-0.0094846,-0.015642,-0.024337,-0.39502,0.5576,-9.7873,0,0,44.988,1,1,8008,4004
11786,1.0381e+08,0,0.0211,-0.0098734,0.010678,-0.46606,0.61449,-9.7745,0,0,44.989,1,1,8008,4004
11789,1.0382e+08,0,0.047492,0.057149,0.047584,-0.58304,0.5833,-9.7609,0,0,44.989,1,1,8008,4004
11822,1.0382e+08,0,0.0368,0.074755,0.053454,-0.53899,0.48737,-9.7719,0,0,44.989,1,1,8008,4004
11825,1.0382e+08,0,0.026553,0.044428,0.040772,-0.38032,0.38756,-9.7999,0,0,44.989,1,1,8008,4004
11829,1.0382e+08,0,0.016116,-0.0088144,0.0076649,-0.13947,0.24658,-9.7995,0,0,44.989,1,1,8008,4004
11832,1.0383e+08,0,-0.015733,-0.013277,-0.0072524,-0.023009,0.11774,-9.7498,0,0,44.989,1,1,8008,4004
11865,1.0383e+08,0,-0.059429,-0.025711,-0.01322,0.23073,-0.03045,-9.7031,0,0,44.989,1,1,8008,4004
11868,1.0383e+08,0,-0.01672,-0.052507,0.00061443,0.47059,0.025644,-9.7386,0,0,44.989,1,1,8008,4004
11871,1.0383e+08,0,0.020639,-0.031451,0.019439,0.47627,0.095404,-9.7562,0,0,44.989,1,1,8008,4004
11874,1.0384e+08,0,0.011603,0.012605,0.035682,0.39856,0.12244,-9.7458,0,0,44.989,1,1,8008,4004
11907,1.0384e+08,0,-0.045613,0.0339,0.029186,0.29145,0.16587,-9.7596,0,0,44.989,1,1,8008,4004
11910,1.0384e+08,0,-0.016985,-0.0013914,-0.0086025,0.11574,0.35224,-9.8537,0,0,44.989,1,1,8008,4004
11914,1.0384e+08,0,0.022241,-0.012645,-0.030299,-0.086295,0.47127,-9.881,0,0,44.989,1,1,8008,4004
11919,1.0385e+08,0,0.012674,-0.015786,-0.041916,-0.32961,0.50339,-9.8251,0,0,44.989,1,1,8008,4004
11952,1.0385e+08,0,0.028342,0.012147,0.019476,-0.49005,0.62516,-9.767,0,0,44.989,1,1,8008,4004
11955,1.0386e+08,0,0.048129,0.061151,0.049548,-0.47734,0.54987,-9.7245,0,0,44.989,1,1,8008,4004
11958,1.0386e+08,0,0.020164,0.024532,0.015534,-0.14071,0.30256,-9.7576,0,0,44.989,1,1,8008,4004
11996,1.0386e+08,0,0.0010418,-0.0091979,-0.01542,0.063924,0.16325,-9.7133,0,0,44.989,1,1,8008,4004
12002,1.0387e+08,0,-0.029534,-0.036415,-0.028628,0.33924,0.0076853,-9.6563,0,0,44.989,1,1,8008,4004
12005,1.0387e+08,0,-0.03857,-0.065312,-0.025233,0.48841,0.013248,-9.6786,0,0,44.989,1,1,8008,4004
12008,1.0387e+08,0,-0.0053591,-0.048363,-0.0062825,0.53159,0.097961,-9.7258,0,0,44.989,1,1,8008,4004
12043,1.0387e+08,0,0.017671,0.009216,0.024621,0.45743,0.1967,-9.7524,0,0,44.989,1,1,8008,4004
12047,1.0388e+08,0,-0.012126,0.030555,0.027205,0.38359,0.21095,-9.7591,0,0,44.989,1,1,8008,4004
12050,1.0388e+08,0,-0.03364,0.026253,-0.0016833,0.17895,0.30533,-9.8108,0,0,44.989,1,1,8008,4004
12053,1.0388e+08,0,-0.00053996,0.012063,-0.027138,-0.02654,0.43051,-9.8292,0,0,44.989,1,1,8008,4004
12088,1.0388e+08,0,0.032436,-0.023681,-0.052852,-0.27799,0.51874,-9.7672,0,0,44.989,1,1,8008,4004
12091,1.0389e+08,0,0.0094401,-0.048049,-0.052604,-0.39764,0.49855,-9.7253,0,0,44.989,1,1,8008,4004
12095,1.0389e+08,0,0.0073887,-0.02608,-0.029422,-0.46931,0.53527,-9.7608,0,0,44.989,1,1,8008,4004
12098,1.0389e+08,0,0.029156,0.047126,0.023585,-0.539,0.56829,-9.7973,0,0,44.989,1,1,8008,4004
12133,1.0389e+08,0,0.016099,0.074581,0.045418,-0.3519,0.35023,-9.7565,0,0,44.988,1,1,8008,4004
12137,1.039e+08,0,0.0079104,0.053147,0.033552,-0.28042,0.29827,-9.7582,0,0,44.988,1,1,8008,4004
12140,1.039e+08,0,0.022259,0.0066882,-0.00067886,-0.090963,0.19739,-9.7529,0,0,44.988,1,1,8008,4004
12143,1.039e+08,0,0.011892,-0.019134,-0.0215,0.050778,0.10346,-9.7088,0,0,44.988,1,1,8008,4004
12178,1.0391e+08,0,-0.039245,-0.053567,-0.036677,0.39599,-0.034281,-9.6912,0,0,44.988,1,1,8008,4004
12181,1.0391e+08,0,-0.035363,-0.055601,-0.020267,0.48966,0.043958,-9.7552,0,0,44.988,1,1,8008,4004
12184,1.0391e+08,0,-0.0038474,-0.031197,0.0044501,0.48338,0.19549,-9.8009,0,0,44.988,1,1,8008,4004
12187,1.0391e+08,0,-0.01368,0.020317,0.028346,0.41536,0.21859,-9.7779,0,0,44.988,1,1,8008,4004
12222,1.0392e+08,0,-0.04138,0.043477,0.010445,0.13817,0.33733,-9.838,0,0,44.988,1,1,8008,4004
12227,1.0392e+08,0,-0.0021171,0.030127,-0.015423,0.047468,0.41293,-9.8699,0,0,44.988,1,1,8008,4004
12231,1.0392e+08,0,0.052909,-0.013791,-0.048624,-0.20076,0.55339,-9.8633,0,0,44.987,1,1,8008,4004
12234,1.0392e+08,0,0.025655,-0.037863,-0.058396,-0.31417,0.51451,-9.7937,0,0,44.987,1,1,8008,4004
12269,1.0393e+08,0,-0.021707,-0.036803,-0.04055,-0.42698,0.5381,-9.7916,0,0,44.987,1,1,8008,4004
12272,1.0393e+08,0,0.025289,0.01247,0.012056,-0.44214,0.5994,-9.8315,0,0,44.987,1,1,8008,4004
12275,1.0393e+08,0,0.044342,0.053745,0.04341,-0.38536,0.47784,-9.7971,0,0,44.987,1,1,8008,4004
12278,1.0393e+08,0,0.0020179,0.076152,0.052859,-0.2168,0.25034,-9.7591,0,0,44.987,1,1,8008,4004
12313,1.0394e+08,0,-0.0088122,0.049526,0.033769,-0.073687,0.18366,-9.7684,0,0,44.987,1,1,8008,4004
12317,1.0394e+08,0,0.017092,-0.017927,-0.0063655,0.14553,0.076434,-9.7322,0,0,44.987,1,1,8008,4004
12320,1.0394e+08,0,0.0069574,-0.050905,-0.027285,0.28568,-0.035836,-9.6971,0,0,44.987,1,1,8008,4004
12323,1.0394e+08,0,-0.0433,-0.054495,-0.033303,0.4452,-0.051462,-9.7424,0,0,44.987,1,1,8008,4004
12358,1.0395e+08,0,-0.041544,-0.03825,-0.014679,0.49321,0.069696,-9.8095,0,0,44.987,1,1,8008,4004
12362,1.0395e+08,0,-0.0012235,-0.010754,0.026165,0.44794,0.2185,-9.8038,0,0,44.987,1,1,8008,4004
12365,1.0395e+08,0,-0.011208,0.016609,0.040306,0.32006,0.23591,-9.7512,0,0,44.987,1,1,8008,4004
12368,1.0395e+08,0,-0.04177,0.044876,0.025799,0.050918,0.33444,-9.7604,0,0,44.987,1,1,8008,4004
12403,1.0396e+08,0,0.024804,0.012465,-0.014345,-0.18323,0.51922,-9.8049,0,0,44.987,1,1,8008,4004
12406,1.0396e+08,0,0.058212,-0.025987,-0.039524,-0.31172,0.51593,-9.7809,0,0,44.987,1,1,8008,4004
12409,1.0396e+08,0,0.0077861,-0.036837,-0.052093,-0.46323,0.42791,-9.7744,0,0,44.986,1,1,8008,4004
12412,1.0396e+08,0,-0.026374,-0.0072528,-0.033107,-0.50408,0.46717,-9.8246,0,0,44.986,1,1,8008,4004
12450,1.0397e+08,0,0.011048,0.03808,0.023546,-0.44236,0.51893,-9.8229,0,0,44.986,1,1,8008,4004
12455,1.0397e+08,0,0.033191,0.047582,0.055114,-0.34158,0.40853,-9.7276,0,0,44.986,1,1,8008,4004
12458,1.0397e+08,0,-0.0038727,0.041655,0.063651,-0.16477,0.18638,-9.633,0,0,44.986,1,1,8008,4004
12461,1.0397e+08,0,-0.01471,0.023543,0.045686,-0.032852,0.12855,-9.6564,0,0,44.986,1,1,8008,4004
12496,1.0398e+08,0,0.013473,-0.01929,0.0051832,0.20054,0.044246,-9.6879,0,0,44.986,1,1,8008,4004
12499,1.0398e+08,0,-0.0053839,-0.054527,-0.026213,0.42156,-0.08097,-9.7063,0,0,44.986,1,1,8008,4004
12503,1.0398e+08,0,-0.040605,-0.04874,-0.028308,0.50007,-0.058951,-9.7544,0,0,44.986,1,1,8008,4004
12506,1.0399e+08,0,-0.041528,-0.018475,0.0030567,0.51088,0.13076,-9.8098,0,0,44.986,1,1,8008,4004
12543,1.0399e+08,0,-0.011154,-0.0050112,0.038173,0.42068,0.2742,-9.7527,0,0,44.986,1,1,8008,4004
12547,1.0399e+08,0,-0.017072,-0.0010894,0.041558,0.276,0.32668,-9.7292,0,0,44.986,1,1,8008,4004
12550,1.0399e+08,0,-0.002366,0.0059149,0.015948,-0.021508,0.49348,-9.8022,0,0,44.987,1,1,8008,4004
12553,1.04e+08,0,0.038893,0.00034761,-0.0090417,-0.19551,0.59743,-9.8303,0,0,44.987,1,1,8008,4004
12588,1.04e+08,0,0.038816,-0.023808,-0.039787,-0.36374,0.54193,-9.7839,0,0,44.987,1,1,8008,4004
12591,1.04e+08,0,-0.0040194,-0.026844,-0.046962,-0.43564,0.48711,-9.7825,0,0,44.987,1,1,8008,4004
12595,1.04e+08,0,-0.010987,0.0078708,-0.020235,-0.4956,0.54485,-9.8494,0,0,44.987,1,1,8008,4004
12598,1.0401e+08,0,0.027267,0.034561,0.01518,-0.46572,0.52681,-9.8344,0,0,44.987,1,1,8008,4004
12633,1.0401e+08,0,0.028923,0.040549,0.051976,-0.30133,0.29671,-9.7082,0,0,44.987,1,1,8008,4004
12637,1.0401e+08,0,-0.014224,0.015874,0.046148,-0.10623,0.12953,-9.6729,0,0,44.987,1,1,8008,4004
12640,1.0401e+08,0,-0.00078502,-0.0055768,0.0266,0.016814,0.1032,-9.7152,0,0,44.987,1,1,8008,4004
12643,1.0402e+08,0,0.019065,-0.028889,-0.0061844,0.22599,-0.00039961,-9.7595,0,0,44.987,1,1,8008,4004
12678,1.0402e+08,0,-0.036498,-0.031473,-0.023305,0.39997,-0.069066,-9.802,0,0,44.987,1,1,8008,4004
12683,1.0402e+08,0,-0.059532,-0.018402,-0.017699,0.43953,0.030204,-9.8381,0,0,44.987,1,1,8008,4004
12686,1.0402e+08,0,-0.024404,-0.01071,0.0099487,0.40775,0.23498,-9.8045,0,0,44.987,1,1,8008,4004
12689,1.0403e+08,0,-0.0084589,-0.01238,0.023053,0.32923,0.28975,-9.7347,0,0,44.987,1,1,8008,4004
12724,1.0403e+08,0,-0.024962,-0.00093169,0.014435,0.098364,0.37194,-9.7342,0,0,44.987,1,1,8008,4004
12727,1.0403e+08,0,-0.0033544,0.0080333,-0.0047845,-0.085272,0.50774,-9.8268,0,0,44.987,1,1,8008,4004
12732,1.0403e+08,0,0.066578,0.002998,-0.034588,-0.29731,0.63314,-9.9161,0,0,44.987,1,1,8008,4004
12735,1.0404e+08,0,0.055463,-0.0026415,-0.046428,-0.39116,0.57444,-9.8937,0,0,44.988,1,1,8008,4004
12770,1.0404e+08,0,-0.020288,0.011843,-0.039978,-0.47637,0.52421,-9.8461,0,0,44.988,1,1,8008,4004
12774,1.0405e+08,0,0.025773,0.018552,0.0346,-0.22386,0.25604,-9.6163,0,0,44.988,1,1,8008,4004
12809,1.0405e+08,0,0.0037797,0.012712,0.017121,-0.029505,0.13955,-9.6988,0,0,44.988,1,1,8008,4004
12814,1.0405e+08,0,0.018037,-0.0016408,8.3068e-05,0.12429,0.095788,-9.7611,0,0,44.988,1,1,8008,4004
12817,1.0406e+08,0,-0.0044445,-0.019311,-0.020799,0.33322,-0.035256,-9.7874,0,0,44.988,1,1,8008,4004
12820,1.0406e+08,0,-0.050814,-0.016037,-0.024069,0.42191,-0.051701,-9.7944,0,0,44.988,1,1,8008,4004
12855,1.0406e+08,0,-0.056998,-0.0073713,-0.0075874,0.46446,0.14398,-9.7984,0,0,44.988,1,1,8008,4004
12859,1.0406e+08,0,0.0076138,-0.025169,0.014414,0.39769,0.32489,-9.7296,0,0,44.988,1,1,8008,4004
12862,1.0407e+08,0,0.0093996,-0.028831,0.015455,0.26816,0.35095,-9.6811,0,0,44.988,1,1,8008,4004
12865,1.0407e+08,0,-0.024257,-0.0077143,-0.006534,-0.0077998,0.45171,-9.7334,0,0,44.988,1,1,8008,4004
12903,1.0407e+08,0,0.0050777,0.0047795,-0.028189,-0.17843,0.59057,-9.8193,0,0,44.988,1,1,8008,4004
12907,1.0407e+08,0,0.06289,0.0068815,-0.051447,-0.374,0.63276,-9.8579,0,0,44.988,1,1,8008,4004
12910,1.0408e+08,0,0.040184,0.014491,-0.054417,-0.47093,0.54527,-9.8313,0,0,44.988,1,1,8008,4004
12913,1.0408e+08,0,-0.016477,0.036456,-0.031727,-0.53586,0.51881,-9.7943,0,0,44.988,1,1,8008,4004
12948,1.0408e+08,0,-0.0031429,0.03117,-0.0026781,-0.50172,0.53592,-9.7516,0,0,44.988,1,1,8008,4004
12952,1.0408e+08,0,0.034905,0.0052323,0.032544,-0.36958,0.37926,-9.6464,0,0,44.988,1,1,8008,4004
12955,1.0409e+08,0,0.013673,-0.0037034,0.038534,-0.2545,0.20948,-9.6029,0,0,44.988,1,1,8008,4004
12958,1.0409e+08,0,-0.017982,-0.0059699,0.022776,-0.046317,0.089254,-9.6372,0,0,44.988,1,1,8008,4004
12993,1.0409e+08,0,0.010359,-0.0081988,-0.0024156,0.17848,0.044673,-9.7011,0,0,44.988,1,1,8008,4004
12997,1.0409e+08,0,0.0051385,-0.0054831,-0.014063,0.30558,-0.017845,-9.7248,0,0,44.988,1,1,8008,4004
13000,1.041e+08,0,-0.047367,0.0043401,-0.014644,0.42324,0.0027378,-9.7467,0,0,44.988,1,1,8008,4004
13003,1.041e+08,0,-0.056606,0.00042153,-0.0041585,0.44166,0.13306,-9.7494,0,0,44.988,1,1,8008,4004
13038,1.041e+08,0,-0.013563,-0.021841,0.012802,0.35882,0.32508,-9.716,0,0,44.988,1,1,8008,4004
13042,1.041e+08,0,-0.00056813,-0.028068,0.014679,0.23371,0.38366,-9.692,0,0,44.988,1,1,8008,4004
13045,1.0411e+08,0,-0.0092597,-0.021811,-0.002549,0.0032011,0.47998,-9.7266,0,0,44.988,1,1,8008,4004
13048,1.0411e+08,0,0.011692,-0.012464,-0.020452,-0.15258,0.58317,-9.7815,0,0,44.988,1,1,8008,4004
13083,1.0411e+08,0,0.049889,0.0065198,-0.034714,-0.35596,0.63174,-9.8277,0,0,44.988,1,1,8008,4004
13087,1.0411e+08,0,0.040969,0.024663,-0.032874,-0.44293,0.58245,-9.8318,0,0,44.988,1,1,8008,4004
13090,1.0412e+08,0,0.0091051,0.046017,-0.014085,-0.49107,0.53718,-9.824,0,0,44.988,1,1,8008,4004
13093,1.0412e+08,0,0.016255,0.033421,0.017655,-0.43626,0.47599,-9.7661,0,0,44.988,1,1,8008,4004
13128,1.0412e+08,0,0.01763,-0.0010563,0.036071,-0.27036,0.28571,-9.6791,0,0,44.988,1,1,8008,4004
13131,1.0413e+08,0,-0.00076588,-0.020254,0.034031,-0.12764,0.14886,-9.6601,0,0,44.988,1,1,8008,4004
13134,1.0413e+08,0,-0.010031,-0.021285,0.017066,0.075263,0.023102,-9.7261,0,0,44.988,1,1,8008,4004
13137,1.0413e+08,0,0.0028992,-0.00034426,0.0036167,0.26261,-0.026787,-9.8293,0,0,44.988,1,1,8008,4004
13172,1.0413e+08,0,0.00011321,0.014969,0.0023107,0.36137,-0.032913,-9.8691,0,0,44.989,1,1,8008,4004
13176,1.0413e+08,0,-0.017035,0.023788,0.0068435,0.41089,-0.0012001,-9.8684,0,0,44.989,1,1,8008,4004
13179,1.0414e+08,0,-0.037404,-0.0015619,0.018604,0.40474,0.14347,-9.8176,0,0,44.989,1,1,8008,4004
13182,1.0414e+08,0,-0.023134,-0.042955,0.020361,0.28777,0.31704,-9.757,0,0,44.989,1,1,8008,4004
13217,1.0414e+08,0,-0.013844,-0.043417,0.013067,0.13196,0.38798,-9.7459,0,0,44.989,1,1,8008,4004
13220,1.0414e+08,0,0.0045002,-0.0086165,-0.0085246,-0.1242,0.48591,-9.8061,0,0,44.989,1,1,8008,4004
13223,1.0415e+08,0,0.028507,0.011667,-0.022943,-0.25592,0.55006,-9.8514,0,0,44.989,1,1,8008,4004
13226,1.0415e+08,0,0.047987,0.02789,-0.030325,-0.40308,0.54094,-9.8642,0,0,44.989,1,1,8008,4004
13261,1.0415e+08,0,0.023523,0.053831,-0.014545,-0.49171,0.47099,-9.8529,0,0,44.989,1,1,8008,4004
13265,1.0416e+08,0,0.01039,0.055004,0.0048681,-0.47218,0.44727,-9.8333,0,0,44.989,1,1,8008,4004
13268,1.0416e+08,0,0.011411,0.02692,0.024225,-0.37874,0.39944,-9.7768,0,0,44.989,1,1,8008,4004
13271,1.0416e+08,0,0.0035972,-0.024812,0.038345,-0.18802,0.22161,-9.6598,0,0,44.989,1,1,8008,4004
13306,1.0416e+08,0,-0.030643,-0.029145,0.032655,-0.0012427,0.04076,-9.6255,0,0,44.989,1,1,8008,4004
13310,1.0417e+08,0,-0.031043,-0.01165,0.020677,0.13741,-0.0080236,-9.6618,0,0,44.989,1,1,8008,4004
13313,1.0417e+08,0,0.009682,0.009092,0.0039613,0.33833,-0.011909,-9.7485,0,0,44.989,1,1,8008,4004
13316,1.0417e+08,0,0.0221,0.020484,0.00077914,0.41769,-0.0049589,-9.7957,0,0,44.989,1,1,8008,4004
13354,1.0417e+08,0,-0.023499,0.022663,0.0073772,0.45654,0.057224,-9.797,0,0,44.989,1,1,8008,4004
13358,1.0418e+08,0,-0.052534,-0.0097092,0.012468,0.45686,0.17217,-9.755,0,0,44.989,1,1,8008,4004
13361,1.0418e+08,0,-0.037471,-0.067988,0.010365,0.34644,0.37032,-9.6799,0,0,44.989,1,1,8008,4004
13364,1.0418e+08,0,-0.016109,-0.061158,0.0031791,0.16616,0.44112,-9.6681,0,0,44.989,1,1,8008,4004
13399,1.0418e+08,0,0.0035915,0.0023044,-0.01309,-0.11621,0.5167,-9.7421,0,0,44.989,1,1,8008,4004
13403,1.0419e+08,0,0.027439,0.02652,-0.02466,-0.23138,0.58089,-9.807,0,0,44.989,1,1,8008,4004
13406,1.0419e+08,0,0.062879,0.027794,-0.031525,-0.36641,0.58522,-9.8412,0,0,44.989,1,1,8008,4004
13409,1.0419e+08,0,0.048627,0.041375,-0.0243,-0.45858,0.51138,-9.8304,0,0,44.989,1,1,8008,4004
13423,1.0423e+08,0,0.053235,0.045295,-0.029189,-0.47765,0.59595,-9.8793,0,0,44.988,1,1,8008,4004
13427,1.0423e+08,0,-0.0092599,0.036316,-0.0091929,-0.41161,0.46329,-9.8221,0,0,44.988,1,1,8008,4004
13430,1.0423e+08,0,-0.036195,-0.013082,0.0018135,-0.25494,0.38795,-9.7432,0,0,44.988,1,1,8008,4004
13465,1.0424e+08,0,-0.011159,-0.052221,0.013955,-0.043963,0.20701,-9.6536,0,0,44.988,1,1,8008,4004
13471,1.0424e+08,0,-0.01003,-0.013167,0.019226,0.055058,0.089169,-9.6823,0,0,44.988,1,1,8008,4004
13474,1.0424e+08,0,0.0088982,0.02933,0.00055472,0.40665,0.050491,-9.8499,0,0,44.988,1,1,8008,4004
13509,1.0425e+08,0,-0.04576,-0.021923,-0.0081164,0.439,0.15979,-9.7632,0,0,44.988,1,1,8008,4004
13513,1.0425e+08,0,-0.05426,-0.0989,-0.01904,0.36142,0.35503,-9.6907,0,0,44.988,1,1,8008,4004
13516,1.0426e+08,0,-0.023395,-0.08913,-0.020526,0.16119,0.48088,-9.6942,0,0,44.988,1,1,8008,4004
13551,1.0426e+08,0,0.020072,0.0079035,-0.013052,-0.15069,0.58862,-9.7752,0,0,44.988,1,1,8008,4004
13554,1.0426e+08,0,0.03549,0.0504,-0.011143,-0.26213,0.62407,-9.8326,0,0,44.988,1,1,8008,4004
13557,1.0426e+08,0,0.050079,0.053953,-0.016984,-0.41,0.63334,-9.8628,0,0,44.988,1,1,8008,4004
13560,1.0427e+08,0,0.047325,0.055065,-0.017065,-0.52064,0.59398,-9.8562,0,0,44.988,1,1,8008,4004
13595,1.0427e+08,0,0.014647,0.042313,-0.0094479,-0.51285,0.47142,-9.8141,0,0,44.988,1,1,8008,4004
13598,1.0427e+08,0,-0.011473,-0.041426,-0.0039744,-0.27948,0.33526,-9.7361,0,0,44.988,1,1,8008,4004
13602,1.0427e+08,0,-0.011986,-0.077683,0.00094673,-0.15191,0.24346,-9.6928,0,0,44.988,1,1,8008,4004
13608,1.0428e+08,0,-0.019529,-0.027606,0.021018,-0.021458,0.08873,-9.6787,0,0,44.988,1,1,8008,4004
13644,1.0428e+08,0,-0.02357,0.040131,0.033554,0.20428,0.0047297,-9.7404,0,0,44.988,1,1,8008,4004
13647,1.0428e+08,0,-0.00086689,0.045065,0.029118,0.34043,0.023921,-9.7999,0,0,44.988,1,1,8008,4004
13650,1.0428e+08,0,0.025067,0.029371,0.016169,0.38416,0.08144,-9.8401,0,0,44.988,1,1,8008,4004
13653,1.0429e+08,0,-0.0024861,0.015358,0.0087965,0.36975,0.11819,-9.8085,0,0,44.988,1,1,8008,4004
13688,1.0429e+08,0,-0.061039,-0.051974,-0.0059323,0.3767,0.26184,-9.7156,0,0,44.988,1,1,8008,4004
13691,1.0429e+08,0,-0.054659,-0.10023,-0.016218,0.31363,0.41691,-9.6706,0,0,44.988,1,1,8008,4004
13695,1.0429e+08,0,0.0055715,-0.072618,-0.016699,0.029309,0.60102,-9.6832,0,0,44.988,1,1,8008,4004
13698,1.043e+08,0,0.031528,0.00035692,-0.0082113,-0.17017,0.65815,-9.7374,0,0,44.988,1,1,8008,4004
13733,1.043e+08,0,0.054041,0.074915,-0.0017817,-0.34107,0.71575,-9.8281,0,0,44.988,1,1,8008,4004
13736,1.043e+08,0,0.084592,0.074914,-0.0026849,-0.47099,0.71305,-9.8685,0,0,44.988,1,1,8008,4004
13739,1.043e+08,0,0.070308,0.059838,-0.0027314,-0.52558,0.61149,-9.8379,0,0,44.988,1,1,8008,4004
13742,1.0431e+08,0,-0.0071408,-0.0010025,-0.0067339,-0.41363,0.39394,-9.7255,0,0,44.988,1,1,8008,4004
13777,1.0431e+08,0,-0.025559,-0.075431,-0.0099805,-0.18787,0.2646,-9.6504,0,0,44.988,1,1,8008,4004
13780,1.0431e+08,0,0.00028118,-0.071474,1.1628e-05,-0.089784,0.17314,-9.6394,0,0,44.988,1,1,8008,4004
13784,1.0432e+08,0,0.010139,0.0047132,0.026314,0.068647,-0.014697,-9.6649,0,0,44.988,1,1,8008,4004
13787,1.0432e+08,0,-0.0040629,0.044316,0.037102,0.21934,-0.078271,-9.7181,0,0,44.988,1,1,8008,4004
13822,1.0432e+08,0,0.0079589,0.051272,0.035693,0.35157,-0.017024,-9.8214,0,0,44.988,1,1,8008,4004
13825,1.0432e+08,0,0.012264,0.032546,0.025235,0.33516,0.059017,-9.8307,0,0,44.988,1,1,8008,4004
13829,1.0433e+08,0,-0.02295,-0.0034036,0.010342,0.32659,0.1006,-9.7771,0,0,44.988,1,1,8008,4004
13832,1.0433e+08,0,-0.064442,-0.086971,-0.020007,0.27467,0.26739,-9.707,0,0,44.988,1,1,8008,4004
13867,1.0433e+08,0,-0.020836,-0.083866,-0.031365,0.02015,0.48368,-9.7025,0,0,44.988,1,1,8008,4004
13871,1.0433e+08,0,0.033225,0.020237,-0.015327,-0.26169,0.5889,-9.7495,0,0,44.988,1,1,8008,4004
13875,1.0434e+08,0,0.051416,0.068486,-0.0035415,-0.36063,0.61996,-9.804,0,0,44.988,1,1,8008,4004
13878,1.0434e+08,0,0.076513,0.078197,0.0036107,-0.48186,0.64291,-9.8817,0,0,44.988,1,1,8008,4004
13913,1.0434e+08,0,0.055271,0.070763,0.0058455,-0.57468,0.52169,-9.8706,0,0,44.988,1,1,8008,4004
13916,1.0434e+08,0,-0.00068547,0.039285,0.0012727,-0.49744,0.37417,-9.8013,0,0,44.988,1,1,8008,4004
13920,1.0435e+08,0,-0.046307,-0.058595,-0.014605,-0.2299,0.22663,-9.6982,0,0,44.988,1,1,8008,4004
13923,1.0435e+08,0,-0.023035,-0.087686,-0.016634,-0.10577,0.15882,-9.6592,0,0,44.988,1,1,8008,4004
13958,1.0435e+08,0,0.0056272,-0.016169,0.0061041,0.017601,-0.01094,-9.6525,0,0,44.988,1,1,8008,4004
13961,1.0435e+08,0,-0.010407,0.04331,0.025574,0.16611,-0.10222,-9.7034,0,0,44.988,1,1,8008,4004
13964,1.0436e+08,0,-0.011182,0.058138,0.035603,0.37435,-0.061389,-9.8364,0,0,44.988,1,1,8008,4004
13967,1.0436e+08,0,0.0098438,0.039965,0.031603,0.39105,0.015841,-9.8922,0,0,44.988,1,1,8008,4004
14002,1.0436e+08,0,-0.017415,0.0097291,0.014931,0.33778,0.067613,-9.8449,0,0,44.988,1,1,8008,4004
14005,1.0437e+08,0,-0.081852,-0.057936,-0.019669,0.31082,0.1882,-9.7442,0,0,44.988,1,1,8008,4004
14009,1.0437e+08,0,-0.075747,-0.092562,-0.038102,0.20894,0.34374,-9.7115,0,0,44.988,1,1,8008,4004
14012,1.0437e+08,0,0.001264,-0.050518,-0.037184,-0.092625,0.54093,-9.7015,0,0,44.988,1,1,8008,4004
14047,1.0437e+08,0,0.039926,0.040959,-0.012889,-0.31282,0.60104,-9.7264,0,0,44.988,1,1,8008,4004
14050,1.0438e+08,0,0.047826,0.070026,-0.0017107,-0.39247,0.62675,-9.7827,0,0,44.988,1,1,8008,4004
14054,1.0438e+08,0,0.060073,0.075279,0.0031776,-0.52522,0.62397,-9.8695,0,0,44.988,1,1,8008,4004
14060,1.0438e+08,0,0.038403,0.06692,0.00020621,-0.56042,0.51076,-9.8685,0,0,44.988,1,1,8008,4004
14096,1.0438e+08,0,-0.0373,0.0078061,-0.01841,-0.39696,0.26893,-9.798,0,0,44.988,1,1,8008,4004
14099,1.0439e+08,0,-0.057316,-0.046407,-0.030133,-0.22819,0.17368,-9.7549,0,0,44.988,1,1,8008,4004
14103,1.0439e+08,0,-0.014451,-0.065833,-0.02149,-0.046194,0.07036,-9.691,0,0,44.988,1,1,8008,4004
14106,1.0439e+08,0,0.0026734,-0.032344,0.0011167,0.078325,-0.040174,-9.6502,0,0,44.988,1,1,8008,4004
14141,1.0439e+08,0,-0.030589,0.024811,0.033498,0.29783,-0.15014,-9.6799,0,0,44.988,1,1,8008,4004
14144,1.044e+08,0,-0.028552,0.048756,0.041764,0.38401,-0.034581,-9.8318,0,0,44.988,1,1,8008,4004
14148,1.044e+08,0,-0.0011291,0.041159,0.034398,0.37184,0.073944,-9.8976,0,0,44.988,1,1,8008,4004
14151,1.044e+08,0,-0.018255,-0.012611,0.00089841,0.35052,0.13478,-9.8469,0,0,44.988,1,1,8008,4004
14186,1.044e+08,0,-0.068185,-0.055679,-0.028238,0.29427,0.18992,-9.7782,0,0,44.988,1,1,8008,4004
14189,1.0441e+08,0,-0.080341,-0.070773,-0.051042,0.081672,0.42758,-9.732,0,0,44.988,1,1,8008,4004
14192,1.0441e+08,0,-0.020354,-0.047933,-0.043477,-0.074422,0.59808,-9.7121,0,0,44.988,1,1,8008,4004
14195,1.0441e+08,0,0.060689,-0.00013828,-0.013727,-0.24818,0.6742,-9.6865,0,0,44.988,1,1,8008,4004
14230,1.0441e+08,0,0.069202,0.036916,0.0046935,-0.36287,0.66369,-9.7248,0,0,44.988,1,1,8008,4004
14233,1.0442e+08,0,0.048465,0.085923,0.020622,-0.50644,0.64916,-9.8406,0,0,44.987,1,1,8008,4004
14237,1.0442e+08,0,0.030513,0.079862,0.017497,-0.493,0.56715,-9.8656,0,0,44.987,1,1,8008,4004
14241,1.0442e+08,0,-0.0089269,0.0046247,-0.011573,-0.31713,0.33276,-9.8079,0,0,44.987,1,1,8008,4004
14276,1.0443e+08,0,-0.03703,-0.052488,-0.03256,-0.13685,0.1646,-9.7389,0,0,44.987,1,1,8008,4004
14279,1.0443e+08,0,-0.011264,-0.049918,-0.013217,0.079762,0.078929,-9.6561,0,0,44.987,1,1,8008,4004
14282,1.0443e+08,0,0.00077078,-0.036406,0.014417,0.25611,0.0022058,-9.5981,0,0,44.987,1,1,8008,4004
14285,1.0443e+08,0,-0.016116,-0.0028779,0.047086,0.40941,-0.052501,-9.6499,0,0,44.986,1,1,8008,4004
14320,1.0443e+08,0,-0.019777,0.028294,0.054523,0.41333,0.021508,-9.7812,0,0,44.986,1,1,8008,4004
14323,1.0444e+08,0,-0.00028291,0.040312,0.041084,0.38955,0.17009,-9.9053,0,0,44.986,1,1,8008,4004
14327,1.0444e+08,0,-0.0015186,0.0081223,0.012151,0.36593,0.22568,-9.8768,0,0,44.986,1,1,8008,4004
14330,1.0444e+08,0,-0.038982,-0.049712,-0.035083,0.23087,0.34287,-9.7728,0,0,44.986,1,1,8008,4004
14365,1.0444e+08,0,-0.04376,-0.066951,-0.047509,0.090249,0.48966,-9.7253,0,0,44.986,1,1,8008,4004
14370,1.0445e+08,0,0.010923,-0.050609,-0.029826,-0.11252,0.68166,-9.6617,0,0,44.985,1,1,8008,4004
14373,1.0445e+08,0,0.07436,0.06187,0.023076,-0.42706,0.70347,-9.7354,0,0,44.985,1,1,8008,4004
14408,1.0446e+08,0,0.078433,0.080431,0.028033,-0.46341,0.62095,-9.8889,0,0,44.985,1,1,8008,4004
14411,1.0446e+08,0,0.054232,0.055172,0.013083,-0.41069,0.46667,-9.903,0,0,44.985,1,1,8008,4004
14415,1.0446e+08,0,-0.017885,0.0014002,-0.017366,-0.26235,0.21254,-9.8199,0,0,44.985,1,1,8008,4004
14418,1.0447e+08,0,0.0034076,-0.062175,0.0013742,0.22185,0.0059568,-9.636,0,0,44.984,1,1,8008,4004
14453,1.0447e+08,0,-0.00028159,-0.028488,0.0285,0.30605,-0.071404,-9.6036,0,0,44.984,1,1,8008,4004
14457,1.0447e+08,0,-0.011818,0.043908,0.057657,0.37288,-0.014769,-9.7451,0,0,44.984,1,1,8008,4004
14460,1.0447e+08,0,0.010205,0.055705,0.05986,0.40633,0.10544,-9.8801,0,0,44.984,1,1,8008,4004
14464,1.0448e+08,0,0.023317,0.012984,0.029078,0.37153,0.19731,-9.9078,0,0,44.984,1,1,8008,4004
14501,1.0448e+08,0,-0.017528,-0.019056,-0.0050207,0.27922,0.23751,-9.8297,0,0,44.984,1,1,8008,4004
14504,1.0448e+08,0,-0.065949,-0.051002,-0.042197,0.12472,0.4337,-9.7279,0,0,44.984,1,1,8008,4004
14510,1.0448e+08,0,-0.024898,-0.065806,-0.04633,0.029153,0.61166,-9.6947,0,0,44.983,1,1,8008,4004
14514,1.0449e+08,0,0.060852,-0.034327,-0.021563,-0.18281,0.7242,-9.6641,0,0,44.983,1,1,8008,4004
14549,1.0449e+08,0,0.071431,0.028411,0.0036631,-0.33983,0.70632,-9.7034,0,0,44.983,1,1,8008,4004
14552,1.0449e+08,0,0.065212,0.092074,0.029686,-0.42752,0.6961,-9.8701,0,0,44.983,1,1,8008,4004
14555,1.0449e+08,0,0.070188,0.076911,0.028359,-0.398,0.63459,-9.9437,0,0,44.983,1,1,8008,4004
14558,1.045e+08,0,0.032758,0.022879,-0.00038405,-0.33038,0.36467,-9.8896,0,0,44.983,1,1,8008,4004
14593,1.045e+08,0,-0.022333,-0.0041672,-0.021589,-0.23527,0.1924,-9.8076,0,0,44.983,1,1,8008,4004
14596,1.045e+08,0,-0.038032,-0.059098,-0.03106,0.042321,0.094181,-9.7129,0,0,44.982,1,1,8008,4004
14599,1.045e+08,0,-0.00075585,-0.084843,-0.017283,0.21383,0.0384,-9.6524,0,0,44.982,1,1,8008,4004
14602,1.0451e+08,0,-0.0034002,-0.027779,0.025034,0.29321,-0.11041,-9.6143,0,0,44.982,1,1,8008,4004
14637,1.0451e+08,0,-0.035893,0.065906,0.058458,0.33724,-0.060483,-9.7864,0,0,44.982,1,1,8008,4004
14641,1.0451e+08,0,0.010748,0.041937,0.048989,0.39139,0.07248,-9.915,0,0,44.982,1,1,8008,4004
14644,1.0451e+08,0,0.018545,-0.0051604,0.019634,0.32639,0.1445,-9.886,0,0,44.982,1,1,8008,4004
14647,1.0452e+08,0,-0.03113,-0.031835,-0.015356,0.1955,0.15681,-9.7746,0,0,44.982,1,1,8008,4004
14682,1.0452e+08,0,-0.087676,-0.063844,-0.051526,0.074935,0.36738,-9.6777,0,0,44.982,1,1,8008,4004
14685,1.0452e+08,0,0.0049081,-0.087856,-0.052618,-0.045301,0.62829,-9.6545,0,0,44.982,1,1,8008,4004
14688,1.0452e+08,0,0.05938,-0.039467,-0.031022,-0.23616,0.66143,-9.6461,0,0,44.982,1,1,8008,4004
14691,1.0453e+08,0,0.051119,0.089655,0.012689,-0.4177,0.63851,-9.6947,0,0,44.982,1,1,8008,4004
14726,1.0453e+08,0,0.041892,0.11809,0.027668,-0.45644,0.63682,-9.8488,0,0,44.982,1,1,8008,4004
14730,1.0453e+08,0,0.040801,0.046904,0.013076,-0.39811,0.56825,-9.8805,0,0,44.982,1,1,8008,4004
14733,1.0453e+08,0,0.0065607,-0.0025175,-0.011801,-0.35263,0.30068,-9.7707,0,0,44.982,1,1,8008,4004
14736,1.0454e+08,0,-0.056792,-0.0426,-0.039313,-0.26767,0.15188,-9.6844,0,0,44.982,1,1,8008,4004
14771,1.0454e+08,0,-0.024506,-0.091987,-0.036478,0.13532,0.039993,-9.6215,0,0,44.982,1,1,8008,4004
14775,1.0454e+08,0,-0.00028192,-0.079556,-0.014796,0.23668,-0.041362,-9.6144,0,0,44.982,1,1,8008,4004
14778,1.0455e+08,0,-0.040328,0.041514,0.034877,0.22743,-0.12135,-9.6913,0,0,44.982,1,1,8008,4004
14781,1.0455e+08,0,-0.049016,0.099204,0.056097,0.27594,-0.031414,-9.8155,0,0,44.982,1,1,8008,4004
14816,1.0455e+08,0,0.012616,0.0062979,0.031047,0.34406,0.16346,-9.8923,0,0,44.982,1,1,8008,4004
14819,1.0455e+08,0,-0.015862,-0.040562,-0.0047942,0.21178,0.17289,-9.7953,0,0,44.982,1,1,8008,4004
14822,1.0456e+08,0,-0.095371,-0.055747,-0.04685,0.038336,0.31544,-9.6721,0,0,44.982,1,1,8008,4004
14825,1.0456e+08,0,-0.069556,-0.080105,-0.058975,0.017338,0.50817,-9.6657,0,0,44.982,1,1,8008,4004
14860,1.0456e+08,0,0.03852,-0.074022,-0.045301,-0.14042,0.67057,-9.6948,0,0,44.982,1,1,8008,4004
14864,1.0456e+08,0,0.05713,0.012187,-0.016512,-0.35761,0.65854,-9.7318,0,0,44.982,1,1,8008,4004
14867,1.0457e+08,0,0.039796,0.13776,0.023322,-0.49344,0.65928,-9.8594,0,0,44.982,1,1,8008,4004
14870,1.0457e+08,0,0.044656,0.12347,0.026685,-0.42472,0.62828,-9.9116,0,0,44.982,1,1,8008,4004
14905,1.0457e+08,0,0.02198,0.015259,-0.0040788,-0.35618,0.38303,-9.818,0,0,44.982,1,1,8008,4004
14908,1.0457e+08,0,-0.051029,-0.04367,-0.037987,-0.27868,0.14534,-9.6675,0,0,44.982,1,1,8008,4004
14913,1.0458e+08,0,-0.055261,-0.074993,-0.044388,-0.095165,0.085808,-9.6311,0,0,44.982,1,1,8008,4004
14916,1.0458e+08,0,0.00019499,-0.095172,-0.024314,0.16702,-0.010035,-9.6764,0,0,44.982,1,1,8008,4004
14951,1.0458e+08,0,-0.0051934,-0.035954,0.0084553,0.18421,-0.10094,-9.7454,0,0,44.982,1,1,8008,4004
14955,1.0458e+08,0,-0.047592,0.10125,0.058644,0.17374,-0.079767,-9.8929,0,0,44.982,1,1,8008,4004
14961,1.0459e+08,0,-0.032976,0.11334,0.068329,0.2594,0.032938,-9.9565,0,0,44.982,1,1,8008,4004
14965,1.0459e+08,0,-0.0015752,0.0070983,0.034407,0.29108,0.12552,-9.8787,0,0,44.982,1,1,8008,4004
15000,1.0459e+08,0,-0.047896,-0.057446,-0.019856,0.16513,0.16201,-9.7545,0,0,44.982,1,1,8008,4004
15004,1.0459e+08,0,-0.06781,-0.065085,-0.04297,0.0016364,0.3501,-9.6363,0,0,44.982,1,1,8008,4004
15007,1.046e+08,0,-0.030796,-0.077663,-0.051309,-0.024968,0.52166,-9.6575,0,0,44.982,1,1,8008,4004
15010,1.046e+08,0,0.04408,-0.046703,-0.032905,-0.17931,0.64891,-9.7569,0,0,44.982,1,1,8008,4004
15045,1.046e+08,0,0.042204,0.079334,0.012832,-0.43061,0.66204,-9.8398,0,0,44.982,1,1,8008,4004
15048,1.046e+08,0,0.041471,0.12806,0.033147,-0.45235,0.66777,-9.8866,0,0,44.982,1,1,8008,4004
15051,1.0461e+08,0,0.049468,0.10382,0.032243,-0.38208,0.60628,-9.8905,0,0,44.982,1,1,8008,4004
15054,1.0461e+08,0,0.022962,0.017316,0.0005959,-0.3255,0.37135,-9.7899,0,0,44.982,1,1,8008,4004
