LineNo,TimeUS,I,GyrX,GyrY,GyrZ,AccX,AccY,AccZ,EG,EA,T,GH,AH,GHz,AHz
183,1.0097e+08,1,0.0025185,0.0072458,0.0065797,-0.047901,0.37334,-9.6971,0,0,45.446,1,1,753,995
218,1.0098e+08,1,0.0026098,0.0045953,0.0069755,-0.049528,0.38245,-9.7009,0,0,45.446,1,1,753,995
288,1.01e+08,1,0.0049923,0.010657,0.0045108,-0.063962,0.18681,-9.5968,0,0,45.446,1,1,753,995
403,1.0103e+08,1,-0.0027608,0.0060796,0.00062604,-0.090326,0.31524,-9.8335,0,0,45.447,1,1,753,995
519,1.0106e+08,1,-0.00077857,0.013625,0.0022907,-0.037028,0.12021,-9.6986,0,0,45.448,1,1,753,995
634,1.0109e+08,1,-0.0081666,0.019665,-0.0010895,-0.059346,0.29818,-9.7634,0,0,45.45,1,1,753,995
637,1.0109e+08,1,-0.013096,0.018921,0.00010155,-0.052877,0.26414,-9.7634,0,0,45.45,1,1,753,995
748,1.0111e+08,1,-0.012561,0.014726,-0.0052842,-0.14729,0.297,-9.704,0,0,45.45,1,1,753,995
783,1.0112e+08,1,-0.012253,0.015228,-0.0043201,-0.1593,0.28346,-9.7304,0,0,45.45,1,1,753,995
857,1.0113e+08,1,-0.0076635,0.01316,-0.0025894,-0.06324,0.22523,-9.7206,0,0,45.451,1,1,753,995
975,1.0117e+08,1,0.0038786,0.0087936,-0.004256,-0.063356,0.2822,-9.826,0,0,45.452,1,1,753,995
1090,1.0122e+08,1,0.0024303,0.013273,0.0017479,-0.038982,0.29496,-9.733,0,0,45.454,1,1,753,995
1201,1.0133e+08,1,-0.0034339,0.019292,-0.00069591,-0.11573,0.23728,-9.7049,0,0,45.458,1,1,753,995
1283,1.0137e+08,1,-0.0055627,0.010547,-0.0015684,-0.10877,0.27353,-9.787,0,0,45.46,1,1,753,995
1318,1.0137e+08,1,-0.003942,0.0086252,-0.0051842,-0.13585,0.26711,-9.8004,0,0,45.46,1,1,753,995
1382,1.0138e+08,1,-0.0047737,0.012642,-0.00059465,-0.10211,0.27818,-9.6624,0,0,45.461,1,1,753,995
1474,1.014e+08,1,0.0029108,0.013725,0.0033671,-0.11377,0.28706,-9.6799,0,0,45.462,1,1,753,995
1509,1.014e+08,1,0.0035653,0.013786,0.003748,-0.12118,0.25403,-9.7067,0,0,45.462,1,1,753,995
1559,1.0141e+08,1,0.0041627,0.011773,0.0035541,-0.12714,0.23035,-9.7431,0,0,45.462,1,1,753,995
1561,1.0142e+08,1,0.0063508,0.01165,0.0080901,-0.062026,0.24694,-9.7421,0,0,45.463,1,1,753,995
1571,1.0142e+08,1,0.0043271,0.014512,0.0041431,-0.068468,0.25002,-9.7641,0,0,45.463,1,1,753,995
1606,1.0143e+08,1,0.0010985,0.017574,0.0028049,-0.075485,0.25571,-9.7762,0,0,45.463,1,1,753,995
1609,1.0143e+08,1,-0.001676,0.019775,0.0035763,-0.091713,0.26176,-9.7655,0,0,45.463,1,1,753,995
1612,1.0143e+08,1,-0.0021543,0.018198,0.0015985,-0.10154,0.26446,-9.7498,0,0,45.463,1,1,753,995
1616,1.0143e+08,1,-0.0014581,0.014844,0.00093998,-0.11893,0.2542,-9.7371,0,0,45.463,1,1,753,995
1651,1.0143e+08,1,-0.0016566,0.013293,0.0020621,-0.1302,0.24501,-9.7361,0,0,45.463,1,1,753,995
1654,1.0144e+08,1,-0.0020642,0.011465,0.0037691,-0.1367,0.23744,-9.7376,0,0,45.463,1,1,753,995
1657,1.0144e+08,1,-0.0014549,0.011097,0.003475,-0.13541,0.22705,-9.7362,0,0,45.463,1,1,753,995
1660,1.0144e+08,1,0.00058664,0.010674,0.0024577,-0.12926,0.22622,-9.731,0,0,45.464,1,1,753,995
1695,1.0144e+08,1,0.002248,0.011718,0.0028483,-0.11879,0.21967,-9.7268,0,0,45.464,1,1,753,995
1698,1.0145e+08,1,0.0010472,0.014407,0.0043164,-0.10296,0.21113,-9.722,0,0,45.464,1,1,753,995
1701,1.0145e+08,1,-0.002656,0.014711,0.0049384,-0.092464,0.21216,-9.7147,0,0,45.464,1,1,753,995
1707,1.0145e+08,1,-0.0047293,0.012212,0.0036467,-0.080301,0.22761,-9.7008,0,0,45.464,1,1,753,995
1742,1.0146e+08,1,-0.0031808,0.012068,0.0032814,-0.061661,0.23749,-9.6812,0,0,45.464,1,1,753,995
1745,1.0146e+08,1,0.00011159,0.012554,0.0024598,-0.038171,0.23425,-9.6512,0,0,45.464,1,1,753,995
1748,1.0146e+08,1,0.00033168,0.013243,0.0042826,-0.012736,0.23641,-9.6569,0,0,45.464,1,1,753,995
1783,1.0147e+08,1,-0.00025696,0.01149,0.0070495,-0.0049937,0.23284,-9.6711,0,0,45.465,1,1,753,995
1786,1.0147e+08,1,-0.0015966,0.012228,0.0049614,-0.01559,0.24942,-9.6814,0,0,45.465,1,1,753,995
1789,1.0147e+08,1,-0.0019037,0.011038,0.0044387,-0.025019,0.25713,-9.6976,0,0,45.465,1,1,753,995
1823,1.0148e+08,1,-0.0027984,0.0093365,0.0039258,-0.034857,0.2612,-9.7491,0,0,45.465,1,1,753,995
1826,1.0148e+08,1,-0.0029765,0.008723,0.0026035,-0.043096,0.25992,-9.7792,0,0,45.465,1,1,753,995
1829,1.0148e+08,1,-0.0027594,0.011308,-0.0011113,-0.049943,0.26474,-9.8094,0,0,45.465,1,1,753,995
1832,1.0148e+08,1,-0.0026982,0.012561,-0.0019419,-0.048458,0.26785,-9.8275,0,0,45.465,1,1,753,995
1866,1.0149e+08,1,-0.0010843,0.014226,-0.0042254,-0.035126,0.26091,-9.8467,0,0,45.466,1,1,753,995
1869,1.0149e+08,1,0.00064272,0.01339,-0.00097261,-0.026476,0.24583,-9.8403,0,0,45.466,1,1,753,995
1875,1.0149e+08,1,-0.0011175,0.012511,0.00010261,-0.026582,0.2228,-9.8327,0,0,45.466,1,1,753,995
1879,1.015e+08,1,-0.0061392,0.011035,-0.0017992,-0.026472,0.22198,-9.8228,0,0,45.466,1,1,753,995
1912,1.015e+08,1,-0.0067718,0.00923,-0.0044331,-0.033944,0.21222,-9.7955,0,0,45.467,1,1,753,995
1915,1.015e+08,1,-0.0052876,0.0095476,-0.0035742,-0.045589,0.20669,-9.7858,0,0,45.467,1,1,753,995
1918,1.015e+08,1,-0.0022116,0.010385,0.00059329,-0.053027,0.19814,-9.7724,0,0,45.467,1,1,753,995
1921,1.0151e+08,1,-0.0024814,0.01199,0.00010979,-0.059536,0.19192,-9.7527,0,0,45.467,1,1,753,995
1956,1.0151e+08,1,-0.0025678,0.016917,-0.0010812,-0.073394,0.19202,-9.7322,0,0,45.467,1,1,753,995
1960,1.0151e+08,1,-0.0032603,0.018839,0.00067946,-0.076472,0.20078,-9.7264,0,0,45.467,1,1,753,995
1963,1.0151e+08,1,-0.0047199,0.017388,0.0014408,-0.076883,0.20525,-9.7057,0,0,45.467,1,1,753,995
1966,1.0152e+08,1,-0.0082603,0.01665,-0.0002641,-0.073552,0.20207,-9.6941,0,0,45.467,1,1,753,995
1999,1.0152e+08,1,-0.010141,0.014895,-0.00066614,-0.06596,0.18831,-9.6932,0,0,45.467,1,1,753,995
2002,1.0152e+08,1,-0.0095402,0.014083,-0.0013364,-0.057665,0.18457,-9.6861,0,0,45.468,1,1,753,995
2005,1.0152e+08,1,-0.0059573,0.010457,-0.0047373,-0.061491,0.18981,-9.6895,0,0,45.468,1,1,753,995
2010,1.0153e+08,1,-0.004923,0.0094935,-0.0053395,-0.078627,0.20011,-9.713,0,0,45.468,1,1,753,995
2043,1.0153e+08,1,-0.0043363,0.0091607,-0.0062208,-0.093482,0.20043,-9.7473,0,0,45.468,1,1,753,995
2047,1.0153e+08,1,-0.0035076,0.009471,-0.0055612,-0.096482,0.19169,-9.7551,0,0,45.468,1,1,753,995
2050,1.0153e+08,1,-0.0014608,0.011335,-0.0041107,-0.091561,0.18279,-9.7512,0,0,45.468,1,1,753,995
2053,1.0154e+08,1,-0.0011858,0.014272,-0.0025633,-0.071991,0.199,-9.7362,0,0,45.468,1,1,753,995
2086,1.0154e+08,1,-0.0007662,0.014414,-0.0030361,-0.051439,0.21631,-9.7157,0,0,45.468,1,1,753,995
2090,1.0154e+08,1,0.00096229,0.014577,-0.0042836,-0.030971,0.23641,-9.6887,0,0,45.469,1,1,753,995
2093,1.0154e+08,1,0.001322,0.015106,-0.0030602,-0.022006,0.24966,-9.6735,0,0,45.469,1,1,753,995
2096,1.0155e+08,1,0.0010633,0.01586,0.00057716,-0.0086194,0.26249,-9.6698,0,0,45.469,1,1,753,995
2129,1.0155e+08,1,0.00065155,0.016109,0.0032047,-0.0023618,0.27463,-9.6791,0,0,45.469,1,1,753,995
2132,1.0155e+08,1,6.8294e-05,0.014631,0.0041342,-0.0042904,0.28589,-9.6967,0,0,45.469,1,1,753,995
2135,1.0155e+08,1,-0.00029257,0.013491,0.004057,-0.026393,0.32158,-9.709,0,0,45.469,1,1,753,995
2138,1.0156e+08,1,-0.0017304,0.013202,0.0023713,-0.053031,0.33926,-9.7022,0,0,45.469,1,1,753,995
2171,1.0156e+08,1,-0.002312,0.012527,0.001918,-0.098093,0.35221,-9.6932,0,0,45.469,1,1,753,995
2175,1.0156e+08,1,-0.0018716,0.01212,0.0017769,-0.12531,0.34995,-9.6869,0,0,45.469,1,1,753,995
2178,1.0156e+08,1,0.00027977,0.01462,-0.0013196,-0.14907,0.35396,-9.7079,0,0,45.469,1,1,753,995
2181,1.0157e+08,1,0.00086663,0.016559,-0.0019926,-0.15698,0.36043,-9.7373,0,0,45.469,1,1,753,995
2214,1.0157e+08,1,0.0027336,0.018149,-0.00037449,-0.16309,0.36072,-9.7735,0,0,45.469,1,1,753,995
2217,1.0157e+08,1,0.0040864,0.015426,0.0016856,-0.16658,0.36058,-9.7773,0,0,45.469,1,1,753,995
2220,1.0157e+08,1,0.0020536,0.011488,0.0022398,-0.15901,0.33911,-9.7547,0,0,45.47,1,1,753,995
2223,1.0158e+08,1,-0.0003719,0.0078993,0.0033545,-0.14847,0.31961,-9.7315,0,0,45.47,1,1,753,995
2256,1.0158e+08,1,-0.00019035,0.0062716,0.0041149,-0.13037,0.28753,-9.7277,0,0,45.47,1,1,753,995
2259,1.0158e+08,1,0.0012089,0.007967,0.0045559,-0.11073,0.26264,-9.7499,0,0,45.47,1,1,753,995
2262,1.0158e+08,1,0.0028209,0.011381,0.0026304,-0.08751,0.22678,-9.7738,0,0,45.47,1,1,753,995
2266,1.0159e+08,1,0.0027698,0.013639,0.0012493,-0.082227,0.20828,-9.7751,0,0,45.47,1,1,753,995
2299,1.0159e+08,1,0.00021994,0.017852,0.00098408,-0.069116,0.19849,-9.7748,0,0,45.47,1,1,753,995
2302,1.0159e+08,1,-0.00085522,0.017635,0.0018122,-0.053616,0.19669,-9.7737,0,0,45.47,1,1,753,995
2308,1.0159e+08,1,-0.0023829,0.016627,0.00061499,-0.046713,0.19499,-9.7655,0,0,45.47,1,1,753,995
2312,1.016e+08,1,-0.0023396,0.016341,-0.0021355,-0.048424,0.203,-9.7525,0,0,45.471,1,1,753,995
2345,1.016e+08,1,-0.00081823,0.01688,-0.0032487,-0.059285,0.22031,-9.7221,0,0,45.471,1,1,753,995
2349,1.016e+08,1,0.00072219,0.016107,-0.00089127,-0.068447,0.22702,-9.713,0,0,45.471,1,1,753,995
2352,1.016e+08,1,0.00064489,0.011758,0.0038609,-0.070954,0.23904,-9.7178,0,0,45.471,1,1,753,995
2355,1.0161e+08,1,-0.00044911,0.0098932,0.0055956,-0.076018,0.25208,-9.7358,0,0,45.471,1,1,753,995
2388,1.0161e+08,1,-0.0040442,0.010171,0.0077339,-0.09068,0.28327,-9.7494,0,0,45.471,1,1,753,995
2392,1.0161e+08,1,-0.0040895,0.0083351,0.0051789,-0.09316,0.2968,-9.736,0,0,45.471,1,1,753,995
2395,1.0161e+08,1,-0.0040203,0.0085423,0.0029746,-0.091772,0.30518,-9.7227,0,0,45.471,1,1,753,995
2398,1.0162e+08,1,-0.003655,0.011749,0.00035131,-0.091954,0.31835,-9.7067,0,0,45.471,1,1,753,995
2431,1.0162e+08,1,-0.0018068,0.014317,8.2327e-05,-0.095275,0.30259,-9.6947,0,0,45.472,1,1,753,995
2434,1.0162e+08,1,0.00051064,0.013303,0.0030363,-0.10061,0.29041,-9.6999,0,0,45.472,1,1,753,995
2437,1.0163e+08,1,0.0020986,0.012301,0.0048106,-0.095554,0.28329,-9.7008,0,0,45.472,1,1,753,995
2440,1.0163e+08,1,0.0027144,0.012418,0.0045198,-0.069147,0.28075,-9.6914,0,0,45.472,1,1,753,995
2473,1.0163e+08,1,0.001894,0.0095931,0.0031581,-0.042995,0.27591,-9.667,0,0,45.472,1,1,753,995
2478,1.0163e+08,1,0.0010054,0.0088713,0.0021604,-0.036453,0.26901,-9.6691,0,0,45.472,1,1,753,995
2481,1.0164e+08,1,-0.001207,0.0076465,-0.00055599,-0.032633,0.25501,-9.681,0,0,45.472,1,1,753,995
2486,1.0164e+08,1,-0.0035692,0.0071117,-0.00044065,-0.035239,0.22232,-9.7033,0,0,45.472,1,1,753,995
2519,1.0164e+08,1,-0.0041844,0.0065828,0.00018294,-0.052236,0.18407,-9.7183,0,0,45.473,1,1,753,995
2522,1.0165e+08,1,0.0036895,0.011525,0.0016893,-0.093665,0.11385,-9.7355,0,0,45.473,1,1,753,995
2557,1.0165e+08,1,0.003324,0.012904,0.00015143,-0.10066,0.1134,-9.7397,0,0,45.473,1,1,753,995
2560,1.0165e+08,1,-0.00017681,0.014944,-0.004164,-0.11538,0.11519,-9.7287,0,0,45.473,1,1,753,995
2563,1.0166e+08,1,-0.0011766,0.014851,-0.0047698,-0.12016,0.11972,-9.7325,0,0,45.473,1,1,753,995
2566,1.0166e+08,1,-0.00053391,0.014242,-0.0050386,-0.127,0.13158,-9.7542,0,0,45.473,1,1,753,995
2601,1.0166e+08,1,0.00068807,0.015098,-0.0027274,-0.13437,0.14934,-9.7601,0,0,45.473,1,1,753,995
2605,1.0167e+08,1,-0.00056436,0.016753,-0.00042172,-0.14488,0.18313,-9.743,0,0,45.473,1,1,753,995
2608,1.0167e+08,1,-0.0041119,0.017099,-0.00023946,-0.15193,0.20906,-9.7479,0,0,45.473,1,1,753,995
2611,1.0167e+08,1,-0.0075791,0.014651,-0.0015282,-0.15935,0.22505,-9.7738,0,0,45.473,1,1,753,995
2646,1.0167e+08,1,-0.0074352,0.014169,-0.0013948,-0.14632,0.22509,-9.7769,0,0,45.474,1,1,753,995
2650,1.0168e+08,1,-0.0045721,0.015164,2.7248e-06,-0.12874,0.23674,-9.7708,0,0,45.474,1,1,753,995
2653,1.0168e+08,1,-0.0016345,0.015425,-0.00031324,-0.10699,0.25648,-9.7635,0,0,45.474,1,1,753,995
2656,1.0168e+08,1,-0.00073951,0.015343,-0.00086377,-0.094133,0.26732,-9.7743,0,0,45.474,1,1,753,995
2691,1.0168e+08,1,0.0022614,0.01424,-0.00094775,-0.078468,0.26732,-9.7715,0,0,45.474,1,1,753,995
2694,1.0169e+08,1,0.0029146,0.01439,0.00017728,-0.068323,0.26687,-9.7544,0,0,45.474,1,1,753,995
2697,1.0169e+08,1,0.0032653,0.014702,0.0033263,-0.060674,0.25927,-9.7634,0,0,45.474,1,1,753,995
2700,1.0169e+08,1,0.0034561,0.014485,0.0046027,-0.053478,0.25738,-9.7853,0,0,45.474,1,1,753,995
2735,1.0169e+08,1,0.0033253,0.014436,0.0065096,-0.042342,0.26213,-9.8122,0,0,45.474,1,1,753,995
2739,1.017e+08,1,0.0038413,0.016373,0.007891,-0.032556,0.26141,-9.8486,0,0,45.474,1,1,753,995
2745,1.017e+08,1,0.0041935,0.018454,0.005741,-0.030917,0.26316,-9.8727,0,0,45.474,1,1,753,995
2749,1.017e+08,1,0.0026513,0.017858,0.0040506,-0.028714,0.26048,-9.8858,0,0,45.474,1,1,753,995
2784,1.017e+08,1,-0.0009852,0.016192,0.0016629,-0.024488,0.24376,-9.8809,0,0,45.474,1,1,753,995
2788,1.0171e+08,1,-0.0038492,0.016501,-0.0022459,-0.017374,0.23816,-9.8697,0,0,45.475,1,1,753,995
2791,1.0171e+08,1,-0.0072519,0.017847,-0.0064455,-0.003053,0.23619,-9.8339,0,0,45.475,1,1,753,995
2794,1.0171e+08,1,-0.0086248,0.016612,-0.0095291,-0.0052939,0.2354,-9.8112,0,0,45.475,1,1,753,995
2829,1.0171e+08,1,-0.0068091,0.012096,-0.0076654,-0.020154,0.24307,-9.791,0,0,45.475,1,1,753,995
2832,1.0172e+08,1,-0.0041966,0.010094,-0.0047443,-0.028206,0.24607,-9.7774,0,0,45.475,1,1,753,995
2835,1.0172e+08,1,-0.00033669,0.013406,-0.0039718,-0.026788,0.23198,-9.7405,0,0,45.475,1,1,753,995
2838,1.0172e+08,1,0.0013692,0.015777,-0.0039006,-0.020163,0.21915,-9.7246,0,0,45.475,1,1,753,995
2873,1.0172e+08,1,0.0028531,0.017491,-0.0027566,-0.0053011,0.20562,-9.6963,0,0,45.475,1,1,753,995
2879,1.0173e+08,1,0.0021256,0.017612,-0.0016291,0.0069385,0.20185,-9.6763,0,0,45.475,1,1,753,995
2882,1.0173e+08,1,-0.00068113,0.016346,-0.00022235,0.021441,0.19969,-9.6479,0,0,45.476,1,1,753,995
2885,1.0173e+08,1,-0.0031468,0.013525,-0.001199,0.02311,0.20744,-9.6385,0,0,45.476,1,1,753,995
2920,1.0173e+08,1,-0.0027935,0.01375,-9.8622e-05,-0.00026183,0.20996,-9.6429,0,0,45.476,1,1,753,995
2923,1.0174e+08,1,-0.00050849,0.012694,0.0021945,-0.021462,0.21373,-9.6355,0,0,45.476,1,1,753,995
2926,1.0174e+08,1,0.00078882,0.011333,0.0079091,-0.023898,0.21166,-9.612,0,0,45.476,1,1,753,995
2929,1.0174e+08,1,0.0012726,0.011193,0.0093037,-0.02659,0.21958,-9.595,0,0,45.476,1,1,753,995
2964,1.0175e+08,1,0.00253,0.011336,0.0093623,-0.027779,0.22848,-9.5903,0,0,45.476,1,1,753,995
2967,1.0175e+08,1,0.0016991,0.011772,0.0084021,-0.022517,0.23588,-9.6048,0,0,45.476,1,1,753,995
2971,1.0175e+08,1,0.0001625,0.011082,0.0076336,-0.01491,0.22886,-9.6299,0,0,45.477,1,1,753,995
2974,1.0175e+08,1,-0.00061789,0.010887,0.0069327,-0.0096065,0.21558,-9.6425,0,0,45.477,1,1,753,995
3009,1.0176e+08,1,-0.0014472,0.013159,0.0064525,-0.0044416,0.20329,-9.6642,0,0,45.477,1,1,753,995
3012,1.0176e+08,1,-0.0028881,0.014925,0.0037548,-0.0048168,0.20124,-9.6703,0,0,45.477,1,1,753,995
3016,1.0176e+08,1,-0.0046524,0.015437,-0.00027603,0.0057164,0.20909,-9.6804,0,0,45.477,1,1,753,995
3019,1.0176e+08,1,-0.0049787,0.015587,-0.001216,0.010214,0.22099,-9.6821,0,0,45.477,1,1,753,995
3054,1.0177e+08,1,-0.002657,0.016832,-0.00097638,0.016312,0.23079,-9.6993,0,0,45.477,1,1,753,995
3057,1.0177e+08,1,-0.00022797,0.014688,-0.00057655,0.00089487,0.24895,-9.7259,0,0,45.477,1,1,753,995
3060,1.0177e+08,1,4.1034e-05,0.013076,-0.00049849,-0.0093917,0.26119,-9.7312,0,0,45.477,1,1,753,995
3064,1.0177e+08,1,-0.0029358,0.012547,-0.0013656,-0.030211,0.28414,-9.7319,0,0,45.478,1,1,753,995
3099,1.0178e+08,1,-0.0045347,0.010581,-0.0016393,-0.041518,0.29618,-9.7547,0,0,45.478,1,1,753,995
3102,1.0178e+08,1,-0.0055032,0.010284,-0.00022926,-0.044198,0.29513,-9.7768,0,0,45.478,1,1,753,995
3106,1.0178e+08,1,-0.007121,0.012592,0.0050385,-0.056336,0.29859,-9.7925,0,0,45.478,1,1,753,995
3109,1.0178e+08,1,-0.0063569,0.013665,0.0049048,-0.057741,0.29613,-9.7904,0,0,45.478,1,1,753,995
3146,1.0179e+08,1,-0.0054956,0.01915,0.00058706,-0.035149,0.27286,-9.7723,0,0,45.478,1,1,753,995
3149,1.0179e+08,1,-0.005865,0.02331,-0.00038517,-0.028249,0.26105,-9.7695,0,0,45.478,1,1,753,995
3152,1.0179e+08,1,-0.0073229,0.025229,0.00045253,-0.032315,0.25493,-9.7604,0,0,45.478,1,1,753,995
3155,1.0179e+08,1,-0.0094229,0.023364,0.0026642,-0.049533,0.25144,-9.7445,0,0,45.479,1,1,753,995
3190,1.018e+08,1,-0.012577,0.020128,0.0025987,-0.070243,0.26405,-9.7585,0,0,45.479,1,1,753,995
3193,1.018e+08,1,-0.012943,0.019145,0.002382,-0.07644,0.27436,-9.778,0,0,45.479,1,1,753,995
3200,1.018e+08,1,-0.0071593,0.019587,0.0052793,-0.064746,0.27619,-9.7998,0,0,45.479,1,1,753,995
3204,1.018e+08,1,-0.0057764,0.020448,0.0056278,-0.049754,0.26494,-9.7948,0,0,45.479,1,1,753,995
3240,1.0181e+08,1,-0.0043964,0.022022,0.0043554,-0.039428,0.23653,-9.7777,0,0,45.479,1,1,753,995
3243,1.0181e+08,1,-0.00075847,0.021626,0.0058399,-0.037987,0.21317,-9.7705,0,0,45.479,1,1,753,995
3247,1.0181e+08,1,0.00020641,0.020451,0.0071688,-0.041564,0.19525,-9.7783,0,0,45.479,1,1,753,995
3250,1.0181e+08,1,0.0012286,0.018694,0.0089918,-0.042975,0.18919,-9.7817,0,0,45.479,1,1,753,995
3285,1.0182e+08,1,0.0016006,0.015403,0.0066957,-0.052446,0.17394,-9.7701,0,0,45.48,1,1,753,995
3288,1.0182e+08,1,0.00096923,0.012877,0.0040536,-0.063204,0.15933,-9.7469,0,0,45.48,1,1,753,995
3291,1.0182e+08,1,-0.003755,0.0097168,-0.0010992,-0.088537,0.13284,-9.709,0,0,45.48,1,1,753,995
3294,1.0182e+08,1,-0.0050615,0.011025,-0.00035213,-0.10028,0.1113,-9.6923,0,0,45.48,1,1,753,995
3329,1.0183e+08,1,-0.005921,0.014086,0.002311,-0.10852,0.10093,-9.6709,0,0,45.48,1,1,753,995
3332,1.0183e+08,1,-0.0077518,0.011553,0.0030885,-0.11471,0.10739,-9.651,0,0,45.48,1,1,753,995
3337,1.0183e+08,1,-0.0077613,0.01112,0.0028399,-0.11519,0.13555,-9.6288,0,0,45.48,1,1,753,995
3340,1.0184e+08,1,-0.005113,0.012527,0.0023631,-0.10728,0.1567,-9.6263,0,0,45.48,1,1,753,995
3375,1.0184e+08,1,0.00094681,0.013477,-0.001394,-0.088666,0.18535,-9.6375,0,0,45.481,1,1,753,995
3378,1.0184e+08,1,0.0021767,0.011797,-0.0011178,-0.079668,0.19649,-9.6559,0,0,45.481,1,1,753,995
3381,1.0184e+08,1,0.0013903,0.010724,0.0049298,-0.058601,0.21867,-9.6814,0,0,45.481,1,1,753,995
3386,1.0185e+08,1,-0.00011613,0.012813,0.0060172,-0.045406,0.23532,-9.7082,0,0,45.481,1,1,753,995
3421,1.0186e+08,1,-0.0042008,0.0078677,0.0051291,-0.042061,0.23079,-9.7608,0,0,45.482,1,1,753,995
3426,1.0186e+08,1,-0.0032213,0.0060267,0.0049627,-0.048936,0.24684,-9.737,0,0,45.482,1,1,753,995
3461,1.0186e+08,1,-0.0019246,0.0064706,0.0029852,-0.051804,0.2519,-9.7328,0,0,45.482,1,1,753,995
3465,1.0186e+08,1,-0.001363,0.012019,0.00072443,-0.052188,0.25438,-9.7476,0,0,45.482,1,1,753,995
3468,1.0186e+08,1,-0.00098461,0.018488,0.00061569,-0.051529,0.25427,-9.7719,0,0,45.482,1,1,753,995
3472,1.0187e+08,1,-0.0014588,0.016412,0.0024719,-0.050955,0.24546,-9.8091,0,0,45.482,1,1,753,995
3507,1.0187e+08,1,-0.0031043,0.0087125,0.0021182,-0.049589,0.23695,-9.8365,0,0,45.482,1,1,753,995
3510,1.0187e+08,1,-0.003624,0.0061034,0.00094211,-0.054599,0.22614,-9.8438,0,0,45.483,1,1,753,995
3513,1.0188e+08,1,-0.0036499,0.0059416,-1.8982e-05,-0.057941,0.22002,-9.831,0,0,45.483,1,1,753,995
3516,1.0188e+08,1,-0.0038033,0.0091304,0.00037024,-0.057202,0.2102,-9.806,0,0,45.483,1,1,753,995
3551,1.0188e+08,1,-0.0039465,0.01072,0.00092236,-0.050199,0.20483,-9.7806,0,0,45.483,1,1,753,995
3554,1.0188e+08,1,-0.0038365,0.010468,0.00012522,-0.039673,0.21128,-9.7686,0,0,45.484,1,1,753,995
3557,1.0189e+08,1,-0.0031036,0.010685,-0.0020367,-0.027335,0.22693,-9.7704,0,0,45.484,1,1,753,995
3561,1.0189e+08,1,-0.0012556,0.0088731,-0.0026551,-0.015856,0.26068,-9.7817,0,0,45.484,1,1,753,995
3596,1.0189e+08,1,-0.00096763,0.0071851,-0.0018122,-0.0019671,0.28233,-9.7769,0,0,45.484,1,1,753,995
3599,1.0189e+08,1,-0.00037637,0.0095805,-0.00041517,-0.0083386,0.2972,-9.7573,0,0,45.484,1,1,753,995
3602,1.019e+08,1,0.0020017,0.013355,0.0008467,-0.021814,0.29568,-9.7464,0,0,45.484,1,1,753,995
3606,1.019e+08,1,0.0035096,0.015343,0.0020391,-0.034836,0.28575,-9.7456,0,0,45.484,1,1,753,995
3641,1.019e+08,1,0.0018039,0.014479,0.0016692,-0.035136,0.28015,-9.724,0,0,45.484,1,1,753,995
3644,1.019e+08,1,0.00058332,0.015152,0.0016421,-0.029506,0.27659,-9.6944,0,0,45.484,1,1,753,995
3650,1.0191e+08,1,0.00027694,0.017618,0.0043556,-0.029312,0.27376,-9.684,0,0,45.485,1,1,753,995
3655,1.0191e+08,1,0.00016057,0.01834,0.006698,-0.029999,0.26448,-9.7044,0,0,45.485,1,1,753,995
3690,1.0191e+08,1,0.00018208,0.018655,0.0058656,-0.036368,0.22607,-9.7222,0,0,45.485,1,1,753,995
3693,1.0191e+08,1,0.00010587,0.018776,0.0042072,-0.037868,0.19685,-9.73,0,0,45.485,1,1,753,995
3696,1.0192e+08,1,-0.0012997,0.01677,-0.0021215,-0.038927,0.16416,-9.7387,0,0,45.486,1,1,753,995
3700,1.0192e+08,1,-0.0030048,0.014713,-0.0040853,-0.045748,0.15835,-9.7438,0,0,45.486,1,1,753,995
3735,1.0192e+08,1,-0.009554,0.01133,-0.0046906,-0.063461,0.17454,-9.7478,0,0,45.486,1,1,753,995
3738,1.0192e+08,1,-0.012324,0.014409,-0.0039995,-0.080914,0.2067,-9.7491,0,0,45.486,1,1,753,995
3741,1.0193e+08,1,-0.012137,0.016058,-0.0042862,-0.08766,0.21451,-9.7379,0,0,45.486,1,1,753,995
3744,1.0193e+08,1,-0.0062224,0.018095,-6.658e-05,-0.091352,0.20074,-9.7225,0,0,45.486,1,1,753,995
3779,1.0193e+08,1,-0.0054271,0.019465,0.0040244,-0.084987,0.18375,-9.7106,0,0,45.486,1,1,753,995
3782,1.0193e+08,1,-0.006501,0.020492,0.0051586,-0.072587,0.18214,-9.7058,0,0,45.486,1,1,753,995
3789,1.0194e+08,1,-0.0062625,0.022363,0.0052631,-0.060892,0.17369,-9.6878,0,0,45.487,1,1,753,995
3793,1.0194e+08,1,-0.0054471,0.022253,0.0054737,-0.059481,0.16449,-9.6827,0,0,45.487,1,1,753,995
3828,1.0194e+08,1,-0.0042169,0.019151,0.0055943,-0.080706,0.15452,-9.6834,0,0,45.487,1,1,753,995
3831,1.0195e+08,1,-0.0038769,0.015995,0.0023144,-0.10032,0.15345,-9.6828,0,0,45.487,1,1,753,995
3834,1.0195e+08,1,-0.0031825,0.015594,0.00059322,-0.10301,0.14616,-9.6848,0,0,45.487,1,1,753,995
3837,1.0195e+08,1,-0.0016303,0.018146,-0.0027624,-0.099674,0.12301,-9.6846,0,0,45.488,1,1,753,995
3840,1.0195e+08,1,-0.00047504,0.017011,-0.0039106,-0.093975,0.10918,-9.7033,0,0,45.488,1,1,753,995
3875,1.0196e+08,1,-0.0032207,0.014945,-0.0039726,-0.09623,0.11075,-9.7593,0,0,45.488,1,1,753,995
3878,1.0196e+08,1,-0.0045359,0.014989,-0.0033411,-0.090806,0.10706,-9.7755,0,0,45.488,1,1,753,995
3882,1.0196e+08,1,-0.0057921,0.019039,-0.001177,-0.083378,0.10497,-9.7608,0,0,45.488,1,1,753,995
3885,1.0196e+08,1,-0.0069022,0.020037,-0.0015183,-0.079832,0.11471,-9.754,0,0,45.488,1,1,753,995
3920,1.0197e+08,1,-0.0064536,0.019392,-0.004623,-0.070475,0.13867,-9.7716,0,0,45.488,1,1,753,995
3923,1.0197e+08,1,-0.0022034,0.016245,-0.0087267,-0.059359,0.16249,-9.7888,0,0,45.488,1,1,753,995
3926,1.0197e+08,1,-0.0016839,0.015787,-0.0071598,-0.050888,0.17517,-9.7912,0,0,45.489,1,1,753,995
3929,1.0197e+08,1,-0.0026129,0.012812,-0.0022192,-0.044446,0.19653,-9.7999,0,0,45.489,1,1,753,995
3964,1.0198e+08,1,-0.0053509,0.012039,-0.00010783,-0.047884,0.22346,-9.8129,0,0,45.489,1,1,753,995
3967,1.0198e+08,1,-0.0067368,0.011772,-3.5492e-05,-0.054733,0.24895,-9.8248,0,0,45.489,1,1,753,995
3972,1.0198e+08,1,-0.0062262,0.0090726,-0.00067141,-0.055132,0.26792,-9.8259,0,0,45.489,1,1,753,995
3975,1.0198e+08,1,-0.0032622,0.0074365,0.00029546,-0.051708,0.27022,-9.8138,0,0,45.489,1,1,753,995
4010,1.0199e+08,1,-0.0011852,0.0072769,-2.5075e-05,-0.043366,0.28067,-9.7878,0,0,45.489,1,1,753,995
4013,1.0199e+08,1,0.0026322,0.0095148,-0.0023112,-0.031644,0.29635,-9.7707,0,0,45.489,1,1,753,995
4019,1.0199e+08,1,0.003345,0.012307,-0.0022302,-0.024538,0.30105,-9.7343,0,0,45.489,1,1,753,995
4022,1.0199e+08,1,0.00024695,0.012478,-1.1302e-05,-0.033384,0.29115,-9.7035,0,0,45.49,1,1,753,995
4057,1.02e+08,1,-0.0044525,0.015271,0.00068712,-0.047693,0.2568,-9.6938,0,0,45.49,1,1,753,995
4060,1.02e+08,1,-0.0062737,0.016027,0.00027886,-0.056878,0.23352,-9.7077,0,0,45.49,1,1,753,995
4063,1.02e+08,1,-0.0052037,0.011572,-0.0024172,-0.071083,0.21258,-9.7168,0,0,45.49,1,1,753,995
4066,1.02e+08,1,-0.0038529,0.01022,-0.003468,-0.084039,0.19527,-9.7212,0,0,45.491,1,1,753,995
4103,1.0201e+08,1,-0.0026361,0.005613,-0.0039045,-0.10513,0.16579,-9.7247,0,0,45.491,1,1,753,995
4109,1.0201e+08,1,-0.0042634,0.0053674,-0.0034601,-0.10729,0.14811,-9.7321,0,0,45.491,1,1,753,995
4114,1.0201e+08,1,-0.0085616,0.0078374,-0.0031654,-0.10426,0.14194,-9.7544,0,0,45.491,1,1,753,995
4117,1.0201e+08,1,-0.012857,0.0095861,-0.0024306,-0.10326,0.15038,-9.7696,0,0,45.491,1,1,753,995
4152,1.0202e+08,1,-0.015869,0.0099038,-0.00052997,-0.087183,0.16502,-9.7767,0,0,45.491,1,1,753,995
4155,1.0202e+08,1,-0.016188,0.011129,0.00056934,-0.071466,0.16684,-9.7741,0,0,45.491,1,1,753,995
4158,1.0202e+08,1,-0.014902,0.01327,0.00039212,-0.05212,0.15963,-9.7809,0,0,45.491,1,1,753,995
4161,1.0202e+08,1,-0.01438,0.014494,-0.0012828,-0.040611,0.15651,-9.7889,0,0,45.491,1,1,753,995
4196,1.0203e+08,1,-0.011761,0.012928,-0.0076469,-0.032414,0.15078,-9.7958,0,0,45.492,1,1,753,995
4199,1.0203e+08,1,-0.010465,0.012614,-0.0086919,-0.029953,0.14437,-9.8041,0,0,45.492,1,1,753,995
4203,1.0203e+08,1,-0.007468,0.012611,-0.0073701,-0.035553,0.15446,-9.8172,0,0,45.492,1,1,753,995
4206,1.0203e+08,1,-0.0064552,0.011416,-0.0027948,-0.040349,0.16068,-9.8064,0,0,45.492,1,1,753,995
4241,1.0204e+08,1,-0.0067984,0.011644,-0.00036107,-0.060352,0.16737,-9.7926,0,0,45.492,1,1,753,995
4244,1.0204e+08,1,-0.0048582,0.011687,0.0016119,-0.065517,0.164,-9.7797,0,0,45.492,1,1,753,995
4248,1.0204e+08,1,-0.0017349,0.011956,0.0031848,-0.071348,0.16599,-9.7752,0,0,45.492,1,1,753,995
4251,1.0204e+08,1,-0.00097839,0.012829,0.0037634,-0.078751,0.1791,-9.7698,0,0,45.492,1,1,753,995
4286,1.0205e+08,1,-0.00021689,0.015141,0.00378,-0.08506,0.19655,-9.7602,0,0,45.492,1,1,753,995
4289,1.0205e+08,1,-0.00021226,0.017259,0.0031817,-0.088986,0.21202,-9.7554,0,0,45.493,1,1,753,995
4295,1.0205e+08,1,-0.0017901,0.017217,0.0028835,-0.091269,0.21925,-9.757,0,0,45.493,1,1,753,995
4298,1.0206e+08,1,-0.0024919,0.017425,0.0024537,-0.093474,0.2225,-9.7734,0,0,45.493,1,1,753,995
4333,1.0206e+08,1,-0.0032036,0.0192,0.0013976,-0.093064,0.22905,-9.7979,0,0,45.493,1,1,753,995
4336,1.0207e+08,1,0.0051833,0.011375,0.0068199,-0.078194,0.22629,-9.7879,0,0,45.493,1,1,753,995
4372,1.0207e+08,1,0.0052175,0.0098863,0.0052336,-0.09355,0.20753,-9.7888,0,0,45.493,1,1,753,995
4375,1.0207e+08,1,0.0042185,0.011609,0.006722,-0.10653,0.2007,-9.7787,0,0,45.494,1,1,753,995
4378,1.0208e+08,1,0.0033059,0.013271,0.0078421,-0.11881,0.20205,-9.7655,0,0,45.494,1,1,753,995
4381,1.0208e+08,1,-0.0012171,0.015626,0.0087019,-0.1328,0.20279,-9.7521,0,0,45.494,1,1,753,995
4416,1.0208e+08,1,-0.0039804,0.016654,0.0038651,-0.13971,0.21736,-9.7661,0,0,45.494,1,1,753,995
4420,1.0208e+08,1,-0.0035174,0.016496,0.0030246,-0.13903,0.22234,-9.7839,0,0,45.494,1,1,753,995
4423,1.0209e+08,1,-0.0013503,0.017184,0.0014027,-0.13397,0.20926,-9.8169,0,0,45.494,1,1,753,995
4426,1.0209e+08,1,-0.00040139,0.017089,0.00079196,-0.13416,0.20199,-9.8263,0,0,45.494,1,1,753,995
4461,1.0209e+08,1,0.0014511,0.01604,0.0016483,-0.13192,0.20626,-9.8376,0,0,45.494,1,1,753,995
4464,1.0209e+08,1,0.0026706,0.014475,0.0037146,-0.12458,0.20366,-9.8534,0,0,45.494,1,1,753,995
4467,1.021e+08,1,0.0022707,0.015773,0.0025259,-0.10105,0.21214,-9.8785,0,0,45.495,1,1,753,995
4470,1.021e+08,1,0.0023849,0.015655,0.0012219,-0.084234,0.22661,-9.8897,0,0,45.495,1,1,753,995
4505,1.021e+08,1,0.00081951,0.012342,0.0017485,-0.060629,0.27502,-9.8894,0,0,45.495,1,1,753,995
4509,1.021e+08,1,-0.00036345,0.011648,0.0015572,-0.049659,0.29267,-9.8721,0,0,45.495,1,1,753,995
4512,1.0211e+08,1,-0.00049587,0.015506,-4.5219e-05,-0.051476,0.30001,-9.8439,0,0,45.495,1,1,753,995
4515,1.0211e+08,1,0.00044549,0.015839,-0.00066415,-0.062549,0.30067,-9.8294,0,0,45.495,1,1,753,995
4550,1.0211e+08,1,0.0033439,0.010208,-0.0001275,-0.10199,0.29829,-9.8238,0,0,45.495,1,1,753,995
4556,1.0211e+08,1,0.0027767,0.0071815,0.0027824,-0.11545,0.29582,-9.8056,0,0,45.495,1,1,753,995
4561,1.0212e+08,1,0.00015754,0.0070361,0.0048853,-0.12457,0.28772,-9.7673,0,0,45.496,1,1,753,995
4564,1.0212e+08,1,-0.0006696,0.0066083,0.005227,-0.13528,0.25291,-9.7143,0,0,45.496,1,1,753,995
4599,1.0212e+08,1,-0.0023638,0.006879,0.0044176,-0.13069,0.23684,-9.6774,0,0,45.496,1,1,753,995
4603,1.0212e+08,1,-0.0024105,0.0079301,0.0033462,-0.1261,0.23509,-9.6779,0,0,45.496,1,1,753,995
4606,1.0213e+08,1,-0.0043857,0.010886,0.0001661,-0.1165,0.23727,-9.7036,0,0,45.496,1,1,753,995
4609,1.0213e+08,1,-0.007262,0.015059,-0.0014984,-0.10724,0.24834,-9.7319,0,0,45.496,1,1,753,995
4644,1.0213e+08,1,-0.0080706,0.014864,0.0010215,-0.10134,0.26734,-9.7715,0,0,45.496,1,1,753,995
4648,1.0213e+08,1,-0.0064418,0.0095064,0.002013,-0.10179,0.27415,-9.7974,0,0,45.496,1,1,753,995
4651,1.0214e+08,1,-0.0045777,0.0075325,0.0015814,-0.099037,0.28311,-9.8206,0,0,45.496,1,1,753,995
4654,1.0214e+08,1,-0.0045464,0.0080954,0.0010555,-0.093893,0.28698,-9.83,0,0,45.496,1,1,753,995
4689,1.0214e+08,1,-0.0056246,0.0088488,0.0024954,-0.093525,0.28422,-9.8412,0,0,45.496,1,1,753,995
4692,1.0214e+08,1,-0.0054245,0.0091382,0.0032096,-0.096433,0.28436,-9.8274,0,0,45.496,1,1,753,995
4695,1.0215e+08,1,-0.0029419,0.0081746,0.0043979,-0.10188,0.27826,-9.8027,0,0,45.496,1,1,753,995
4698,1.0215e+08,1,-0.0035105,0.0084751,0.0032451,-0.10379,0.2492,-9.7917,0,0,45.497,1,1,753,995
4733,1.0215e+08,1,-0.0040584,0.010543,-0.00012553,-0.099527,0.21116,-9.799,0,0,45.497,1,1,753,995
4738,1.0215e+08,1,-0.0038722,0.013159,-0.0030877,-0.087,0.19806,-9.7791,0,0,45.497,1,1,753,995
4741,1.0216e+08,1,-0.0028782,0.013936,-0.0018708,-0.074119,0.20015,-9.7582,0,0,45.497,1,1,753,995
4744,1.0216e+08,1,-0.00064438,0.014183,0.0024222,-0.059091,0.19246,-9.7244,0,0,45.497,1,1,753,995
4747,1.0216e+08,1,0.00027095,0.015662,0.0037248,-0.053925,0.183,-9.7053,0,0,45.497,1,1,753,995
4782,1.0216e+08,1,-0.0035243,0.020447,5.3916e-05,-0.046122,0.18407,-9.6775,0,0,45.497,1,1,753,995
4785,1.0217e+08,1,-0.0027196,0.019979,-0.002601,-0.044517,0.19555,-9.6862,0,0,45.497,1,1,753,995
4788,1.0217e+08,1,-0.00052541,0.019795,-0.004535,-0.049216,0.22697,-9.7073,0,0,45.498,1,1,753,995
4791,1.0217e+08,1,0.0004206,0.019658,-0.0043702,-0.058562,0.2412,-9.7198,0,0,45.498,1,1,753,995
4826,1.0218e+08,1,0.0021457,0.018648,-0.0028813,-0.072669,0.25135,-9.7404,0,0,45.498,1,1,753,995
4830,1.0218e+08,1,0.00084119,0.017294,-0.0020091,-0.077197,0.25514,-9.7458,0,0,45.498,1,1,753,995
4834,1.0218e+08,1,-0.0020184,0.015586,-0.00068781,-0.08363,0.25816,-9.7276,0,0,45.498,1,1,753,995
4837,1.0218e+08,1,-0.0032891,0.013893,-0.00070337,-0.08702,0.2667,-9.7222,0,0,45.498,1,1,753,995
4872,1.0219e+08,1,-0.003066,0.012285,-0.0033383,-0.094386,0.26977,-9.711,0,0,45.498,1,1,753,995
4876,1.0219e+08,1,-0.0038715,0.012822,-0.0045879,-0.10502,0.26109,-9.7022,0,0,45.498,1,1,753,995
4879,1.0219e+08,1,-0.002279,0.015981,-0.0040562,-0.10651,0.26962,-9.7063,0,0,45.498,1,1,753,995
4882,1.0219e+08,1,-0.0013116,0.018651,-0.0042229,-0.10712,0.28651,-9.722,0,0,45.498,1,1,753,995
4917,1.022e+08,1,-0.0020725,0.018257,-0.0043928,-0.10272,0.28728,-9.7479,0,0,45.498,1,1,753,995
4920,1.022e+08,1,-0.0020786,0.015202,-0.0027617,-0.10803,0.2796,-9.7642,0,0,45.498,1,1,753,995
4923,1.022e+08,1,-0.0023407,0.016682,-0.0023594,-0.11616,0.26432,-9.7828,0,0,45.498,1,1,753,995
4927,1.022e+08,1,-0.0023007,0.018715,-0.0018668,-0.12019,0.25612,-9.7846,0,0,45.498,1,1,753,995
4962,1.0221e+08,1,-0.0016323,0.019581,-0.0014467,-0.11883,0.25051,-9.7797,0,0,45.498,1,1,753,995
4966,1.0221e+08,1,-0.00095768,0.017991,-0.00069551,-0.11336,0.25763,-9.777,0,0,45.498,1,1,753,995
4969,1.0221e+08,1,0.0006482,0.012412,0.0019327,-0.097295,0.26573,-9.7808,0,0,45.498,1,1,753,995
4972,1.0221e+08,1,0.00055423,0.0097705,0.0016618,-0.088173,0.27065,-9.7899,0,0,45.499,1,1,753,995
5010,1.0222e+08,1,-0.0011777,0.010378,0.00023882,-0.07306,0.28355,-9.784,0,0,45.499,1,1,753,995
5014,1.0222e+08,1,-0.0013245,0.0099436,0.00095195,-0.059673,0.28803,-9.7725,0,0,45.499,1,1,753,995
5017,1.0222e+08,1,-0.0020426,0.010211,0.0001927,-0.034978,0.2957,-9.7612,0,0,45.499,1,1,753,995
5020,1.0222e+08,1,-0.0024927,0.014106,6.3163e-05,-0.026926,0.30278,-9.7631,0,0,45.499,1,1,753,995
5055,1.0223e+08,1,-0.0042691,0.017293,0.0011096,-0.029466,0.31341,-9.7946,0,0,45.499,1,1,753,995
5059,1.0223e+08,1,-0.0046168,0.017266,0.00162,-0.038256,0.31264,-9.8254,0,0,45.499,1,1,753,995
5063,1.0223e+08,1,-0.0027808,0.013871,0.0029796,-0.049809,0.29692,-9.8471,0,0,45.499,1,1,753,995
5066,1.0223e+08,1,-0.0024301,0.013626,0.0031731,-0.057047,0.28135,-9.8479,0,0,45.499,1,1,753,995
5101,1.0224e+08,1,-0.0026271,0.014236,0.0032034,-0.06379,0.24909,-9.8343,0,0,45.499,1,1,753,995
5107,1.0224e+08,1,-0.00178,0.016411,0.0039113,-0.060436,0.21227,-9.8168,0,0,45.499,1,1,753,995
5110,1.0224e+08,1,-0.0018541,0.017499,0.0044638,-0.057214,0.19488,-9.8075,0,0,45.499,1,1,753,995
5113,1.0225e+08,1,-0.0042238,0.013762,0.0028573,-0.074126,0.17797,-9.7508,0,0,45.5,1,1,753,995
5148,1.0225e+08,1,-0.0032337,0.013322,0.0031153,-0.089717,0.2038,-9.7391,0,0,45.5,1,1,753,995
5152,1.0226e+08,1,-0.0017241,0.012499,0.0032602,-0.09716,0.22156,-9.7387,0,0,45.5,1,1,753,995
5155,1.0226e+08,1,-0.0010499,0.012052,0.0042764,-0.097519,0.22764,-9.7364,0,0,45.5,1,1,753,995
5158,1.0226e+08,1,-0.0006484,0.012895,0.0062239,-0.095034,0.21598,-9.7276,0,0,45.5,1,1,753,995
5193,1.0226e+08,1,0.00070609,0.012777,0.0083526,-0.094153,0.20208,-9.6893,0,0,45.5,1,1,753,995
5196,1.0227e+08,1,0.00052809,0.012515,0.0087734,-0.085222,0.20169,-9.6638,0,0,45.5,1,1,753,995
5200,1.0227e+08,1,-0.0029505,0.014119,0.0027881,-0.075431,0.21188,-9.6365,0,0,45.5,1,1,753,995
5203,1.0227e+08,1,-0.0028851,0.01394,0.00084566,-0.063923,0.22028,-9.619,0,0,45.5,1,1,753,995
5238,1.0227e+08,1,-0.0017077,0.013701,0.0011373,-0.045998,0.21303,-9.6419,0,0,45.5,1,1,753,995
5242,1.0228e+08,1,-0.0019611,0.010789,0.0062414,-0.038501,0.20325,-9.6861,0,0,45.5,1,1,753,995
5245,1.0228e+08,1,-0.0030831,0.010444,0.0064644,-0.043136,0.19529,-9.7111,0,0,45.5,1,1,753,995
5248,1.0228e+08,1,-0.0068527,0.01248,0.005542,-0.045126,0.18407,-9.7449,0,0,45.5,1,1,753,995
5283,1.0229e+08,1,-0.0089885,0.01402,0.0055077,-0.045117,0.18028,-9.7657,0,0,45.5,1,1,753,995
5286,1.0229e+08,1,-0.0064144,0.014851,0.0069156,-0.049556,0.18445,-9.802,0,0,45.5,1,1,753,995
5290,1.0229e+08,1,-0.003281,0.015021,0.0090206,-0.049207,0.17943,-9.813,0,0,45.5,1,1,753,995
5293,1.0229e+08,1,-0.0037366,0.014026,0.0090468,-0.04081,0.17805,-9.7897,0,0,45.5,1,1,753,995
5328,1.023e+08,1,-0.0046402,0.013719,0.0076003,-0.036877,0.19053,-9.7624,0,0,45.5,1,1,753,995
5332,1.023e+08,1,-0.0048843,0.013523,0.0047199,-0.038663,0.21241,-9.717,0,0,45.5,1,1,753,995
5335,1.023e+08,1,-0.0020727,0.014223,0.0023763,-0.038371,0.21929,-9.6952,0,0,45.5,1,1,753,995
5338,1.023e+08,1,-0.00079919,0.013928,0.0018324,-0.041289,0.21441,-9.6867,0,0,45.501,1,1,753,995
5373,1.0231e+08,1,0.0015495,0.012883,0.00213,-0.054242,0.20611,-9.6914,0,0,45.501,1,1,753,995
5376,1.0231e+08,1,0.0016721,0.01289,0.0020184,-0.060617,0.1991,-9.7085,0,0,45.501,1,1,753,995
5379,1.0231e+08,1,0.0017835,0.01269,0.0012135,-0.056725,0.19193,-9.7211,0,0,45.501,1,1,753,995
5382,1.0231e+08,1,0.002039,0.012474,-0.0012236,-0.051549,0.18061,-9.7228,0,0,45.501,1,1,753,995
5417,1.0231e+08,1,0.002074,0.013354,-0.0044585,-0.050793,0.17151,-9.7161,0,0,45.501,1,1,753,995
5421,1.0232e+08,1,0.001652,0.01429,-0.0065188,-0.059229,0.1496,-9.7055,0,0,45.501,1,1,753,995
5427,1.0232e+08,1,-0.00029222,0.012892,-0.0042493,-0.058793,0.11648,-9.7016,0,0,45.501,1,1,753,995
5431,1.0232e+08,1,-0.0036799,0.010401,-0.00039186,-0.061656,0.10075,-9.7025,0,0,45.501,1,1,753,995
5466,1.0233e+08,1,-0.0062312,0.010993,-0.00046557,-0.079589,0.085261,-9.7299,0,0,45.501,1,1,753,995
5469,1.0233e+08,1,-0.0053796,0.012182,-0.001699,-0.086586,0.083345,-9.7394,0,0,45.501,1,1,753,995
5472,1.0233e+08,1,-0.0018235,0.014005,-0.0024675,-0.090944,0.088044,-9.7423,0,0,45.501,1,1,753,995
5475,1.0233e+08,1,0.0019231,0.014622,-0.0031371,-0.09939,0.095589,-9.7539,0,0,45.501,1,1,753,995
5510,1.0234e+08,1,0.0037109,0.014832,-0.0033159,-0.11363,0.10901,-9.7458,0,0,45.501,1,1,753,995
5514,1.0234e+08,1,0.00225,0.014106,-0.00081287,-0.11181,0.13081,-9.7292,0,0,45.501,1,1,753,995
5517,1.0234e+08,1,-0.0017915,0.012735,0.0024601,-0.10637,0.16729,-9.6967,0,0,45.501,1,1,753,995
5520,1.0234e+08,1,-0.0031999,0.012297,0.0036445,-0.10552,0.18982,-9.6909,0,0,45.501,1,1,753,995
5555,1.0235e+08,1,-0.0027887,0.01299,0.0040376,-0.10545,0.21241,-9.7112,0,0,45.501,1,1,753,995
5559,1.0235e+08,1,-0.00056688,0.0125,0.0020535,-0.10147,0.22695,-9.7396,0,0,45.501,1,1,753,995
5562,1.0235e+08,1,0.0001638,0.0098114,0.00093058,-0.089435,0.2304,-9.7649,0,0,45.501,1,1,753,995
5565,1.0235e+08,1,-0.00055384,0.0063182,0.001057,-0.067757,0.21576,-9.809,0,0,45.501,1,1,753,995
5600,1.0236e+08,1,-0.0023307,0.0055633,0.0029875,-0.057804,0.2066,-9.8461,0,0,45.501,1,1,753,995
5603,1.0236e+08,1,-0.0027937,0.0051831,0.0048443,-0.063784,0.19051,-9.8549,0,0,45.502,1,1,753,995
5606,1.0236e+08,1,-0.0013941,0.0038285,0.0044757,-0.073528,0.16022,-9.8362,0,0,45.502,1,1,753,995
5609,1.0236e+08,1,-0.0003649,0.0038594,0.0041468,-0.071121,0.15335,-9.8173,0,0,45.502,1,1,753,995
5644,1.0237e+08,1,0.0014573,0.012477,0.0055007,-0.062263,0.15389,-9.8033,0,0,45.502,1,1,753,995
5649,1.0237e+08,1,0.0010804,0.015485,0.0071198,-0.05961,0.14951,-9.7914,0,0,45.502,1,1,753,995
5652,1.0237e+08,1,-0.00090785,0.017574,0.010189,-0.052032,0.14161,-9.769,0,0,45.502,1,1,753,995
5655,1.0237e+08,1,-0.0021861,0.018005,0.008995,-0.052406,0.15174,-9.7457,0,0,45.502,1,1,753,995
5690,1.0238e+08,1,-0.0023687,0.016605,0.0062257,-0.061396,0.1662,-9.7104,0,0,45.502,1,1,753,995
5693,1.0238e+08,1,-0.0023936,0.013883,0.0025665,-0.063374,0.16795,-9.702,0,0,45.502,1,1,753,995
5696,1.0238e+08,1,-0.00069674,0.010452,-0.0018749,-0.068043,0.17368,-9.6964,0,0,45.502,1,1,753,995
5699,1.0238e+08,1,0.00053455,0.0079171,-0.002961,-0.074682,0.17941,-9.6967,0,0,45.502,1,1,753,995
5734,1.0239e+08,1,0.0017322,0.0066861,-0.00061635,-0.087508,0.18562,-9.7164,0,0,45.502,1,1,753,995
5738,1.0239e+08,1,0.00041034,0.0085087,0.0029263,-0.097732,0.20004,-9.7513,0,0,45.502,1,1,753,995
5741,1.0239e+08,1,-0.002743,0.010534,0.0033687,-0.10903,0.19854,-9.7715,0,0,45.502,1,1,753,995
5744,1.024e+08,1,-0.0047793,0.012244,0.0023913,-0.12171,0.19519,-9.7829,0,0,45.502,1,1,753,995
5779,1.024e+08,1,-0.009207,0.015689,0.00044347,-0.1122,0.20123,-9.803,0,0,45.502,1,1,753,995
5782,1.024e+08,1,-0.0083231,0.01586,0.00077516,-0.099059,0.20962,-9.8183,0,0,45.502,1,1,753,995
5785,1.024e+08,1,-0.0069865,0.014258,4.7885e-05,-0.090977,0.24164,-9.8467,0,0,45.502,1,1,753,995
5788,1.0241e+08,1,-0.00637,0.012296,-0.00033978,-0.094052,0.26489,-9.8505,0,0,45.502,1,1,753,995
5823,1.0241e+08,1,-0.0017306,0.008633,-0.00043005,-0.10701,0.27584,-9.8424,0,0,45.502,1,1,753,995
5827,1.0241e+08,1,0.00036586,0.008879,2.3171e-05,-0.11335,0.27881,-9.8366,0,0,45.502,1,1,753,995
5830,1.0241e+08,1,0.0047469,0.010337,0.0029659,-0.11449,0.27504,-9.8178,0,0,45.502,1,1,753,995
5833,1.0242e+08,1,0.0068492,0.011767,0.0064463,-0.11452,0.25451,-9.7924,0,0,45.502,1,1,753,995
5868,1.0242e+08,1,0.0072632,0.012853,0.0082524,-0.10881,0.21933,-9.7687,0,0,45.502,1,1,753,995
5872,1.0242e+08,1,0.0073929,0.014697,0.0045524,-0.10255,0.19619,-9.7588,0,0,45.502,1,1,753,995
5878,1.0242e+08,1,0.0041322,0.015931,-0.00030786,-0.092086,0.17898,-9.7345,0,0,45.502,1,1,753,995
5882,1.0243e+08,1,-0.0013711,0.015688,-0.003926,-0.090456,0.18049,-9.7142,0,0,45.502,1,1,753,995
5917,1.0243e+08,1,-0.0043673,0.015254,-0.0061414,-0.10038,0.19296,-9.6849,0,0,45.502,1,1,753,995
5920,1.0243e+08,1,-0.0053681,0.015419,-0.0059509,-0.11306,0.20403,-9.6708,0,0,45.502,1,1,753,995
5923,1.0243e+08,1,-0.0053574,0.01814,-0.0031118,-0.13458,0.23206,-9.6639,0,0,45.502,1,1,753,995
5926,1.0244e+08,1,-0.0047562,0.018397,-0.0016153,-0.14122,0.2464,-9.6611,0,0,45.502,1,1,753,995
5961,1.0244e+08,1,-0.0041677,0.01888,0.0032377,-0.14631,0.27604,-9.6827,0,0,45.502,1,1,753,995
5965,1.0244e+08,1,-0.0038032,0.020004,0.008936,-0.15419,0.30642,-9.709,0,0,45.502,1,1,753,995
5968,1.0244e+08,1,-0.0041979,0.02197,0.011656,-0.17386,0.33604,-9.7667,0,0,45.502,1,1,753,995
5973,1.0245e+08,1,-0.0044436,0.018851,0.0097399,-0.19104,0.34099,-9.801,0,0,45.502,1,1,753,995
6008,1.0245e+08,1,-0.0062814,0.014405,-0.0001137,-0.16422,0.28394,-9.786,0,0,45.503,1,1,753,995
6011,1.0245e+08,1,-0.0066713,0.013746,-0.0025293,-0.14455,0.27588,-9.754,0,0,45.503,1,1,753,995
6014,1.0246e+08,1,-0.0098027,0.012596,-0.0062002,-0.098742,0.25254,-9.6714,0,0,45.503,1,1,753,995
6047,1.0246e+08,1,-0.0067308,0.014033,-0.0071808,-0.084883,0.224,-9.6515,0,0,45.503,1,1,753,995
6051,1.0247e+08,1,-0.0035682,0.015045,-0.0074399,-0.088133,0.2074,-9.64,0,0,45.503,1,1,753,995
6054,1.0247e+08,1,-0.0023583,0.015106,-0.0037458,-0.097144,0.19083,-9.6318,0,0,45.503,1,1,753,995
6057,1.0247e+08,1,-0.0025175,0.01465,-0.0012617,-0.10788,0.16746,-9.6528,0,0,45.503,1,1,753,995
6090,1.0247e+08,1,-0.0055452,0.014358,0.0043095,-0.11885,0.16419,-9.7141,0,0,45.503,1,1,753,995
6093,1.0248e+08,1,-0.0063553,0.014208,0.005587,-0.134,0.17398,-9.7449,0,0,45.503,1,1,753,995
6097,1.0248e+08,1,-0.0057025,0.013933,0.0069728,-0.1602,0.18424,-9.7665,0,0,45.503,1,1,753,995
6100,1.0248e+08,1,-0.0051362,0.013442,0.0064724,-0.16742,0.17958,-9.7698,0,0,45.503,1,1,753,995
6133,1.0248e+08,1,-0.0039673,0.0092528,0.0063566,-0.15148,0.17292,-9.7743,0,0,45.503,1,1,753,995
6137,1.0249e+08,1,-0.0044539,0.006363,0.0073084,-0.13474,0.17452,-9.7676,0,0,45.503,1,1,753,995
6140,1.0249e+08,1,-0.0051043,0.0086638,0.0058522,-0.11248,0.17833,-9.7505,0,0,45.503,1,1,753,995
6143,1.0249e+08,1,-0.0081778,0.01094,0.0039094,-0.10148,0.17962,-9.7358,0,0,45.503,1,1,753,995
6176,1.0249e+08,1,-0.0096688,0.014158,0.0048049,-0.079024,0.18207,-9.706,0,0,45.503,1,1,753,995
6180,1.025e+08,1,-0.010195,0.015589,0.0061769,-0.063243,0.20139,-9.6749,0,0,45.503,1,1,753,995
6183,1.025e+08,1,-0.010824,0.016378,0.0017669,-0.057858,0.21621,-9.6576,0,0,45.503,1,1,753,995
6186,1.025e+08,1,-0.011125,0.016208,-0.0035403,-0.05885,0.23717,-9.6498,0,0,45.503,1,1,753,995
6221,1.025e+08,1,-0.010239,0.0155,-0.0048746,-0.058205,0.24878,-9.6466,0,0,45.503,1,1,753,995
6225,1.0251e+08,1,-0.0038578,0.013642,-0.0048397,-0.058607,0.26779,-9.6332,0,0,45.503,1,1,753,995
6228,1.0251e+08,1,-0.002112,0.013565,-0.0038615,-0.068172,0.2796,-9.6293,0,0,45.503,1,1,753,995
6231,1.0251e+08,1,-0.00011798,0.013557,-0.0019095,-0.078192,0.28178,-9.621,0,0,45.503,1,1,753,995
6264,1.0251e+08,1,0.00056603,0.016101,0.0013668,-0.088419,0.2708,-9.619,0,0,45.503,1,1,753,995
6268,1.0252e+08,1,0.00089343,0.016627,0.0021888,-0.10164,0.26954,-9.6339,0,0,45.503,1,1,753,995
6271,1.0252e+08,1,0.0019708,0.016167,0.0026047,-0.11061,0.2667,-9.6771,0,0,45.503,1,1,753,995
6274,1.0252e+08,1,0.0019727,0.012076,0.003066,-0.10685,0.26578,-9.6908,0,0,45.503,1,1,753,995
6307,1.0252e+08,1,0.00078959,0.0061479,0.0025483,-0.095615,0.26348,-9.7112,0,0,45.504,1,1,753,995
6313,1.0253e+08,1,0.0015508,0.0053891,0.00038141,-0.091896,0.25395,-9.7398,0,0,45.504,1,1,753,995
6317,1.0253e+08,1,0.0036185,0.0078251,-0.0006909,-0.086595,0.23282,-9.7738,0,0,45.504,1,1,753,995
6320,1.0253e+08,1,0.0035444,0.01004,-0.00057076,-0.082193,0.22186,-9.7948,0,0,45.504,1,1,753,995
6353,1.0253e+08,1,0.0025011,0.012013,-0.0010794,-0.072525,0.20644,-9.8102,0,0,45.504,1,1,753,995
6357,1.0254e+08,1,0.0012827,0.014732,-0.00047349,-0.059851,0.18874,-9.8029,0,0,45.504,1,1,753,995
6360,1.0254e+08,1,-0.0033876,0.017374,0.0019541,-0.061038,0.1734,-9.7818,0,0,45.504,1,1,753,995
6363,1.0254e+08,1,-0.0058978,0.019111,0.0028213,-0.075207,0.15576,-9.7522,0,0,45.504,1,1,753,995
6396,1.0255e+08,1,-0.0058438,0.018936,0.0034867,-0.083763,0.14486,-9.7323,0,0,45.504,1,1,753,995
6400,1.0255e+08,1,-0.0045656,0.017092,0.0075996,-0.094399,0.13293,-9.7149,0,0,45.504,1,1,753,995
6403,1.0255e+08,1,-0.0025253,0.015585,0.010089,-0.094782,0.13427,-9.7116,0,0,45.504,1,1,753,995
6406,1.0255e+08,1,-0.0012229,0.014719,0.01025,-0.098304,0.13222,-9.708,0,0,45.504,1,1,752,995
6439,1.0256e+08,1,-0.00068081,0.013345,0.0090063,-0.1023,0.13032,-9.7141,0,0,45.504,1,1,752,995
6443,1.0256e+08,1,-0.0023057,0.011833,0.0078898,-0.10361,0.13174,-9.7055,0,0,45.504,1,1,752,995
6446,1.0256e+08,1,-0.0042048,0.010755,0.0085059,-0.10245,0.13743,-9.6831,0,0,45.504,1,1,752,995
6449,1.0256e+08,1,-0.0052925,0.011791,0.0074176,-0.11053,0.14206,-9.6858,0,0,45.504,1,1,752,995
6482,1.0256e+08,1,-0.0057979,0.012977,0.0049605,-0.11902,0.15131,-9.6979,0,0,45.504,1,1,752,995
6486,1.0257e+08,1,-0.0037725,0.013716,0.0041646,-0.12138,0.16232,-9.7351,0,0,45.504,1,1,752,995
6489,1.0257e+08,1,-0.002751,0.014791,0.0035051,-0.11114,0.17019,-9.7622,0,0,45.504,1,1,752,995
6492,1.0257e+08,1,-0.0042274,0.015795,0.0030128,-0.10737,0.18238,-9.7743,0,0,45.504,1,1,752,995
6526,1.0257e+08,1,-0.0046184,0.015852,0.0032911,-0.1038,0.19696,-9.7833,0,0,45.504,1,1,752,995
6529,1.0258e+08,1,-0.0040242,0.015358,0.002961,-0.10375,0.20123,-9.7939,0,0,45.504,1,1,752,995
6532,1.0258e+08,1,-0.0014739,0.012648,0.0061249,-0.11148,0.18935,-9.8059,0,0,45.505,1,1,752,995
6535,1.0258e+08,1,-0.0017668,0.011277,0.007962,-0.11272,0.19675,-9.7991,0,0,45.505,1,1,752,995
6538,1.0258e+08,1,-0.003658,0.0080737,0.0096471,-0.13124,0.21894,-9.7805,0,0,45.505,1,1,752,995
6572,1.0259e+08,1,-0.0061967,0.0076191,0.0093731,-0.15426,0.23168,-9.773,0,0,45.505,1,1,752,995
6575,1.0259e+08,1,-0.0065872,0.0075976,0.0073227,-0.17313,0.24175,-9.7597,0,0,45.505,1,1,752,995
6578,1.0259e+08,1,-0.0060677,0.0074408,0.0059923,-0.17871,0.26367,-9.7365,0,0,45.505,1,1,752,995
6581,1.026e+08,1,-0.0066113,0.0075999,0.0062652,-0.17743,0.28319,-9.7215,0,0,45.505,1,1,752,995
6614,1.026e+08,1,-0.0079575,0.0094944,0.0021911,-0.15754,0.29177,-9.718,0,0,45.505,1,1,752,995
6618,1.026e+08,1,-0.0053712,0.0098868,-0.0016399,-0.14306,0.29113,-9.7209,0,0,45.505,1,1,752,995
6621,1.026e+08,1,-0.0033433,0.0088366,-0.0015971,-0.12841,0.29429,-9.7184,0,0,45.505,1,1,752,995
6624,1.0261e+08,1,0.00085333,0.0083613,0.00075484,-0.11991,0.31161,-9.7298,0,0,45.505,1,1,752,995
6657,1.0261e+08,1,0.0034372,0.0092647,0.003823,-0.11825,0.31455,-9.7409,0,0,45.505,1,1,752,995
6660,1.0261e+08,1,0.0038174,0.0088309,0.0040273,-0.12255,0.30558,-9.7297,0,0,45.505,1,1,752,995
6663,1.0261e+08,1,0.0030073,0.0077785,0.0032209,-0.12635,0.29327,-9.7202,0,0,45.505,1,1,752,995
6666,1.0262e+08,1,-0.00015588,0.006618,0.0034539,-0.10861,0.28104,-9.7197,0,0,45.505,1,1,752,995
6699,1.0262e+08,1,-0.0039904,0.0057313,0.0065583,-0.10766,0.27283,-9.7168,0,0,45.505,1,1,752,995
6703,1.0262e+08,1,-0.0080624,0.0068804,0.0077096,-0.10931,0.27114,-9.7164,0,0,45.505,1,1,752,995
6706,1.0262e+08,1,-0.0096916,0.0080352,0.0070757,-0.10333,0.26828,-9.7203,0,0,45.505,1,1,752,995
6709,1.0263e+08,1,-0.008287,0.012522,0.0044811,-0.0952,0.24848,-9.7289,0,0,45.505,1,1,752,995
6745,1.0263e+08,1,-0.0037593,0.013901,0.0019845,-0.086036,0.2178,-9.7175,0,0,45.505,1,1,752,995
6749,1.0263e+08,1,-0.0012422,0.014407,0.0017216,-0.082461,0.20973,-9.706,0,0,45.505,1,1,752,995
6752,1.0263e+08,1,0.0030529,0.015296,0.0018605,-0.087269,0.20723,-9.7015,0,0,45.505,1,1,752,995
6755,1.0264e+08,1,0.0047925,0.015337,0.0023137,-0.091035,0.21317,-9.7068,0,0,45.505,1,1,752,995
6788,1.0264e+08,1,0.0041913,0.014825,0.0055128,-0.083902,0.20533,-9.705,0,0,45.505,1,1,752,995
6792,1.0264e+08,1,0.0024217,0.015727,0.0092196,-0.077969,0.1961,-9.7047,0,0,45.505,1,1,752,995
6795,1.0264e+08,1,-0.00099716,0.015459,0.010383,-0.07757,0.20575,-9.7068,0,0,45.505,1,1,752,995
6798,1.0265e+08,1,-0.0016675,0.013696,0.0083303,-0.082288,0.22005,-9.7193,0,0,45.506,1,1,752,995
6831,1.0265e+08,1,-0.00063379,0.011,0.0052426,-0.090949,0.23994,-9.7234,0,0,45.506,1,1,752,995
6836,1.0265e+08,1,-0.0010528,0.011408,0.0035287,-0.093344,0.25078,-9.7089,0,0,45.506,1,1,752,995
6839,1.0265e+08,1,-0.0024961,0.013426,0.0048363,-0.093215,0.26637,-9.6905,0,0,45.506,1,1,752,995
6842,1.0266e+08,1,0.0011483,0.012543,0.0060482,-0.098323,0.28176,-9.6613,0,0,45.506,1,1,752,995
6876,1.0266e+08,1,0.0038368,0.016878,0.0036048,-0.096304,0.30381,-9.6584,0,0,45.506,1,1,752,995
6879,1.0267e+08,1,0.0028978,0.018062,0.0037086,-0.099138,0.31054,-9.6814,0,0,45.506,1,1,752,995
6882,1.0267e+08,1,0.002065,0.015514,0.0026184,-0.1021,0.31017,-9.6941,0,0,45.506,1,1,752,995
6917,1.0268e+08,1,-0.0045326,0.017212,-0.0047151,-0.12298,0.28892,-9.7215,0,0,45.506,1,1,752,995
6920,1.0268e+08,1,-0.0069746,0.01922,-0.0074903,-0.13476,0.27647,-9.7264,0,0,45.507,1,1,752,995
6923,1.0268e+08,1,-0.0057371,0.019213,-0.0087022,-0.14532,0.26701,-9.7264,0,0,45.507,1,1,752,995
6958,1.0268e+08,1,-0.0026413,0.016741,-0.0055686,-0.15172,0.25212,-9.7009,0,0,45.507,1,1,752,995
6961,1.0269e+08,1,-0.00074262,0.015805,-0.002352,-0.14857,0.23628,-9.6931,0,0,45.507,1,1,752,995
6964,1.0269e+08,1,0.00080859,0.01567,-0.00082778,-0.13981,0.22606,-9.6937,0,0,45.507,1,1,752,995
6967,1.0269e+08,1,0.0014877,0.016846,0.00068437,-0.1318,0.23084,-9.704,0,0,45.507,1,1,752,995
7002,1.0269e+08,1,0.0020961,0.016317,0.0022295,-0.12266,0.24634,-9.7084,0,0,45.507,1,1,752,995
7005,1.027e+08,1,0.0035571,0.015561,0.0033585,-0.11286,0.25967,-9.7001,0,0,45.507,1,1,752,995
7009,1.027e+08,1,0.00721,0.014667,0.0051357,-0.1041,0.28245,-9.6971,0,0,45.507,1,1,752,995
7012,1.027e+08,1,0.0085516,0.013808,0.005228,-0.10335,0.29245,-9.6874,0,0,45.507,1,1,752,995
7047,1.027e+08,1,0.0084886,0.012421,0.004475,-0.098723,0.29145,-9.6767,0,0,45.507,1,1,752,995
7050,1.0271e+08,1,0.007236,0.013007,0.0049103,-0.079279,0.28787,-9.6476,0,0,45.507,1,1,752,995
7055,1.0271e+08,1,0.0027988,0.013609,0.0054808,-0.065264,0.28122,-9.6323,0,0,45.507,1,1,752,995
7058,1.0271e+08,1,-0.00084793,0.012831,0.0044735,-0.059213,0.26847,-9.6372,0,0,45.508,1,1,752,995
7093,1.0271e+08,1,-0.0019575,0.013151,0.0052292,-0.048062,0.24164,-9.6659,0,0,45.508,1,1,752,995
7096,1.0272e+08,1,-0.0027517,0.013621,0.0064992,-0.040821,0.21805,-9.6844,0,0,45.508,1,1,752,995
7099,1.0272e+08,1,-0.0043614,0.014451,0.0074532,-0.033854,0.18261,-9.7202,0,0,45.508,1,1,752,995
7102,1.0272e+08,1,-0.0043255,0.014677,0.0075668,-0.044387,0.1731,-9.7445,0,0,45.508,1,1,752,995
7137,1.0272e+08,1,-0.0026161,0.013369,0.0073857,-0.080982,0.16689,-9.8016,0,0,45.508,1,1,752,995
7140,1.0273e+08,1,-0.0021901,0.012614,0.0076193,-0.10033,0.17179,-9.8217,0,0,45.508,1,1,752,995
7144,1.0273e+08,1,-0.0013352,0.0085794,0.0069077,-0.11931,0.1665,-9.8124,0,0,45.508,1,1,752,995
7150,1.0273e+08,1,-0.0018957,0.0073324,0.0060192,-0.11961,0.14996,-9.7986,0,0,45.508,1,1,752,995
7186,1.0273e+08,1,-0.005142,0.0099475,0.0047874,-0.11505,0.12991,-9.7812,0,0,45.508,1,1,752,995
7189,1.0274e+08,1,-0.0064014,0.013667,0.0016511,-0.10866,0.12392,-9.7683,0,0,45.508,1,1,752,995
7192,1.0274e+08,1,-0.0051631,0.016941,-0.002806,-0.086016,0.10739,-9.7395,0,0,45.508,1,1,752,995
7195,1.0274e+08,1,-0.0034704,0.01585,-0.0024423,-0.068213,0.10293,-9.7396,0,0,45.508,1,1,752,995
7230,1.0274e+08,1,-0.0014227,0.012113,0.0014061,-0.035778,0.11336,-9.7525,0,0,45.509,1,1,752,995
7233,1.0275e+08,1,-0.0010963,0.0097706,0.0056011,-0.013109,0.12569,-9.7393,0,0,45.509,1,1,752,995
7238,1.0275e+08,1,-0.0025555,0.0083973,0.0087167,-0.001065,0.13066,-9.7219,0,0,45.509,1,1,752,995
7241,1.0275e+08,1,-0.005203,0.0056431,0.0072673,0.016133,0.13642,-9.7318,0,0,45.509,1,1,752,995
7276,1.0275e+08,1,-0.0073843,0.0028508,0.0055441,0.025657,0.15156,-9.7687,0,0,45.509,1,1,752,995
7279,1.0276e+08,1,-0.0078196,0.0019909,0.0043131,0.024956,0.1561,-9.7828,0,0,45.509,1,1,752,995
7282,1.0276e+08,1,-0.0066174,0.0048121,0.0046466,0.030912,0.15841,-9.7918,0,0,45.509,1,1,752,995
7285,1.0276e+08,1,-0.005537,0.0062197,0.0046115,0.031605,0.15759,-9.7922,0,0,45.509,1,1,752,995
7320,1.0276e+08,1,-0.00073248,0.0091777,0.0010044,0.013052,0.14868,-9.8013,0,0,45.509,1,1,752,995
7323,1.0277e+08,1,0.00061232,0.0093763,-0.00095366,-0.0057953,0.15375,-9.8085,0,0,45.51,1,1,752,995
7327,1.0277e+08,1,0.00026484,0.010123,-0.00164,-0.021484,0.17432,-9.8364,0,0,45.51,1,1,752,995
7330,1.0277e+08,1,-0.0035653,0.012281,9.4491e-05,-0.021779,0.19441,-9.8501,0,0,45.51,1,1,752,995
7365,1.0277e+08,1,-0.0067939,0.01193,0.001858,-0.012603,0.21384,-9.8658,0,0,45.51,1,1,752,995
7368,1.0278e+08,1,-0.0066856,0.011756,0.0032739,-0.016637,0.22453,-9.8557,0,0,45.51,1,1,752,995
7371,1.0278e+08,1,-0.00066808,0.012861,0.0028925,-0.038769,0.22366,-9.8102,0,0,45.51,1,1,752,995
7406,1.0279e+08,1,0.0024835,0.013669,0.0026574,-0.04258,0.22677,-9.7832,0,0,45.51,1,1,752,995
7409,1.0279e+08,1,0.0034542,0.013141,0.0047573,-0.031392,0.23829,-9.7457,0,0,45.51,1,1,752,995
7413,1.0279e+08,1,0.0015523,0.012373,0.0057619,-0.027755,0.2407,-9.7289,0,0,45.51,1,1,752,995
7416,1.0279e+08,1,-0.0015654,0.012399,0.0031016,-0.035726,0.2294,-9.7171,0,0,45.51,1,1,752,995
7451,1.028e+08,1,-0.0047092,0.013923,-0.0014414,-0.049428,0.22381,-9.717,0,0,45.51,1,1,752,995
7454,1.028e+08,1,-0.0062927,0.01665,-0.0037251,-0.059059,0.21845,-9.7309,0,0,45.51,1,1,752,995
7459,1.028e+08,1,-0.0061595,0.017067,-0.0023916,-0.067535,0.21197,-9.7433,0,0,45.511,1,1,752,995
7463,1.028e+08,1,-0.0048705,0.017679,-0.0012792,-0.069161,0.2103,-9.734,0,0,45.511,1,1,752,995
7499,1.0281e+08,1,0.0010688,0.018146,0.0029284,-0.062674,0.21714,-9.7177,0,0,45.511,1,1,752,995
7502,1.0281e+08,1,0.0016913,0.017702,0.0036717,-0.061438,0.23119,-9.7006,0,0,45.511,1,1,752,995
7505,1.0281e+08,1,0.0022111,0.016787,0.0041855,-0.059418,0.26539,-9.6758,0,0,45.511,1,1,752,995
7508,1.0281e+08,1,0.0037216,0.013462,0.0042523,-0.061644,0.29148,-9.6612,0,0,45.511,1,1,752,995
7543,1.0282e+08,1,0.0034036,0.011204,0.0024423,-0.067931,0.31695,-9.6617,0,0,45.511,1,1,752,995
7546,1.0282e+08,1,0.0021783,0.010642,0.00057152,-0.077698,0.32602,-9.6732,0,0,45.511,1,1,752,995
7550,1.0282e+08,1,-0.0014367,0.009727,0.0026747,-0.093914,0.33271,-9.6868,0,0,45.511,1,1,752,995
7553,1.0282e+08,1,-0.0036055,0.0091178,0.0061511,-0.10056,0.33446,-9.6865,0,0,45.511,1,1,752,995
7588,1.0283e+08,1,-0.00036397,0.0082506,0.0093546,-0.11173,0.31663,-9.6792,0,0,45.511,1,1,752,995
7591,1.0283e+08,1,0.0010132,0.008131,0.010973,-0.11071,0.29549,-9.6725,0,0,45.511,1,1,752,995
7594,1.0283e+08,1,-0.0008574,0.012579,0.011211,-0.097355,0.26096,-9.6555,0,0,45.511,1,1,752,995
7600,1.0283e+08,1,-0.0025179,0.013745,0.0086428,-0.088207,0.24586,-9.6311,0,0,45.512,1,1,752,995
7636,1.0284e+08,1,0.0011879,0.013644,0.0023447,-0.091004,0.23262,-9.5896,0,0,45.512,1,1,752,995
7641,1.0284e+08,1,0.0034999,0.0098148,0.0049271,-0.098085,0.21037,-9.5873,0,0,45.512,1,1,752,995
7645,1.0285e+08,1,-0.005957,0.015534,0.011398,-0.09817,0.16165,-9.6761,0,0,45.512,1,1,752,995
7680,1.0285e+08,1,-0.0076553,0.014553,0.010599,-0.10011,0.16163,-9.683,0,0,45.512,1,1,752,995
7684,1.0285e+08,1,-0.010783,0.016542,0.012218,-0.10977,0.19337,-9.7053,0,0,45.512,1,1,752,995
7687,1.0285e+08,1,-0.0039862,0.01746,0.01463,-0.099416,0.22846,-9.7132,0,0,45.512,1,1,752,995
7690,1.0286e+08,1,0.010339,0.013195,0.015126,-0.076298,0.21382,-9.7152,0,0,45.512,1,1,752,995
7725,1.0286e+08,1,0.0079136,0.0095105,0.015694,-0.060001,0.14494,-9.7027,0,0,45.512,1,1,752,995
7728,1.0286e+08,1,-0.016141,0.014305,0.014956,-0.058559,0.12221,-9.6616,0,0,45.512,1,1,752,995
7732,1.0287e+08,1,-0.023464,0.021558,0.013915,-0.054858,0.15785,-9.6026,0,0,45.512,1,1,752,995
7735,1.0287e+08,1,-0.011896,0.021243,0.010867,-0.043988,0.17178,-9.6069,0,0,45.512,1,1,752,995
7770,1.0287e+08,1,0.027969,0.009016,0.0011978,-0.036649,0.12564,-9.6153,0,0,45.512,1,1,752,995
7774,1.0287e+08,1,0.020122,0.0076901,0.00080055,-0.038771,0.094892,-9.6031,0,0,45.512,1,1,752,995
7777,1.0288e+08,1,-0.035322,0.019404,0.007686,-0.017569,0.1563,-9.5739,0,0,45.513,1,1,752,995
7780,1.0288e+08,1,-0.016445,0.019227,0.0094525,0.020601,0.24858,-9.6038,0,0,45.513,1,1,752,995
7815,1.0288e+08,1,0.027634,0.0094795,0.0066891,0.028268,0.21461,-9.6736,0,0,45.513,1,1,752,995
7818,1.0288e+08,1,0.021124,0.013046,0.0046912,0.01542,0.17531,-9.6715,0,0,45.513,1,1,752,995
7821,1.0289e+08,1,-0.0017234,0.020568,0.0044297,0.0080096,0.18863,-9.6509,0,0,45.513,1,1,752,995
7824,1.0289e+08,1,-0.037301,0.032587,0.0019335,0.022928,0.27996,-9.6346,0,0,45.513,1,1,752,995
7859,1.0289e+08,1,0.010835,0.016122,-0.0098477,0.0081601,0.30447,-9.6692,0,0,45.513,1,1,752,995
7863,1.0289e+08,1,0.030741,0.012186,-0.012853,-0.027034,0.26064,-9.6778,0,0,45.513,1,1,752,995
7866,1.029e+08,1,0.024818,0.022686,-0.013137,-0.041432,0.19341,-9.6433,0,0,45.513,1,1,752,995
7869,1.029e+08,1,-0.020679,0.038207,-0.011813,-0.016726,0.21949,-9.6263,0,0,45.513,1,1,752,995
7904,1.029e+08,1,-0.012228,0.014702,-0.020461,-0.0080446,0.30238,-9.6563,0,0,45.513,1,1,752,995
7907,1.029e+08,1,0.010935,0.0046735,-0.024961,-0.055876,0.26657,-9.6645,0,0,45.513,1,1,752,995
7911,1.0291e+08,1,0.032634,0.0077943,-0.029134,-0.092073,0.21739,-9.6453,0,0,45.513,1,1,752,995
7915,1.0291e+08,1,0.001026,0.028846,-0.024537,-0.077629,0.21461,-9.6001,0,0,45.513,1,1,752,995
7950,1.0291e+08,1,-0.02787,0.019082,-0.025927,-0.051325,0.28029,-9.5976,0,0,45.513,1,1,752,995
7954,1.0291e+08,1,0.0049892,-0.0011291,-0.030771,-0.082963,0.30485,-9.6245,0,0,45.513,1,1,752,995
7957,1.0292e+08,1,0.020549,0.0010343,-0.030837,-0.10044,0.27767,-9.6333,0,0,45.513,1,1,752,995
7960,1.0292e+08,1,0.006304,0.028809,-0.02452,-0.05111,0.26357,-9.6513,0,0,45.513,1,1,752,995
7995,1.0292e+08,1,-0.018097,0.018479,-0.022151,0.0046166,0.30268,-9.6734,0,0,45.513,1,1,752,995
7999,1.0293e+08,1,-0.022103,0.0079163,-0.022221,-0.014526,0.31679,-9.6762,0,0,45.513,1,1,752,995
8002,1.0293e+08,1,-0.0012809,0.0065841,-0.021698,-0.056371,0.32244,-9.7189,0,0,45.513,1,1,752,995
8006,1.0293e+08,1,0.0072621,0.015741,-0.02075,-0.046389,0.3035,-9.7685,0,0,45.513,1,1,752,995
8041,1.0293e+08,1,0.012236,0.024123,-0.021535,-0.0063204,0.25721,-9.8236,0,0,45.513,1,1,752,995
8044,1.0294e+08,1,0.003444,0.011304,-0.026831,-0.0092673,0.23767,-9.8028,0,0,45.513,1,1,752,995
8050,1.0294e+08,1,-0.010141,0.0033585,-0.032265,-0.049159,0.21682,-9.7178,0,0,45.513,1,1,752,995
8054,1.0294e+08,1,-0.012249,0.011724,-0.031653,-0.046088,0.21822,-9.7027,0,0,45.513,1,1,752,995
8089,1.0294e+08,1,0.0014417,0.01338,-0.025496,-0.021032,0.22806,-9.7395,0,0,45.513,1,1,752,995
8093,1.0295e+08,1,0.016146,0.0064586,-0.018993,-0.020475,0.21215,-9.7394,0,0,45.513,1,1,752,995
8096,1.0295e+08,1,0.006811,0.01174,-0.012843,-0.027493,0.18556,-9.6809,0,0,45.513,1,1,752,995
8099,1.0295e+08,1,-0.0080645,0.017869,-0.009415,-0.01969,0.19515,-9.6333,0,0,45.513,1,1,752,995
8134,1.0295e+08,1,-0.030807,0.026143,-0.0051429,0.0019671,0.24634,-9.6442,0,0,45.513,1,1,752,995
8137,1.0296e+08,1,-0.019336,0.021437,-0.0058533,-0.0052357,0.26705,-9.6934,0,0,45.513,1,1,752,995
8140,1.0296e+08,1,0.010397,0.013772,-0.0061736,-0.049199,0.23329,-9.7382,0,0,45.513,1,1,752,995
8143,1.0296e+08,1,0.0086236,0.019946,-0.0044347,-0.055412,0.20184,-9.7176,0,0,45.513,1,1,752,995
8179,1.0296e+08,1,-0.022868,0.030464,0.0016062,-0.025336,0.22597,-9.6551,0,0,45.513,1,1,752,995
8183,1.0297e+08,1,-0.030969,0.025592,0.0061508,-0.014796,0.28725,-9.624,0,0,45.513,1,1,752,995
8186,1.0297e+08,1,-0.0040219,0.012187,0.0082249,-0.0287,0.28682,-9.6092,0,0,45.513,1,1,752,995
8189,1.0297e+08,1,0.0095828,0.011388,0.012402,-0.061834,0.26344,-9.5971,0,0,45.513,1,1,752,995
8224,1.0297e+08,1,-0.0099538,0.021981,0.016199,-0.081342,0.30326,-9.5957,0,0,45.513,1,1,752,995
8227,1.0298e+08,1,-0.025763,0.025687,0.016259,-0.096942,0.35855,-9.6013,0,0,45.513,1,1,752,995
8230,1.0298e+08,1,-0.011021,0.019443,0.016737,-0.1182,0.3785,-9.6402,0,0,45.513,1,1,752,995
8234,1.0298e+08,1,0.0063475,0.015491,0.02123,-0.13175,0.35327,-9.6785,0,0,45.513,1,1,752,995
8269,1.0299e+08,1,-0.013757,0.028679,0.028092,-0.14327,0.32543,-9.7228,0,0,45.513,1,1,752,995
8274,1.0299e+08,1,-0.019024,0.034473,0.028161,-0.1264,0.36306,-9.7181,0,0,45.513,1,1,752,995
8277,1.0299e+08,1,-0.0038376,0.035526,0.028999,-0.088152,0.35226,-9.7357,0,0,45.513,1,1,752,995
8280,1.0299e+08,1,0.019957,0.019482,0.028055,-0.070675,0.2898,-9.7466,0,0,45.513,1,1,752,995
8317,1.03e+08,1,-0.0062707,0.0079761,0.02178,-0.055967,0.22613,-9.7548,0,0,45.513,1,1,752,995
8321,1.03e+08,1,-0.021647,0.017852,0.024043,-0.037122,0.24654,-9.7532,0,0,45.513,1,1,752,995
8324,1.03e+08,1,0.0025363,0.020101,0.027902,-0.011304,0.24582,-9.7574,0,0,45.513,1,1,752,995
8327,1.03e+08,1,0.018192,0.017023,0.029206,-0.019293,0.21224,-9.7671,0,0,45.513,1,1,752,995
8362,1.0301e+08,1,0.012723,0.0078671,0.031281,-0.042873,0.18532,-9.7793,0,0,45.513,1,1,752,995
8365,1.0301e+08,1,-0.0029516,0.0098609,0.031755,-0.044844,0.20462,-9.7761,0,0,45.513,1,1,752,995
8368,1.0301e+08,1,-0.020054,0.014929,0.031852,-0.045201,0.2525,-9.7423,0,0,45.513,1,1,752,995
8371,1.0301e+08,1,-0.0063839,0.014775,0.028797,-0.063377,0.26974,-9.6991,0,0,45.513,1,1,752,995
8406,1.0302e+08,1,0.012092,0.012465,0.023968,-0.11405,0.25216,-9.6729,0,0,45.513,1,1,752,995
8410,1.0302e+08,1,0.010023,0.012161,0.021489,-0.14086,0.24166,-9.7117,0,0,45.513,1,1,752,995
8413,1.0302e+08,1,-0.0062441,0.013442,0.018141,-0.15061,0.25009,-9.7274,0,0,45.513,1,1,752,995
8418,1.0302e+08,1,-0.015517,0.017584,0.014462,-0.17002,0.25352,-9.702,0,0,45.513,1,1,752,995
8453,1.0303e+08,1,-0.010014,0.023722,0.012539,-0.16593,0.24321,-9.6686,0,0,45.513,1,1,752,995
8457,1.0303e+08,1,0.0043155,0.021727,0.011787,-0.14681,0.23348,-9.6645,0,0,45.513,1,1,752,995
8460,1.0303e+08,1,0.012617,0.0073632,0.0097913,-0.13708,0.20445,-9.6685,0,0,45.513,1,1,752,995
8463,1.0303e+08,1,0.0015344,0.0049529,0.0064659,-0.13982,0.18056,-9.6819,0,0,45.513,1,1,752,995
8498,1.0304e+08,1,-0.020342,0.019295,0.0049367,-0.098386,0.16964,-9.6902,0,0,45.513,1,1,752,995
8502,1.0304e+08,1,-0.025541,0.026205,0.0037404,-0.032806,0.17215,-9.6839,0,0,45.513,1,1,752,995
8508,1.0304e+08,1,-0.0082357,0.01618,0.0008249,0.029485,0.17611,-9.6916,0,0,45.512,1,1,752,995
8512,1.0304e+08,1,0.0015087,0.011766,-0.0012743,0.031519,0.17087,-9.7066,0,0,45.512,1,1,752,995
8549,1.0305e+08,1,-0.004626,0.01917,-0.0076433,0.058507,0.15957,-9.7383,0,0,45.512,1,1,752,995
8553,1.0305e+08,1,-0.01721,0.012613,-0.014147,0.14852,0.21065,-9.7832,0,0,45.512,1,1,752,995
8556,1.0306e+08,1,0.0024778,-0.00057204,-0.020657,0.1354,0.22228,-9.7974,0,0,45.512,1,1,752,995
8591,1.0306e+08,1,0.013127,0.0075426,-0.017543,0.10186,0.24735,-9.8493,0,0,45.512,1,1,752,995
8595,1.0306e+08,1,-0.005418,0.011378,-0.016389,0.088585,0.26208,-9.835,0,0,45.512,1,1,752,995
8598,1.0307e+08,1,-0.014279,0.013199,-0.019993,0.06282,0.288,-9.7848,0,0,45.512,1,1,752,995
8633,1.0307e+08,1,-0.010258,0.015552,-0.022368,0.053964,0.29784,-9.7534,0,0,45.512,1,1,752,995
8636,1.0307e+08,1,0.011086,0.020401,-0.022513,0.021362,0.2876,-9.7348,0,0,45.512,1,1,752,995
8640,1.0307e+08,1,0.011966,0.022061,-0.022007,-0.021984,0.26297,-9.7355,0,0,45.512,1,1,752,995
8643,1.0308e+08,1,0.00078349,0.030128,-0.024172,-0.079739,0.25301,-9.7189,0,0,45.512,1,1,752,995
8678,1.0308e+08,1,-0.011209,0.032627,-0.026701,-0.10165,0.27495,-9.6916,0,0,45.512,1,1,752,995
8681,1.0308e+08,1,-0.0090552,0.024188,-0.027553,-0.12144,0.30094,-9.6559,0,0,45.512,1,1,752,995
8684,1.0308e+08,1,0.0011879,0.018997,-0.023628,-0.13981,0.30677,-9.6632,0,0,45.512,1,1,752,995
8687,1.0309e+08,1,0.0069451,0.023631,-0.018353,-0.13378,0.30462,-9.6946,0,0,45.512,1,1,752,995
8690,1.0309e+08,1,0.0042562,0.027018,-0.016334,-0.084937,0.29422,-9.7376,0,0,45.512,1,1,752,995
8725,1.0309e+08,1,-0.0049781,0.022183,-0.015672,-0.056566,0.28656,-9.7468,0,0,45.512,1,1,752,995
8729,1.0309e+08,1,-0.0096227,0.011025,-0.018145,-0.029793,0.29664,-9.7348,0,0,45.512,1,1,752,995
8732,1.031e+08,1,-0.0047896,0.0074031,-0.018583,-0.021587,0.30284,-9.7426,0,0,45.512,1,1,752,995
8735,1.031e+08,1,0.0027275,0.014057,-0.016888,-0.0065428,0.29461,-9.7573,0,0,45.512,1,1,752,995
8770,1.031e+08,1,0.0048232,0.018583,-0.016212,-0.0049181,0.27999,-9.7433,0,0,45.512,1,1,752,995
8774,1.031e+08,1,0.0031201,0.026645,-0.015184,-0.026595,0.24306,-9.6999,0,0,45.512,1,1,752,995
8777,1.0311e+08,1,0.00052456,0.02782,-0.014854,-0.051259,0.20637,-9.6605,0,0,45.512,1,1,752,995
8780,1.0311e+08,1,-0.0069287,0.030244,-0.01635,-0.081562,0.15906,-9.5911,0,0,45.512,1,1,752,995
8815,1.0311e+08,1,-0.0067431,0.026296,-0.015545,-0.10442,0.15585,-9.5588,0,0,45.512,1,1,752,995
8818,1.0312e+08,1,-0.0010433,0.021688,-0.013301,-0.11366,0.15432,-9.5667,0,0,45.512,1,1,752,995
8822,1.0312e+08,1,0.0080066,0.015181,-0.0050012,-0.12451,0.14875,-9.633,0,0,45.512,1,1,752,995
8825,1.0312e+08,1,-0.010947,0.021225,0.0061502,-0.1167,0.16471,-9.6883,0,0,45.512,1,1,752,995
8860,1.0312e+08,1,-0.018248,0.022442,0.0068095,-0.06479,0.21552,-9.7604,0,0,45.512,1,1,752,995
8864,1.0312e+08,1,-0.017949,0.015662,0.0054445,-0.031325,0.25125,-9.8007,0,0,45.512,1,1,752,995
8868,1.0313e+08,1,-0.0057649,0.0067883,0.0057524,-0.014096,0.30099,-9.8785,0,0,45.512,1,1,752,995
8871,1.0313e+08,1,-0.00054664,0.012345,0.0096324,-0.0089804,0.32422,-9.9196,0,0,45.511,1,1,752,995
8906,1.0313e+08,1,-0.0022872,0.022886,0.010441,0.026825,0.34223,-9.922,0,0,45.511,1,1,752,995
8909,1.0313e+08,1,-0.0025663,0.024141,0.0091624,0.050402,0.33964,-9.8658,0,0,45.511,1,1,752,995
8912,1.0314e+08,1,-0.0044572,0.012036,0.0083952,0.039372,0.32261,-9.7254,0,0,45.511,1,1,752,995
8915,1.0314e+08,1,-0.0060134,0.0095064,0.0077405,0.0095828,0.3248,-9.6456,0,0,45.511,1,1,752,995
8950,1.0314e+08,1,-0.0021224,0.01215,0.0068043,-0.03742,0.33082,-9.5961,0,0,45.511,1,1,752,995
8957,1.0315e+08,1,0.0077129,0.012062,0.0086639,-0.066087,0.32382,-9.599,0,0,45.511,1,1,752,995
8961,1.0315e+08,1,0.012778,0.0081884,0.011994,-0.10007,0.31364,-9.6527,0,0,45.511,1,1,752,995
8964,1.0315e+08,1,0.0083267,0.0052572,0.015425,-0.10634,0.30424,-9.6799,0,0,45.511,1,1,752,995
8999,1.0315e+08,1,2.0023e-05,0.0049639,0.017903,-0.10457,0.26695,-9.7233,0,0,45.511,1,1,752,995
9002,1.0315e+08,1,-0.0026269,0.0065895,0.01823,-0.10093,0.23005,-9.7929,0,0,45.511,1,1,752,995
9005,1.0316e+08,1,-0.0031694,0.025754,0.023205,-0.099166,0.17432,-9.907,0,0,45.511,1,1,752,995
9008,1.0316e+08,1,-0.0030125,0.033482,0.025247,-0.084402,0.13978,-9.9333,0,0,45.511,1,1,752,995
9043,1.0316e+08,1,-0.0075613,0.040942,0.024774,-0.019636,0.077491,-9.864,0,0,45.511,1,1,752,995
9047,1.0317e+08,1,-0.023463,0.032534,0.019071,0.034168,0.044308,-9.7571,0,0,45.511,1,1,752,995
9051,1.0317e+08,1,-0.039698,0.016063,0.010381,0.10698,0.034768,-9.6007,0,0,45.511,1,1,752,995
9054,1.0317e+08,1,-0.036127,0.0041429,0.0045557,0.15395,0.068756,-9.5624,0,0,45.511,1,1,752,995
9089,1.0317e+08,1,-0.0023286,-0.0076314,0.011725,0.24422,0.1676,-9.6021,0,0,45.511,1,1,752,995
9093,1.0318e+08,1,0.0054897,-0.013063,0.017305,0.26742,0.23342,-9.6227,0,0,45.511,1,1,752,995
9096,1.0318e+08,1,-0.0032958,-0.012374,0.027593,0.2321,0.37493,-9.6337,0,0,45.511,1,1,752,995
9099,1.0318e+08,1,-0.010248,-0.0013196,0.026734,0.17627,0.48293,-9.635,0,0,45.511,1,1,752,995
9134,1.0318e+08,1,-0.0092808,0.02577,0.020702,0.088908,0.62951,-9.6455,0,0,45.511,1,1,752,995
9137,1.0319e+08,1,0.016449,0.036579,0.013051,0.015825,0.66522,-9.6667,0,0,45.511,1,1,752,995
9140,1.0319e+08,1,0.036339,0.029756,0.0045469,-0.076245,0.63473,-9.6909,0,0,45.511,1,1,752,995
9143,1.0319e+08,1,0.019346,0.023365,-0.0030371,-0.19239,0.52608,-9.7146,0,0,45.511,1,1,752,995
9146,1.0319e+08,1,-0.004512,0.023004,-0.003349,-0.23449,0.43722,-9.7186,0,0,45.511,1,1,752,995
9182,1.032e+08,1,0.0061409,0.015618,0.002923,-0.21258,0.32053,-9.7182,0,0,45.511,1,1,752,995
9185,1.032e+08,1,0.035284,-0.00039699,0.0073918,-0.18414,0.21716,-9.7185,0,0,45.511,1,1,752,995
9188,1.032e+08,1,0.04056,-0.0048544,0.010028,-0.16289,0.12001,-9.707,0,0,45.511,1,1,752,995
9191,1.032e+08,1,0.017684,0.006554,0.018589,-0.12132,0.013529,-9.6527,0,0,45.511,1,1,752,995
9226,1.0321e+08,1,-0.036782,0.039609,0.024955,-0.031041,-0.032711,-9.5577,0,0,45.511,1,1,752,995
9230,1.0321e+08,1,-0.039772,0.039342,0.019709,0.035952,-0.06069,-9.5077,0,0,45.511,1,1,752,995
9233,1.0321e+08,1,-0.028501,0.014268,-0.012733,0.091693,-0.12701,-9.5153,0,0,45.511,1,1,752,995
9236,1.0321e+08,1,-0.029342,0.011665,-0.025076,0.11234,-0.12464,-9.5856,0,0,45.511,1,1,752,995
9271,1.0322e+08,1,-0.032923,0.017374,-0.04147,0.15538,-0.0058106,-9.7244,0,0,45.51,1,1,752,995
9275,1.0322e+08,1,-0.021982,0.014838,-0.039407,0.17419,0.092402,-9.8394,0,0,45.51,1,1,752,995
9278,1.0322e+08,1,-0.0061369,0.0021888,-0.021713,0.11994,0.24769,-9.9852,0,0,45.51,1,1,752,995
9281,1.0322e+08,1,-0.0040555,0.0023562,-0.00069457,0.045265,0.36868,-10.025,0,0,45.51,1,1,752,995
9316,1.0323e+08,1,-0.0073153,0.031166,0.014283,-0.061156,0.57852,-9.9092,0,0,45.51,1,1,752,995
9319,1.0323e+08,1,-0.0024003,0.034532,0.013166,-0.094698,0.61394,-9.8001,0,0,45.51,1,1,752,995
9322,1.0323e+08,1,0.013037,0.023358,-0.00111,-0.12854,0.60288,-9.693,0,0,45.51,1,1,752,995
9326,1.0323e+08,1,0.024821,0.0062627,-0.026709,-0.17083,0.51645,-9.5979,0,0,45.51,1,1,752,995
9361,1.0324e+08,1,0.033698,0.0046498,-0.049311,-0.17739,0.39978,-9.6231,0,0,45.51,1,1,752,995
9364,1.0324e+08,1,0.046053,0.011546,-0.055521,-0.15805,0.30931,-9.6817,0,0,45.51,1,1,752,995
9367,1.0324e+08,1,0.050442,0.01365,-0.052548,-0.12733,0.19766,-9.764,0,0,45.51,1,1,752,995
9370,1.0324e+08,1,0.048046,0.016505,-0.038963,-0.088576,0.046499,-9.9249,0,0,45.51,1,1,752,995
9408,1.0325e+08,1,0.0074297,0.025875,-0.0063153,-0.047421,-0.050985,-9.9885,0,0,45.51,1,1,752,995
9413,1.0325e+08,1,-0.023995,0.024849,0.011131,-0.0082798,-0.09098,-9.9355,0,0,45.51,1,1,752,995
9418,1.0325e+08,1,-0.046441,0.011643,0.013036,0.027221,-0.11073,-9.7715,0,0,45.51,1,1,752,995
9421,1.0325e+08,1,-0.053793,0.0039695,0.008082,0.035405,-0.11028,-9.6684,0,0,45.51,1,1,752,995
9456,1.0326e+08,1,-0.024691,-0.0012583,-0.037363,0.026631,0.13927,-9.795,0,0,45.51,1,1,752,995
9459,1.0327e+08,1,-0.018625,0.010077,-0.012327,-0.075218,0.47103,-9.9832,0,0,45.51,1,1,752,995
9494,1.0327e+08,1,-0.023269,0.019011,0.013367,-0.10839,0.58535,-9.9434,0,0,45.51,1,1,752,995
9497,1.0327e+08,1,-0.01216,0.019155,0.031112,-0.16217,0.67819,-9.7964,0,0,45.51,1,1,752,995
9501,1.0327e+08,1,-0.0025768,0.016725,0.033772,-0.18921,0.67811,-9.6849,0,0,45.51,1,1,752,995
9505,1.0328e+08,1,0.030126,0.015109,0.011762,-0.22578,0.62145,-9.604,0,0,45.51,1,1,752,995
9540,1.0328e+08,1,0.038432,0.019396,-0.0015159,-0.23894,0.54948,-9.6216,0,0,45.51,1,1,752,995
9543,1.0328e+08,1,0.04886,0.028964,-0.02448,-0.20955,0.38905,-9.735,0,0,45.51,1,1,752,995
9547,1.0328e+08,1,0.047233,0.031001,-0.03138,-0.16976,0.25723,-9.829,0,0,45.51,1,1,752,995
9550,1.0329e+08,1,0.031466,0.030789,-0.019424,-0.11562,0.052545,-9.9297,0,0,45.51,1,1,752,995
9585,1.0329e+08,1,0.0027726,0.030462,0.0022242,-0.069475,-0.060496,-9.9165,0,0,45.51,1,1,752,995
9588,1.0329e+08,1,-0.025843,0.021356,0.021939,0.0093351,-0.20382,-9.7563,0,0,45.51,1,1,752,995
9591,1.0329e+08,1,-0.043767,0.0030484,0.029628,0.048847,-0.3147,-9.5414,0,0,45.51,1,1,752,995
9594,1.033e+08,1,-0.051118,-0.013865,0.02342,0.04557,-0.33628,-9.4637,0,0,45.51,1,1,752,995
9629,1.033e+08,1,-0.046834,-0.014007,0.0091173,0.023959,-0.24551,-9.4984,0,0,45.51,1,1,752,995
9632,1.033e+08,1,-0.028969,-0.0054723,-0.0035612,0.019482,-0.13281,-9.5909,0,0,45.51,1,1,752,995
9635,1.0331e+08,1,-0.014816,0.003778,-0.0056006,-0.0057483,0.076297,-9.7464,0,0,45.51,1,1,752,995
9638,1.0331e+08,1,-0.019163,0.014798,0.0044554,-0.056784,0.33982,-9.8526,0,0,45.51,1,1,752,995
9673,1.0331e+08,1,-0.02506,0.022448,0.022458,-0.098633,0.5286,-9.8556,0,0,45.51,1,1,752,995
9676,1.0331e+08,1,-0.01332,0.018627,0.037755,-0.17346,0.72322,-9.7144,0,0,45.51,1,1,752,995
9679,1.0331e+08,1,-0.0012891,0.014757,0.040277,-0.21993,0.77154,-9.6006,0,0,45.51,1,1,752,995
9683,1.0332e+08,1,0.032954,0.012618,0.023004,-0.27841,0.75327,-9.5202,0,0,45.51,1,1,752,995
9718,1.0332e+08,1,0.046042,0.02339,0.0020689,-0.2824,0.64236,-9.5274,0,0,45.51,1,1,752,995
9721,1.0332e+08,1,0.051077,0.029026,-0.0070971,-0.24552,0.52957,-9.5582,0,0,45.51,1,1,752,995
9724,1.0333e+08,1,0.054009,0.044866,-0.015952,-0.19399,0.39297,-9.6177,0,0,45.51,1,1,752,995
9727,1.0333e+08,1,0.045989,0.048272,-0.011395,-0.092005,0.15709,-9.7596,0,0,45.51,1,1,752,995
9762,1.0333e+08,1,0.015282,0.045357,0.008101,0.046621,-0.053531,-9.8,0,0,45.51,1,1,752,995
9765,1.0333e+08,1,-0.018809,0.027159,0.030536,0.11533,-0.17565,-9.7318,0,0,45.51,1,1,752,995
9770,1.0333e+08,1,-0.041615,0.0034789,0.042229,0.16992,-0.30775,-9.6255,0,0,45.51,1,1,752,995
9774,1.0334e+08,1,-0.052596,-0.0065582,0.034914,0.17328,-0.33574,-9.6417,0,0,45.509,1,1,752,995
9809,1.0334e+08,1,-0.049573,0.00089726,0.01317,0.15133,-0.25502,-9.7708,0,0,45.509,1,1,752,995
9812,1.0334e+08,1,-0.032012,0.010732,-0.0042819,0.11554,-0.14786,-9.8593,0,0,45.509,1,1,752,995
9815,1.0334e+08,1,-0.019659,0.021402,-0.0046528,0.066076,-0.0098573,-9.9152,0,0,45.509,1,1,752,995
9818,1.0335e+08,1,-0.021289,0.027737,0.0016837,-0.024028,0.26348,-9.9407,0,0,45.509,1,1,752,995
9856,1.0335e+08,1,-0.032059,0.031771,0.031728,-0.10028,0.56032,-9.8493,0,0,45.509,1,1,752,995
9860,1.0335e+08,1,-0.014131,0.013828,0.040688,-0.14376,0.71547,-9.7261,0,0,45.509,1,1,752,995
9863,1.0336e+08,1,0.00052961,0.0063053,0.037626,-0.21052,0.80335,-9.5961,0,0,45.509,1,1,752,995
9867,1.0336e+08,1,0.039771,0.01393,0.0085515,-0.24636,0.7797,-9.5887,0,0,45.509,1,1,752,995
9902,1.0336e+08,1,0.048302,0.022318,-0.0045178,-0.23641,0.67579,-9.6065,0,0,45.509,1,1,752,995
9905,1.0336e+08,1,0.06191,0.034181,-0.027214,-0.19945,0.57204,-9.6173,0,0,45.509,1,1,752,995
9908,1.0337e+08,1,0.062824,0.037598,-0.035107,-0.1346,0.35842,-9.7124,0,0,45.509,1,1,752,995
9911,1.0337e+08,1,0.032775,0.03643,-0.023674,-0.071613,0.20958,-9.7944,0,0,45.509,1,1,752,995
9946,1.0337e+08,1,-0.0049267,0.023128,-0.00070768,0.062292,-0.03457,-9.771,0,0,45.509,1,1,752,995
9949,1.0337e+08,1,-0.023735,-0.0018802,0.018709,0.10057,-0.15555,-9.6965,0,0,45.509,1,1,752,995
9952,1.0338e+08,1,-0.036372,-0.019034,0.019269,0.11421,-0.27934,-9.6709,0,0,45.509,1,1,752,995
9956,1.0338e+08,1,-0.047795,-0.012853,0.0035563,0.093444,-0.26203,-9.7404,0,0,45.509,1,1,752,995
9991,1.0338e+08,1,-0.040086,0.0065038,-0.013543,0.030394,-0.14733,-9.8523,0,0,45.509,1,1,752,995
9994,1.0338e+08,1,-0.023006,0.025808,-0.020413,-0.02223,-0.050464,-9.8924,0,0,45.509,1,1,752,995
9997,1.0339e+08,1,-0.026673,0.034896,-0.019258,-0.10257,0.15027,-9.9168,0,0,45.509,1,1,752,995
10001,1.0339e+08,1,-0.037231,0.032428,-0.014306,-0.15819,0.31796,-9.8692,0,0,45.509,1,1,752,995
10036,1.0339e+08,1,-0.043154,0.008755,0.0092928,-0.24437,0.56439,-9.6845,0,0,45.509,1,1,752,995
10039,1.034e+08,1,0.010366,-0.004416,0.0097757,-0.31469,0.71171,-9.6007,0,0,45.509,1,1,752,995
10042,1.034e+08,1,0.039836,0.01157,-0.0076554,-0.31034,0.70488,-9.7047,0,0,45.509,1,1,752,995
10077,1.034e+08,1,0.055246,0.037204,-0.028116,-0.23815,0.63079,-9.8414,0,0,45.509,1,1,752,995
10081,1.034e+08,1,0.059177,0.056005,-0.043069,-0.14748,0.5044,-9.9223,0,0,45.509,1,1,752,995
10084,1.0341e+08,1,0.036184,0.051987,-0.044786,0.029967,0.27392,-9.9981,0,0,45.509,1,1,752,995
10088,1.0341e+08,1,0.017372,0.039002,-0.040153,0.12479,0.14957,-9.9595,0,0,45.509,1,1,752,995
10091,1.0341e+08,1,-0.016878,-0.0059945,-0.010002,0.21649,-0.047994,-9.7671,0,0,45.509,1,1,752,995
10126,1.0341e+08,1,-0.018423,-0.015623,0.00064007,0.2889,-0.19197,-9.649,0,0,45.509,1,1,752,995
10129,1.0342e+08,1,-0.021138,-0.028783,0.0084938,0.34227,-0.32111,-9.6565,0,0,45.509,1,1,752,995
10132,1.0342e+08,1,-0.02738,-0.026143,-0.0064635,0.28884,-0.31217,-9.7525,0,0,45.509,1,1,752,995
10135,1.0342e+08,1,-0.025526,0.0019241,-0.025424,0.14964,-0.21847,-9.8602,0,0,45.509,1,1,752,995
10170,1.0342e+08,1,-0.030107,0.044106,-0.02907,0.065449,-0.056954,-9.9046,0,0,45.509,1,1,752,995
10173,1.0343e+08,1,-0.040034,0.040127,-0.024425,0.0010854,0.10254,-9.8867,0,0,45.509,1,1,752,995
10177,1.0343e+08,1,-0.058798,0.014402,-0.0099801,-0.18046,0.38846,-9.6758,0,0,45.509,1,1,752,995
10180,1.0343e+08,1,-0.04991,-0.0035257,0.0056772,-0.28432,0.55104,-9.4806,0,0,45.509,1,1,752,995
10215,1.0343e+08,1,-0.0083617,-0.0066971,0.013437,-0.32628,0.68051,-9.3848,0,0,45.509,1,1,752,995
10220,1.0344e+08,1,0.036749,-0.0068057,0.0048602,-0.36152,0.6825,-9.4852,0,0,45.509,1,1,752,995
10223,1.0345e+08,1,0.034557,0.060032,-0.021184,-0.024023,0.26219,-9.7518,0,0,45.509,1,1,752,995
10259,1.0345e+08,1,0.0071291,0.011668,-0.015096,0.079143,0.063225,-9.7213,0,0,45.508,1,1,752,995
10263,1.0345e+08,1,-0.0068152,-0.0042073,-0.0088077,0.11075,-0.06344,-9.6031,0,0,45.508,1,1,752,995
10269,1.0345e+08,1,-0.022471,-0.015957,0.0055768,0.23401,-0.22799,-9.4967,0,0,45.508,1,1,752,995
10273,1.0346e+08,1,-0.01807,-0.027415,0.010906,0.2588,-0.28223,-9.5588,0,0,45.508,1,1,752,995
10308,1.0346e+08,1,-0.0072647,-0.024216,0.0070302,0.085506,-0.25467,-9.7286,0,0,45.508,1,1,752,995
10311,1.0346e+08,1,-0.0093961,0.050526,0.0044498,-0.077011,-0.14517,-9.8813,0,0,45.508,1,1,752,995
10314,1.0346e+08,1,-0.018441,0.066177,0.0051739,-0.093875,-0.047419,-9.9725,0,0,45.508,1,1,752,995
10317,1.0347e+08,1,-0.041315,0.048661,0.0061479,-0.20169,0.13812,-9.9781,0,0,45.508,1,1,752,995
10352,1.0347e+08,1,-0.057457,0.0041922,0.016671,-0.44263,0.32849,-9.746,0,0,45.508,1,1,752,995
10357,1.0347e+08,1,-0.05008,0.0068257,0.023987,-0.49108,0.42749,-9.5798,0,0,45.508,1,1,752,995
10360,1.0347e+08,1,-0.01084,0.0094522,0.034199,-0.40924,0.49083,-9.5343,0,0,45.508,1,1,752,995
10363,1.0348e+08,1,0.039588,5.5371e-05,0.030497,-0.40982,0.47742,-9.6089,0,0,45.508,1,1,752,995
10398,1.0348e+08,1,0.06223,0.030589,0.020649,-0.40223,0.40035,-9.708,0,0,45.508,1,1,752,995
10402,1.0348e+08,1,0.046913,0.089949,0.014399,-0.24006,0.33144,-9.7722,0,0,45.508,1,1,752,995
10405,1.0348e+08,1,0.018321,0.091573,0.005149,0.10389,0.2213,-9.8371,0,0,45.508,1,1,752,995
10408,1.0349e+08,1,0.0059895,0.065062,-0.00072213,0.21945,0.14438,-9.8004,0,0,45.508,1,1,752,995
10445,1.0349e+08,1,-0.016873,-0.012778,-0.0066584,0.28479,0.054682,-9.6046,0,0,45.508,1,1,752,995
10448,1.0349e+08,1,-0.019769,-0.022217,-0.0017553,0.3808,0.012965,-9.5196,0,0,45.508,1,1,752,995
10451,1.035e+08,1,0.002117,-0.045761,0.013246,0.33558,0.036115,-9.7276,0,0,45.508,1,1,752,995
10486,1.035e+08,1,0.0080714,-0.003427,0.016827,0.070221,0.10932,-9.9176,0,0,45.508,1,1,752,995
10490,1.035e+08,1,-0.0063298,0.056217,0.017699,-0.036881,0.1955,-10.049,0,0,45.508,1,1,752,995
10493,1.035e+08,1,-0.024728,0.054366,0.0082211,-0.12496,0.27999,-10.06,0,0,45.508,1,1,752,995
10496,1.0351e+08,1,-0.03516,0.011529,-0.0037668,-0.30811,0.3626,-9.9783,0,0,45.508,1,1,752,995
10531,1.0351e+08,1,-0.028805,-0.0054052,0.0027952,-0.5716,0.47605,-9.6899,0,0,45.508,1,1,752,995
10534,1.0351e+08,1,-0.01569,-0.0077431,0.0093734,-0.5254,0.50391,-9.6143,0,0,45.508,1,1,752,995
10537,1.0352e+08,1,0.024529,-0.016795,0.018258,-0.49206,0.51111,-9.6152,0,0,45.508,1,1,752,995
10541,1.0352e+08,1,0.057601,0.011415,0.019869,-0.50069,0.45488,-9.7182,0,0,45.508,1,1,752,995
10576,1.0352e+08,1,0.052279,0.07623,0.019619,-0.2738,0.30978,-9.8521,0,0,45.508,1,1,752,995
10580,1.0352e+08,1,0.014034,0.092347,0.011344,-0.021874,0.21322,-9.9012,0,0,45.508,1,1,752,995
10583,1.0352e+08,1,-0.0060384,0.072644,0.0034199,0.15373,0.14241,-9.8638,0,0,45.508,1,1,752,995
10586,1.0353e+08,1,-0.031123,0.01863,-0.011292,0.28147,0.061664,-9.68,0,0,45.508,1,1,752,995
10621,1.0353e+08,1,-0.0306,-0.023879,-0.010191,0.47778,0.006098,-9.5392,0,0,45.508,1,1,752,995
10624,1.0353e+08,1,-0.014169,-0.048095,-0.0053462,0.54159,0.0077374,-9.5853,0,0,45.508,1,1,752,995
10627,1.0354e+08,1,0.0037612,-0.037135,-0.0035953,0.40943,0.048081,-9.7105,0,0,45.508,1,1,752,995
10630,1.0354e+08,1,0.0011014,0.025597,0.0010622,0.2348,0.12174,-9.8765,0,0,45.508,1,1,752,995
10665,1.0354e+08,1,-0.021796,0.06727,0.00031193,0.17292,0.2145,-9.9436,0,0,45.508,1,1,752,995
10669,1.0354e+08,1,-0.032712,0.06268,-0.004603,0.04306,0.30212,-9.8923,0,0,45.508,1,1,752,995
10672,1.0355e+08,1,-0.033982,0.015314,-0.021723,-0.24257,0.43544,-9.6939,0,0,45.508,1,1,752,995
10675,1.0355e+08,1,-0.02427,0.0075327,-0.022329,-0.32329,0.47242,-9.5641,0,0,45.508,1,1,752,995
10710,1.0355e+08,1,0.014909,-0.012134,-0.013952,-0.32384,0.46654,-9.5435,0,0,45.508,1,1,752,995
10714,1.0355e+08,1,0.029553,-0.014532,-0.01016,-0.36357,0.46501,-9.642,0,0,45.508,1,1,753,995
10721,1.0356e+08,1,0.052343,0.012268,-0.0016302,-0.38836,0.4037,-9.8571,0,0,45.508,1,1,753,995
10725,1.0356e+08,1,0.047971,0.064561,0.0066816,-0.24845,0.29975,-9.9768,0,0,45.508,1,1,753,995
10728,1.0356e+08,1,0.012361,0.076875,0.0061282,0.041759,0.13492,-10.015,0,0,45.508,1,1,753,995
10763,1.0356e+08,1,-0.027478,0.043954,-0.0059186,0.13809,0.064462,-9.9378,0,0,45.508,1,1,753,995
10766,1.0357e+08,1,-0.039381,0.01113,-0.016188,0.24051,0.0015732,-9.7484,0,0,45.508,1,1,753,995
10769,1.0357e+08,1,-0.035457,-0.0043452,-0.016788,0.33524,-0.037264,-9.688,0,0,45.507,1,1,753,995
10772,1.0357e+08,1,-0.013019,-0.039767,-0.017138,0.32342,-0.019987,-9.8169,0,0,45.507,1,1,753,995
10807,1.0357e+08,1,0.0029519,-0.019229,-0.016964,0.11653,0.11509,-10.041,0,0,45.507,1,1,753,995
10811,1.0358e+08,1,0.0074531,0.0023732,-0.013777,0.0054207,0.16851,-10.11,0,0,45.507,1,1,753,995
10814,1.0358e+08,1,-0.019747,0.039951,-0.0080402,-0.12048,0.20303,-10.078,0,0,45.507,1,1,753,995
10817,1.0358e+08,1,-0.040027,0.0351,-0.010609,-0.25741,0.28727,-9.9747,0,0,45.507,1,1,753,995
10852,1.0358e+08,1,-0.061134,0.019397,-0.012947,-0.48944,0.46645,-9.7019,0,0,45.507,1,1,753,995
10855,1.0359e+08,1,-0.031405,0.014464,-0.0084573,-0.56287,0.50068,-9.5114,0,0,45.507,1,1,753,995
10858,1.0359e+08,1,0.013697,0.010427,-0.0057614,-0.57317,0.43609,-9.4354,0,0,45.507,1,1,753,995
10861,1.0359e+08,1,0.037387,0.011293,-0.0030746,-0.57219,0.40435,-9.5114,0,0,45.507,1,1,753,995
10896,1.036e+08,1,0.045633,0.030644,0.0042204,-0.48338,0.29903,-9.6624,0,0,45.507,1,1,753,995
10900,1.036e+08,1,0.02816,0.054145,0.0079387,-0.20442,0.092542,-9.759,0,0,45.507,1,1,753,995
10903,1.036e+08,1,-0.016387,0.052947,6.1193e-05,-0.01333,0.0048552,-9.7573,0,0,45.507,1,1,753,995
10906,1.036e+08,1,-0.050001,0.034661,-0.0090834,0.17111,-0.028883,-9.6075,0,0,45.507,1,1,753,995
10941,1.036e+08,1,-0.041043,0.017745,-0.0063984,0.27527,-0.048573,-9.4726,0,0,45.507,1,1,753,995
10945,1.0361e+08,1,-0.022943,-0.0025572,0.0003642,0.36487,-0.10623,-9.4387,0,0,45.507,1,1,753,995
10948,1.0361e+08,1,-0.02135,-0.0090729,0.00071172,0.31295,-0.070685,-9.5882,0,0,45.507,1,1,753,995
10951,1.0361e+08,1,-0.007352,0.0074691,-0.006644,0.17376,0.10753,-9.8885,0,0,45.507,1,1,753,995
10986,1.0362e+08,1,0.010231,0.018627,-0.010804,0.071296,0.18358,-10.024,0,0,45.507,1,1,753,995
10990,1.0362e+08,1,0.0043381,0.019153,-0.013996,-0.040651,0.20779,-10.019,0,0,45.507,1,1,753,995
10993,1.0362e+08,1,-0.059211,0.022154,-0.015697,-0.27756,0.37535,-9.8927,0,0,45.507,1,1,753,995
10996,1.0362e+08,1,-0.062391,0.025057,-0.010033,-0.40881,0.47777,-9.7396,0,0,45.507,1,1,753,995
11031,1.0363e+08,1,0.014173,0.023913,0.010801,-0.56596,0.40945,-9.5724,0,0,45.507,1,1,753,995
11035,1.0363e+08,1,0.05262,0.02555,0.017444,-0.59539,0.3672,-9.6715,0,0,45.507,1,1,753,995
11038,1.0363e+08,1,0.061269,0.034638,0.018945,-0.48581,0.33059,-9.8842,0,0,45.507,1,1,753,995
11041,1.0363e+08,1,0.057841,0.036616,0.018318,-0.31902,0.21798,-9.9661,0,0,45.507,1,1,753,995
11076,1.0364e+08,1,-0.0041651,0.025776,0.0054386,-0.03545,0.028739,-9.9958,0,0,45.507,1,1,753,995
11079,1.0364e+08,1,-0.033786,0.021209,0.0010229,0.12366,0.012002,-9.9354,0,0,45.507,1,1,753,995
11082,1.0364e+08,1,-0.049249,0.017764,0.0093996,0.30763,0.037859,-9.7509,0,0,45.507,1,1,753,995
11087,1.0364e+08,1,-0.029857,0.014411,0.017105,0.40015,0.0065866,-9.6466,0,0,45.507,1,1,753,995
11090,1.0365e+08,1,-0.0055305,0.0031111,0.02906,0.42103,-0.023852,-9.687,0,0,45.507,1,1,753,995
11126,1.0365e+08,1,-0.029679,0.0095919,0.022148,0.2258,0.24519,-9.9745,0,0,45.507,1,1,753,995
11129,1.0365e+08,1,-0.015715,0.012708,0.0042169,0.12927,0.31009,-9.9856,0,0,45.507,1,1,753,995
11135,1.0366e+08,1,-0.026925,0.019284,-0.020148,-0.21212,0.47157,-9.8359,0,0,45.507,1,1,753,995
11140,1.0366e+08,1,-0.021878,0.026053,-0.002285,-0.38004,0.59987,-9.6413,0,0,45.507,1,1,753,995
11173,1.0366e+08,1,0.018833,0.024254,0.018533,-0.50185,0.55586,-9.5352,0,0,45.507,1,1,753,995
11176,1.0367e+08,1,0.035536,0.028677,0.026087,-0.51994,0.50595,-9.5923,0,0,45.507,1,1,753,995
11180,1.0367e+08,1,0.050956,0.041743,0.03378,-0.45054,0.4602,-9.6782,0,0,45.507,1,1,753,995
11183,1.0367e+08,1,0.044254,0.040647,0.029289,-0.2332,0.28322,-9.7141,0,0,45.507,1,1,753,995
11216,1.0367e+08,1,0.013272,0.029194,0.0147,0.017096,0.056792,-9.6735,0,0,45.507,1,1,753,995
11219,1.0368e+08,1,-0.030667,0.020626,0.001606,0.17976,-0.014219,-9.6435,0,0,45.507,1,1,753,995
11222,1.0368e+08,1,-0.042547,0.0098641,-0.0001911,0.36578,-0.030589,-9.5683,0,0,45.507,1,1,753,995
11227,1.0368e+08,1,-0.0083115,-0.0085472,0.0087202,0.40857,-0.04754,-9.5132,0,0,45.507,1,1,753,995
11260,1.0368e+08,1,0.013935,-0.016288,0.01872,0.36242,-0.054932,-9.5599,0,0,45.507,1,1,753,995
11263,1.0369e+08,1,-0.0034682,-0.0064142,0.020121,0.28884,0.023239,-9.6828,0,0,45.507,1,1,753,995
11266,1.0369e+08,1,-0.020519,1.1091e-05,0.0053446,0.13037,0.19163,-9.8325,0,0,45.506,1,1,753,995
11269,1.0369e+08,1,-0.019782,-0.0020595,-0.0066096,-0.015463,0.26749,-9.8503,0,0,45.506,1,1,753,995
11302,1.0369e+08,1,-0.011738,-0.0026591,-0.040037,-0.24664,0.3604,-9.812,0,0,45.506,1,1,753,995
11305,1.037e+08,1,-0.011843,0.0027349,-0.04322,-0.38469,0.44564,-9.7754,0,0,45.506,1,1,753,995
11308,1.037e+08,1,-0.0026177,0.013334,-0.032023,-0.54229,0.52892,-9.6984,0,0,45.506,1,1,753,995
11312,1.037e+08,1,0.021271,0.021539,-0.0067557,-0.61365,0.51415,-9.6744,0,0,45.506,1,1,753,995
11345,1.037e+08,1,0.039229,0.038248,0.015287,-0.60909,0.44562,-9.7885,0,0,45.506,1,1,753,995
11348,1.0371e+08,1,0.042585,0.052338,0.023356,-0.50476,0.39093,-9.8985,0,0,45.506,1,1,753,995
11351,1.0371e+08,1,0.036804,0.04402,0.013502,-0.26721,0.23191,-9.9191,0,0,45.506,1,1,753,995
11355,1.0371e+08,1,0.027672,0.035786,0.0024479,-0.09763,0.091512,-9.8477,0,0,45.506,1,1,753,995
11358,1.0371e+08,1,-0.029654,0.018426,-0.026586,0.15704,-0.011896,-9.7422,0,0,45.506,1,1,753,995
11391,1.0372e+08,1,-0.039298,0.0057329,-0.025042,0.35006,0.060829,-9.7075,0,0,45.506,1,1,753,995
11394,1.0372e+08,1,-0.024542,-0.0027415,-0.018038,0.3847,0.098739,-9.7085,0,0,45.506,1,1,753,995
11397,1.0372e+08,1,0.010424,0.0014157,0.012389,0.32221,0.099748,-9.7969,0,0,45.506,1,1,753,995
11400,1.0372e+08,1,-0.00036535,0.012504,0.017817,0.26738,0.16598,-9.9013,0,0,45.506,1,1,753,995
11433,1.0373e+08,1,-0.033009,0.020544,-0.0012002,0.13675,0.35039,-9.9521,0,0,45.506,1,1,753,995
11436,1.0373e+08,1,-0.018354,0.010038,-0.031029,-0.11235,0.41554,-9.819,0,0,45.506,1,1,753,995
11440,1.0373e+08,1,-0.015435,0.0090452,-0.043405,-0.26836,0.43747,-9.7115,0,0,45.506,1,1,753,995
11443,1.0374e+08,1,-0.023433,0.012669,-0.055061,-0.38243,0.50635,-9.6366,0,0,45.506,1,1,753,995
11476,1.0374e+08,1,0.012706,0.0086724,-0.028072,-0.60524,0.56679,-9.5121,0,0,45.506,1,1,753,995
11479,1.0374e+08,1,0.033031,0.013963,-0.011074,-0.67473,0.47945,-9.5188,0,0,45.506,1,1,753,995
11482,1.0374e+08,1,0.039206,0.058489,0.026299,-0.56424,0.36052,-9.703,0,0,45.506,1,1,753,995
11485,1.0375e+08,1,0.028358,0.061574,0.027737,-0.38105,0.28789,-9.7952,0,0,45.506,1,1,753,995
11518,1.0375e+08,1,0.013583,0.034914,0.011987,-0.12667,0.081548,-9.7563,0,0,45.506,1,1,753,995
11521,1.0375e+08,1,-0.0041233,0.0041388,-0.016142,0.028046,-0.080143,-9.6987,0,0,45.506,1,1,753,995
11526,1.0375e+08,1,-0.034055,-0.0085903,-0.03501,0.31065,-0.14793,-9.637,0,0,45.506,1,1,753,995
11529,1.0376e+08,1,-0.029837,-0.025596,-0.031912,0.45515,-0.10726,-9.6106,0,0,45.506,1,1,753,995
11562,1.0376e+08,1,0.0085916,-0.034391,-0.010746,0.44131,-0.11027,-9.6197,0,0,45.506,1,1,753,995
11568,1.0376e+08,1,0.0085047,-0.0024854,0.013323,0.36015,-0.1173,-9.6937,0,0,45.506,1,1,753,995
11572,1.0376e+08,1,-0.029873,0.035236,0.022883,0.27756,0.039267,-9.8893,0,0,45.506,1,1,753,995
11575,1.0377e+08,1,-0.038699,0.038943,0.01756,0.17934,0.18338,-9.962,0,0,45.506,1,1,753,995
11608,1.0377e+08,1,-0.012974,0.015957,-0.02291,-0.1062,0.2669,-9.8934,0,0,45.506,1,1,753,995
11611,1.0377e+08,1,-0.013724,0.015812,-0.034246,-0.27651,0.29237,-9.8061,0,0,45.506,1,1,753,995
11615,1.0377e+08,1,-0.029981,0.019855,-0.038423,-0.41658,0.43703,-9.6793,0,0,45.506,1,1,753,995
11618,1.0378e+08,1,-0.011425,0.012186,-0.019944,-0.50934,0.50794,-9.5949,0,0,45.506,1,1,753,995
11651,1.0378e+08,1,0.037575,0.02243,0.0095821,-0.63834,0.44466,-9.5666,0,0,45.505,1,1,753,995
11655,1.0378e+08,1,0.050263,0.06416,0.034298,-0.57661,0.38467,-9.6553,0,0,45.505,1,1,753,995
11658,1.0378e+08,1,0.02513,0.074926,0.03854,-0.28459,0.33049,-9.7966,0,0,45.505,1,1,753,995
11661,1.0379e+08,1,0.013798,0.058603,0.031391,-0.10922,0.24702,-9.7997,0,0,45.505,1,1,753,995
11694,1.0379e+08,1,-0.022747,0.0037681,-0.0035487,0.16662,0.020524,-9.6927,0,0,45.505,1,1,753,995
11697,1.0379e+08,1,-0.053487,-0.0048232,-0.01242,0.34817,0.029936,-9.6573,0,0,45.505,1,1,753,995
11701,1.0379e+08,1,-0.054105,-0.011936,-0.011373,0.45328,0.09873,-9.6273,0,0,45.505,1,1,753,995
11704,1.038e+08,1,0.0051289,-0.023867,0.0083584,0.38532,0.12885,-9.6326,0,0,45.505,1,1,753,995
11737,1.038e+08,1,0.0046938,0.0069112,0.025971,0.29473,0.1315,-9.7408,0,0,45.505,1,1,753,995
11740,1.038e+08,1,-0.015035,0.020689,0.029715,0.25375,0.22915,-9.8313,0,0,45.505,1,1,753,995
11745,1.038e+08,1,-0.031846,0.0067496,0.0044814,0.036758,0.41923,-9.8684,0,0,45.505,1,1,753,995
11748,1.0381e+08,1,-0.014979,-0.0028743,-0.010083,-0.16587,0.47716,-9.8178,0,0,45.505,1,1,753,995
11781,1.0381e+08,1,0.0092309,-0.0030425,-0.030478,-0.34069,0.53659,-9.7589,0,0,45.505,1,1,753,995
11784,1.0381e+08,1,-0.0019645,-0.0016303,-0.022221,-0.44399,0.62611,-9.7071,0,0,45.505,1,1,753,995
11787,1.0381e+08,1,0.0020523,-0.0017531,-0.0092539,-0.56125,0.62364,-9.6619,0,0,45.505,1,1,753,995
11790,1.0382e+08,1,0.023173,0.023224,0.023116,-0.62603,0.54284,-9.6566,0,0,45.505,1,1,753,995
11823,1.0382e+08,1,0.031065,0.06557,0.045407,-0.45807,0.36077,-9.7324,0,0,45.505,1,1,753,995
11826,1.0382e+08,1,0.024019,0.063625,0.043763,-0.25261,0.24373,-9.7629,0,0,45.505,1,1,753,995
11830,1.0382e+08,1,0.017437,0.024219,0.021784,-0.032394,0.034323,-9.741,0,0,45.505,1,1,753,995
11833,1.0383e+08,1,0.007448,0.0099467,0.0092019,0.11319,-0.1047,-9.7294,0,0,45.505,1,1,753,995
11866,1.0383e+08,1,-0.046243,-0.0084622,-0.012683,0.39922,-0.14221,-9.7484,0,0,45.505,1,1,753,995
11869,1.0383e+08,1,-0.048695,-0.019987,-0.012216,0.49177,-0.066056,-9.7474,0,0,45.505,1,1,753,995
11872,1.0383e+08,1,-0.015335,-0.033504,0.0007537,0.41137,-0.0015288,-9.7313,0,0,45.505,1,1,753,995
11875,1.0384e+08,1,0.0084736,-0.0045673,0.022428,0.32852,-0.0028377,-9.7489,0,0,45.505,1,1,753,995
11908,1.0384e+08,1,-0.018207,0.034065,0.034163,0.21771,0.13628,-9.8202,0,0,45.505,1,1,753,995
11911,1.0384e+08,1,-0.035111,0.034766,0.019932,-0.042049,0.37085,-9.8388,0,0,45.505,1,1,753,995
11915,1.0384e+08,1,-0.0052576,0.015582,-0.011292,-0.2465,0.43173,-9.8079,0,0,45.505,1,1,753,995
11920,1.0385e+08,1,0.015331,0.0037122,-0.033815,-0.41067,0.44265,-9.7712,0,0,45.505,1,1,753,995
11953,1.0385e+08,1,0.011062,0.0060702,-0.00023009,-0.60576,0.50163,-9.6343,0,0,45.505,1,1,753,995
11956,1.0386e+08,1,0.026046,0.023522,0.016217,-0.56349,0.40642,-9.6121,0,0,45.505,1,1,753,995
11959,1.0386e+08,1,0.019092,0.045286,0.026892,-0.16285,0.13526,-9.667,0,0,45.505,1,1,753,995
11997,1.0386e+08,1,0.007307,0.018022,0.00079039,0.080681,-0.029342,-9.6162,0,0,45.505,1,1,753,995
12003,1.0387e+08,1,-0.02044,-0.011545,-0.022535,0.27159,-0.10458,-9.6034,0,0,45.505,1,1,753,995
12006,1.0387e+08,1,-0.03771,-0.038153,-0.027582,0.42447,-0.040508,-9.6178,0,0,45.505,1,1,753,995
12009,1.0387e+08,1,-0.030555,-0.042007,-0.021756,0.4068,0.045995,-9.6387,0,0,45.505,1,1,753,995
12044,1.0387e+08,1,0.0059134,-0.00031241,0.013668,0.33597,0.088101,-9.6977,0,0,45.505,1,1,753,995
12048,1.0388e+08,1,2.7437e-06,0.017649,0.022269,0.25923,0.13376,-9.7458,0,0,45.505,1,1,753,995
12051,1.0388e+08,1,-0.02559,0.038064,0.019379,0.011541,0.32399,-9.7616,0,0,45.505,1,1,753,995
12054,1.0388e+08,1,-0.017878,0.036222,-0.0075412,-0.16541,0.42715,-9.7369,0,0,45.505,1,1,753,995
12089,1.0388e+08,1,0.014837,0.01585,-0.038375,-0.30595,0.43812,-9.7172,0,0,45.505,1,1,753,995
12092,1.0389e+08,1,0.021062,-0.013879,-0.055632,-0.41383,0.46132,-9.7496,0,0,45.505,1,1,753,995
12096,1.0389e+08,1,0.012094,-0.017934,-0.047181,-0.51001,0.5227,-9.7632,0,0,45.505,1,1,753,995
12099,1.0389e+08,1,0.016343,0.021046,-0.010541,-0.51277,0.47952,-9.7256,0,0,45.505,1,1,753,995
12134,1.0389e+08,1,0.016133,0.06769,0.028367,-0.37974,0.36491,-9.709,0,0,45.505,1,1,753,995
12138,1.039e+08,1,0.0052921,0.07748,0.040313,-0.13569,0.24688,-9.7157,0,0,45.505,1,1,753,995
12141,1.039e+08,1,0.0088685,0.051146,0.022872,0.09605,0.12309,-9.7105,0,0,45.505,1,1,753,995
12144,1.039e+08,1,0.011126,0.018087,-0.0067617,0.27489,-0.0079277,-9.7119,0,0,45.505,1,1,753,995
12179,1.0391e+08,1,-0.015967,-0.012702,-0.029851,0.48919,-0.073671,-9.7671,0,0,45.505,1,1,753,995
12182,1.0391e+08,1,-0.038424,-0.029441,-0.031215,0.5098,0.068036,-9.8319,0,0,45.505,1,1,753,995
12185,1.0391e+08,1,-0.021581,-0.019997,-0.0094438,0.4446,0.14012,-9.8429,0,0,45.505,1,1,753,995
12188,1.0391e+08,1,-0.0096386,0.011386,0.018112,0.28454,0.18572,-9.8759,0,0,45.505,1,1,753,995
12223,1.0392e+08,1,-0.027835,0.046201,0.025849,0.017841,0.34291,-9.9327,0,0,45.505,1,1,753,995
12228,1.0392e+08,1,-0.017717,0.055977,0.0031573,-0.16925,0.4761,-9.9403,0,0,45.505,1,1,753,995
12232,1.0392e+08,1,0.027406,0.03211,-0.032015,-0.37218,0.46726,-9.916,0,0,45.505,1,1,753,995
12235,1.0392e+08,1,0.030284,-0.003664,-0.058367,-0.45099,0.41214,-9.8998,0,0,45.505,1,1,753,995
12270,1.0393e+08,1,-0.0044947,-0.019042,-0.056432,-0.52683,0.47356,-9.8827,0,0,45.505,1,1,753,995
12273,1.0393e+08,1,-0.0012555,0.0008699,-0.021932,-0.55425,0.50413,-9.8345,0,0,45.505,1,1,753,995
12276,1.0393e+08,1,0.024689,0.047206,0.024366,-0.48278,0.34827,-9.716,0,0,45.505,1,1,753,995
12279,1.0393e+08,1,0.023573,0.069235,0.041922,-0.35478,0.22043,-9.6662,0,0,45.505,1,1,753,995
12314,1.0394e+08,1,-0.0035815,0.077555,0.043719,-0.10472,0.14543,-9.6126,0,0,45.505,1,1,753,995
12318,1.0394e+08,1,0.0082246,0.03314,0.013391,0.065666,0.088972,-9.5678,0,0,45.505,1,1,753,995
12321,1.0394e+08,1,0.010239,0.0071741,-0.0029662,0.2757,-0.047985,-9.5612,0,0,45.505,1,1,753,995
12324,1.0394e+08,1,-0.033389,-0.034108,-0.028437,0.36039,-0.054174,-9.6286,0,0,45.505,1,1,753,995
12359,1.0395e+08,1,-0.04235,-0.033095,-0.023457,0.38059,0.091071,-9.7345,0,0,45.505,1,1,753,995
12363,1.0395e+08,1,-0.028344,-0.01729,0.0030027,0.33661,0.15626,-9.7372,0,0,45.505,1,1,753,995
12366,1.0395e+08,1,-0.019991,0.013117,0.030892,0.15929,0.16617,-9.691,0,0,45.505,1,1,753,995
12369,1.0395e+08,1,-0.042025,0.047237,0.037601,0.0035515,0.24066,-9.6939,0,0,45.505,1,1,753,995
12404,1.0396e+08,1,-0.024353,0.049234,0.015281,-0.24592,0.4878,-9.725,0,0,45.505,1,1,753,995
12407,1.0396e+08,1,0.027634,0.01157,-0.020806,-0.35709,0.47685,-9.7407,0,0,45.505,1,1,753,995
12410,1.0396e+08,1,0.027627,-0.016346,-0.046803,-0.50352,0.44096,-9.8217,0,0,45.505,1,1,753,995
12413,1.0396e+08,1,-0.010447,-0.00057999,-0.041581,-0.54954,0.50503,-9.8548,0,0,45.505,1,1,753,995
12451,1.0397e+08,1,-0.006174,0.036507,-0.0045497,-0.48546,0.50582,-9.7956,0,0,45.505,1,1,753,995
12456,1.0397e+08,1,0.0081981,0.050989,0.018916,-0.37774,0.36,-9.7087,0,0,45.505,1,1,753,995
12459,1.0397e+08,1,0.00061891,0.060929,0.055914,-0.18036,0.1827,-9.6667,0,0,45.505,1,1,753,995
12462,1.0397e+08,1,-0.01051,0.053265,0.053262,-0.03213,0.15431,-9.7075,0,0,45.505,1,1,753,995
12497,1.0398e+08,1,-0.0077696,0.023089,0.031866,0.22074,0.065782,-9.7529,0,0,45.505,1,1,753,995
12500,1.0398e+08,1,-0.004865,-0.032635,-0.013402,0.36894,-0.021507,-9.7902,0,0,45.505,1,1,753,995
12504,1.0398e+08,1,-0.020443,-0.040142,-0.021675,0.45039,-0.0030786,-9.8707,0,0,45.505,1,1,753,995
12507,1.0399e+08,1,-0.04809,-0.028611,-0.015644,0.43373,0.10941,-9.87,0,0,45.505,1,1,753,995
12544,1.0399e+08,1,-0.038664,-0.0031401,0.012985,0.35988,0.24679,-9.7706,0,0,45.505,1,1,753,995
12548,1.0399e+08,1,-0.025837,0.013308,0.039066,0.17145,0.33178,-9.7222,0,0,45.505,1,1,753,995
12551,1.0399e+08,1,-0.024891,0.019695,0.040023,0.0045502,0.45623,-9.7546,0,0,45.505,1,1,753,995
12554,1.04e+08,1,0.0050026,0.017805,0.013918,-0.19632,0.59479,-9.8134,0,0,45.505,1,1,753,995
12589,1.04e+08,1,0.032284,0.0026464,-0.021656,-0.31766,0.47994,-9.8405,0,0,45.505,1,1,753,995
12592,1.04e+08,1,0.010317,-0.010089,-0.043797,-0.39012,0.43432,-9.8548,0,0,45.505,1,1,753,995
12596,1.04e+08,1,-0.0059137,-0.0058667,-0.044,-0.45557,0.459,-9.8529,0,0,45.505,1,1,753,995
12599,1.0401e+08,1,0.012608,0.037679,-0.0030833,-0.44397,0.38259,-9.7617,0,0,45.505,1,1,753,995
12634,1.0401e+08,1,0.027909,0.055998,0.035966,-0.28432,0.14922,-9.6494,0,0,45.505,1,1,753,995
12638,1.0401e+08,1,0.0019041,0.049457,0.054423,-0.085842,0.052283,-9.6297,0,0,45.505,1,1,753,995
12641,1.0401e+08,1,-0.0057424,0.026705,0.046288,0.055793,0.034032,-9.6602,0,0,45.505,1,1,753,995
12644,1.0402e+08,1,0.0059863,0.0036893,0.021631,0.21491,-0.042471,-9.7112,0,0,45.505,1,1,753,995
12679,1.0402e+08,1,-0.016018,-0.011567,-0.0031023,0.43403,-0.1241,-9.7995,0,0,45.504,1,1,753,995
12684,1.0402e+08,1,-0.049031,-0.0075143,-0.0099756,0.43248,-0.0032472,-9.801,0,0,45.504,1,1,753,995
12687,1.0402e+08,1,-0.043172,0.0030924,0.0034424,0.35704,0.15811,-9.7264,0,0,45.504,1,1,753,995
12690,1.0403e+08,1,-0.0252,0.0068026,0.019304,0.25868,0.19003,-9.6713,0,0,45.504,1,1,753,995
12725,1.0403e+08,1,-0.030456,0.01532,0.018824,0.016077,0.29582,-9.6593,0,0,45.504,1,1,753,995
12728,1.0403e+08,1,-0.026736,0.021653,0.011417,-0.16188,0.43406,-9.71,0,0,45.504,1,1,753,995
12733,1.0403e+08,1,0.037958,0.027278,-0.025466,-0.35758,0.50753,-9.7909,0,0,45.504,1,1,753,995
12736,1.0404e+08,1,0.046006,0.024489,-0.03588,-0.4585,0.44207,-9.8115,0,0,45.504,1,1,753,995
12771,1.0404e+08,1,0.012325,0.024043,-0.042631,-0.57122,0.46598,-9.7715,0,0,45.504,1,1,753,995
12775,1.0405e+08,1,0.019005,0.032314,0.023759,-0.32757,0.16768,-9.5556,0,0,45.504,1,1,753,995
12810,1.0405e+08,1,0.0027577,0.031403,0.023871,-0.085289,0.1105,-9.6393,0,0,45.504,1,1,753,995
12815,1.0405e+08,1,0.0075724,0.026523,0.014534,0.095255,0.053945,-9.7017,0,0,45.504,1,1,753,995
12818,1.0406e+08,1,0.01349,0.010559,-0.0093037,0.25318,-0.048696,-9.7466,0,0,45.504,1,1,753,995
12821,1.0406e+08,1,-0.019587,0.0030028,-0.026456,0.39545,-0.076495,-9.7707,0,0,45.504,1,1,753,995
12856,1.0406e+08,1,-0.047166,0.0083574,-0.021992,0.43042,0.11857,-9.7506,0,0,45.504,1,1,753,995
12860,1.0406e+08,1,-0.022139,0.0044294,-0.0017165,0.33761,0.2452,-9.7048,0,0,45.504,1,1,753,995
12863,1.0407e+08,1,0.0032046,-0.0084103,0.013844,0.19454,0.2637,-9.6983,0,0,45.504,1,1,753,995
12866,1.0407e+08,1,-0.013418,-0.003203,0.0085286,-0.076634,0.45572,-9.7519,0,0,45.504,1,1,753,995
12904,1.0407e+08,1,-0.0027572,0.013459,-0.016676,-0.22133,0.6276,-9.8068,0,0,45.504,1,1,753,995
12908,1.0407e+08,1,0.041804,0.021139,-0.042861,-0.37983,0.64353,-9.847,0,0,45.504,1,1,753,995
12911,1.0408e+08,1,0.042074,0.028318,-0.054195,-0.4638,0.57883,-9.8387,0,0,45.504,1,1,753,995
12914,1.0408e+08,1,0.0058273,0.045504,-0.039461,-0.51998,0.60563,-9.7548,0,0,45.504,1,1,753,995
12949,1.0408e+08,1,-0.001119,0.050588,-0.023857,-0.49129,0.58267,-9.6772,0,0,45.504,1,1,753,995
12953,1.0408e+08,1,0.023459,0.035538,0.026659,-0.36487,0.33509,-9.5841,0,0,45.504,1,1,753,995
12956,1.0409e+08,1,0.019949,0.027686,0.036008,-0.25054,0.15766,-9.5627,0,0,45.504,1,1,753,995
12959,1.0409e+08,1,-0.0034787,0.016168,0.037461,-0.037361,0.056543,-9.5678,0,0,45.504,1,1,753,995
12994,1.0409e+08,1,0.0073476,0.0054599,0.0090001,0.17637,-0.02506,-9.6031,0,0,45.504,1,1,753,995
12998,1.0409e+08,1,0.010052,0.0055731,-0.00068538,0.28836,-0.095991,-9.6305,0,0,45.504,1,1,753,995
13001,1.041e+08,1,-0.014999,0.013649,-0.010061,0.36742,-0.023767,-9.6286,0,0,45.504,1,1,753,995
13004,1.041e+08,1,-0.044813,0.018397,-0.0030881,0.35194,0.11932,-9.5946,0,0,45.504,1,1,753,995
13039,1.041e+08,1,-0.033684,0.0088704,0.010508,0.23657,0.27563,-9.5427,0,0,45.504,1,1,753,995
13043,1.041e+08,1,-0.014515,-0.0019071,0.017732,0.11843,0.32938,-9.5459,0,0,45.504,1,1,753,995
13046,1.0411e+08,1,-0.013738,-0.00096822,0.00955,-0.064201,0.44017,-9.5739,0,0,45.504,1,1,753,995
13049,1.0411e+08,1,-0.0084666,0.0030263,-0.00050357,-0.19194,0.52487,-9.6051,0,0,45.504,1,1,753,995
13084,1.0411e+08,1,0.035904,0.021294,-0.029948,-0.37167,0.52748,-9.6416,0,0,45.504,1,1,753,995
13088,1.0411e+08,1,0.041566,0.030226,-0.033532,-0.44758,0.4755,-9.6632,0,0,45.504,1,1,753,995
13091,1.0412e+08,1,0.017791,0.06212,-0.019753,-0.492,0.42863,-9.6642,0,0,45.504,1,1,753,995
13094,1.0412e+08,1,0.015464,0.063263,0.0067013,-0.46838,0.37689,-9.6428,0,0,45.504,1,1,753,995
13129,1.0412e+08,1,0.018533,0.038726,0.030847,-0.2579,0.15017,-9.629,0,0,45.504,1,1,753,995
13132,1.0413e+08,1,0.0036712,0.0078358,0.037422,-0.11699,0.051983,-9.6684,0,0,45.504,1,1,753,995
13135,1.0413e+08,1,-0.0092605,-0.0031969,0.02745,0.071352,-0.016205,-9.766,0,0,45.504,1,1,753,995
13138,1.0413e+08,1,-0.008186,-0.00046727,0.020113,0.17762,-0.031252,-9.8378,0,0,45.504,1,1,753,995
13173,1.0413e+08,1,-0.0018468,0.023186,0.0060794,0.28986,-0.025169,-9.9054,0,0,45.504,1,1,753,995
13177,1.0413e+08,1,-0.0082666,0.032166,0.0071839,0.32565,0.022931,-9.8939,0,0,45.504,1,1,753,995
13180,1.0414e+08,1,-0.027633,0.033127,0.016562,0.31768,0.16272,-9.8197,0,0,45.504,1,1,753,995
13183,1.0414e+08,1,-0.030019,0.0066156,0.023228,0.24753,0.26147,-9.7513,0,0,45.504,1,1,753,995
13218,1.0414e+08,1,-0.019652,-0.01704,0.020141,0.030241,0.35479,-9.6918,0,0,45.504,1,1,753,995
13221,1.0414e+08,1,-0.006736,-0.010746,0.0053277,-0.13257,0.42032,-9.7068,0,0,45.504,1,1,753,995
13224,1.0415e+08,1,0.018701,0.01218,-0.014063,-0.32826,0.49428,-9.7388,0,0,45.504,1,1,753,995
13227,1.0415e+08,1,0.044165,0.030836,-0.022794,-0.48569,0.43425,-9.7154,0,0,45.504,1,1,753,995
13262,1.0415e+08,1,0.042623,0.048652,-0.016668,-0.55597,0.37788,-9.6883,0,0,45.504,1,1,753,995
13266,1.0416e+08,1,0.0319,0.057477,-0.0089602,-0.5588,0.3401,-9.6485,0,0,45.504,1,1,753,995
13269,1.0416e+08,1,0.0092157,0.043892,0.020531,-0.41904,0.23102,-9.5486,0,0,45.504,1,1,753,995
13272,1.0416e+08,1,-0.00090698,0.006812,0.034218,-0.22292,0.028778,-9.4593,0,0,45.504,1,1,753,995
13307,1.0416e+08,1,-0.025221,-0.012272,0.035859,-0.01039,-0.11577,-9.4572,0,0,45.504,1,1,753,995
13311,1.0417e+08,1,-0.033184,-0.0042472,0.023712,0.14925,-0.13028,-9.4911,0,0,45.504,1,1,753,995
13314,1.0417e+08,1,-0.0087971,0.014377,0.0089875,0.29407,-0.12228,-9.5525,0,0,45.504,1,1,753,995
13317,1.0417e+08,1,0.0038514,0.023639,0.0043332,0.4121,-0.1031,-9.67,0,0,45.504,1,1,753,995
13355,1.0417e+08,1,-0.020432,0.039638,0.0097761,0.4574,0.020056,-9.7084,0,0,45.504,1,1,753,995
13359,1.0418e+08,1,-0.039101,0.030205,0.015301,0.45655,0.17305,-9.6706,0,0,45.504,1,1,753,995
13362,1.0418e+08,1,-0.051278,-0.0095618,0.020397,0.29937,0.35844,-9.6168,0,0,45.504,1,1,753,995
13365,1.0418e+08,1,-0.032332,-0.02951,0.011797,0.10172,0.41374,-9.6237,0,0,45.504,1,1,753,995
13400,1.0418e+08,1,-0.010726,-0.0012532,-0.0080422,-0.11732,0.49004,-9.6916,0,0,45.504,1,1,753,995
13404,1.0419e+08,1,0.0208,0.033744,-0.027346,-0.19634,0.52651,-9.7332,0,0,45.504,1,1,753,995
13407,1.0419e+08,1,0.055221,0.043949,-0.036506,-0.33948,0.46217,-9.7759,0,0,45.504,1,1,753,995
13410,1.0419e+08,1,0.059793,0.047039,-0.035383,-0.4155,0.37527,-9.8199,0,0,45.504,1,1,753,995
13424,1.0423e+08,1,0.049961,0.060292,-0.034231,-0.51817,0.45025,-9.6948,0,0,45.505,1,1,753,995
13428,1.0423e+08,1,0.022169,0.066179,-0.022522,-0.45202,0.36563,-9.682,0,0,45.505,1,1,753,995
13431,1.0423e+08,1,-0.018565,0.030672,-0.0039988,-0.22808,0.27804,-9.574,0,0,45.505,1,1,753,995
13466,1.0424e+08,1,-0.025697,-0.021195,0.0086876,-0.096586,0.14151,-9.4856,0,0,45.505,1,1,753,995
13472,1.0424e+08,1,-0.016061,-0.0027144,0.021059,0.069419,-0.031842,-9.5254,0,0,45.505,1,1,753,995
13475,1.0424e+08,1,-0.010995,0.042409,0.015264,0.35672,-0.052692,-9.6472,0,0,45.505,1,1,753,995
13510,1.0425e+08,1,-0.04171,0.011062,-0.0039195,0.45109,0.11771,-9.7315,0,0,45.506,1,1,753,995
13514,1.0425e+08,1,-0.062535,-0.052139,-0.012682,0.30335,0.32431,-9.6765,0,0,45.506,1,1,753,995
13517,1.0426e+08,1,-0.039674,-0.064725,-0.019108,0.066791,0.4284,-9.6862,0,0,45.506,1,1,753,995
13552,1.0426e+08,1,-0.0026731,-0.0044714,-0.015656,-0.18365,0.5028,-9.7781,0,0,45.506,1,1,753,995
13555,1.0426e+08,1,0.012823,0.029942,-0.013322,-0.26788,0.52721,-9.8278,0,0,45.506,1,1,753,995
13558,1.0426e+08,1,0.046446,0.070193,-0.017315,-0.42654,0.48231,-9.845,0,0,45.506,1,1,753,995
13561,1.0427e+08,1,0.048893,0.070146,-0.018434,-0.51273,0.39368,-9.8424,0,0,45.506,1,1,753,995
13596,1.0427e+08,1,0.030719,0.064361,-0.013866,-0.41337,0.24416,-9.8192,0,0,45.506,1,1,753,995
13599,1.0427e+08,1,-0.010552,-0.0019443,-0.0051807,-0.24856,0.15631,-9.7794,0,0,45.506,1,1,753,995
13603,1.0427e+08,1,-0.014989,-0.026782,-0.0023256,-0.094658,0.018313,-9.7032,0,0,45.506,1,1,753,995
13609,1.0428e+08,1,-0.020492,-0.029378,0.010123,0.036076,-0.11076,-9.6921,0,0,45.506,1,1,753,995
13645,1.0428e+08,1,-0.027655,0.042478,0.033908,0.27889,-0.11083,-9.762,0,0,45.506,1,1,753,995
13648,1.0428e+08,1,-0.017721,0.053575,0.036676,0.3706,-0.046808,-9.8087,0,0,45.506,1,1,753,995
13651,1.0428e+08,1,0.012623,0.043849,0.028168,0.34836,0.041872,-9.8512,0,0,45.506,1,1,753,995
13654,1.0429e+08,1,0.0024205,0.033965,0.022602,0.33395,0.11119,-9.8454,0,0,45.506,1,1,753,995
13689,1.0429e+08,1,-0.039152,-0.0084823,0.0068831,0.33073,0.30218,-9.7655,0,0,45.506,1,1,753,995
13692,1.0429e+08,1,-0.052375,-0.065552,-0.014427,0.21749,0.43567,-9.7019,0,0,45.506,1,1,753,995
13696,1.0429e+08,1,-0.015869,-0.064655,-0.024585,-0.11062,0.51899,-9.6996,0,0,45.507,1,1,753,995
13699,1.043e+08,1,0.022531,0.0047563,-0.01812,-0.27337,0.53513,-9.7468,0,0,45.507,1,1,753,995
13734,1.043e+08,1,0.047239,0.070519,-0.0071095,-0.40035,0.58165,-9.8165,0,0,45.507,1,1,753,995
13737,1.043e+08,1,0.069062,0.090073,0.00063417,-0.52194,0.52256,-9.8678,0,0,45.507,1,1,753,995
13740,1.043e+08,1,0.061316,0.079497,0.0033526,-0.54112,0.38966,-9.8717,0,0,45.507,1,1,753,995
13743,1.0431e+08,1,0.010738,0.039795,0.00065657,-0.45122,0.25938,-9.8362,0,0,45.507,1,1,753,995
13778,1.0431e+08,1,-0.023233,-0.018535,-0.0055978,-0.28832,0.1341,-9.7563,0,0,45.507,1,1,753,995
13781,1.0431e+08,1,-0.013509,-0.038026,-0.0022044,-0.21761,0.024482,-9.7397,0,0,45.507,1,1,753,995
13785,1.0432e+08,1,-0.0038374,0.0017665,0.016011,-0.022949,-0.13447,-9.7849,0,0,45.507,1,1,753,995
13788,1.0432e+08,1,-0.010751,0.046355,0.032932,0.12832,-0.13291,-9.8387,0,0,45.507,1,1,753,995
13823,1.0432e+08,1,-0.0015258,0.059022,0.036911,0.21482,-0.023726,-9.9139,0,0,45.507,1,1,753,995
13826,1.0432e+08,1,0.0038153,0.046481,0.030466,0.21594,0.042957,-9.9301,0,0,45.507,1,1,753,995
13830,1.0433e+08,1,-0.025284,0.005395,0.015167,0.23927,0.11074,-9.901,0,0,45.507,1,1,753,995
13833,1.0433e+08,1,-0.053463,-0.056669,-0.0091562,0.15072,0.32054,-9.801,0,0,45.507,1,1,753,995
13868,1.0433e+08,1,-0.035746,-0.069914,-0.025813,-0.13618,0.49033,-9.7043,0,0,45.507,1,1,753,995
13872,1.0433e+08,1,0.0058347,-0.0052635,-0.022215,-0.34997,0.52232,-9.7049,0,0,45.507,1,1,753,995
13876,1.0434e+08,1,0.038436,0.067303,-0.0092832,-0.41366,0.51881,-9.7462,0,0,45.507,1,1,753,995
13879,1.0434e+08,1,0.060682,0.094114,-0.00025291,-0.54141,0.468,-9.8005,0,0,45.507,1,1,753,995
13914,1.0434e+08,1,0.060101,0.090674,0.0049342,-0.56722,0.28252,-9.8334,0,0,45.508,1,1,753,995
13917,1.0434e+08,1,0.015121,0.062668,0.0033959,-0.43285,0.15349,-9.7978,0,0,45.508,1,1,753,995
13921,1.0435e+08,1,-0.028543,-0.0042109,-0.0052135,-0.1854,0.046844,-9.6805,0,0,45.508,1,1,753,995
13924,1.0435e+08,1,-0.024926,-0.051471,-0.0099095,-0.11685,-0.039415,-9.6141,0,0,45.508,1,1,753,995
13959,1.0435e+08,1,-0.012425,-0.019738,0.00090379,0.0074363,-0.22003,-9.6182,0,0,45.508,1,1,753,995
13962,1.0435e+08,1,-0.017051,0.012726,0.011118,0.16455,-0.26669,-9.679,0,0,45.508,1,1,753,995
13965,1.0436e+08,1,-0.022891,0.065169,0.032019,0.28795,-0.18552,-9.7708,0,0,45.508,1,1,753,995
13968,1.0436e+08,1,-0.012706,0.062551,0.031586,0.25747,-0.12953,-9.8148,0,0,45.508,1,1,753,995
14003,1.0436e+08,1,-0.011091,0.043153,0.022168,0.21871,-0.063187,-9.82,0,0,45.508,1,1,753,995
14006,1.0437e+08,1,-0.051308,0.0021302,-0.0011807,0.20326,0.045776,-9.7811,0,0,45.508,1,1,753,995
14010,1.0437e+08,1,-0.07595,-0.04812,-0.02868,0.014231,0.27918,-9.7025,0,0,45.508,1,1,753,995
14013,1.0437e+08,1,-0.012065,-0.032068,-0.037922,-0.19134,0.37825,-9.6774,0,0,45.508,1,1,753,995
14048,1.0437e+08,1,0.010582,0.00041185,-0.03073,-0.40114,0.41769,-9.7034,0,0,45.508,1,1,753,995
14051,1.0438e+08,1,0.036029,0.059674,-0.013788,-0.51276,0.44662,-9.7836,0,0,45.508,1,1,753,995
14055,1.0438e+08,1,0.050264,0.086889,-0.003989,-0.59328,0.41975,-9.8471,0,0,45.508,1,1,753,995
14061,1.0438e+08,1,0.041737,0.087525,-0.0016507,-0.542,0.21035,-9.8724,0,0,45.508,1,1,753,995
14097,1.0438e+08,1,-0.0068913,0.051926,-0.012434,-0.36317,0.047991,-9.833,0,0,45.508,1,1,753,995
14100,1.0439e+08,1,-0.042952,-0.010807,-0.026982,-0.10861,-0.080491,-9.7273,0,0,45.508,1,1,753,995
14104,1.0439e+08,1,-0.040664,-0.035042,-0.028391,0.0033443,-0.15906,-9.6487,0,0,45.508,1,1,753,995
14107,1.0439e+08,1,-0.010126,-0.025931,0.0015392,0.20735,-0.31871,-9.6019,0,0,45.508,1,1,753,995
14142,1.0439e+08,1,-0.025159,0.019292,0.030459,0.41479,-0.30877,-9.6926,0,0,45.508,1,1,753,995
14145,1.044e+08,1,-0.032892,0.038232,0.039592,0.45715,-0.16865,-9.7881,0,0,45.509,1,1,753,995
14149,1.044e+08,1,-0.011784,0.054859,0.039141,0.46421,0.036134,-9.8896,0,0,45.509,1,1,753,995
14152,1.044e+08,1,-0.0089064,0.041425,0.029176,0.46096,0.10158,-9.8935,0,0,45.509,1,1,753,995
14187,1.044e+08,1,-0.039141,-0.0066894,-0.0042091,0.33808,0.2721,-9.8291,0,0,45.509,1,1,753,995
14190,1.0441e+08,1,-0.068618,-0.051557,-0.04392,0.068401,0.57827,-9.704,0,0,45.509,1,1,753,995
14193,1.0441e+08,1,-0.045881,-0.047702,-0.044856,-0.090466,0.70191,-9.6362,0,0,45.509,1,1,753,995
14196,1.0441e+08,1,0.043547,0.0048142,-0.015459,-0.28627,0.72748,-9.6434,0,0,45.509,1,1,753,995
14231,1.0441e+08,1,0.055718,0.02997,-0.0014724,-0.41753,0.72126,-9.7388,0,0,45.509,1,1,753,995
14234,1.0442e+08,1,0.051958,0.078985,0.022037,-0.4975,0.67119,-9.8921,0,0,45.509,1,1,753,995
14238,1.0442e+08,1,0.030479,0.092149,0.027399,-0.40507,0.53665,-9.9192,0,0,45.509,1,1,753,995
14242,1.0442e+08,1,-0.0018739,0.049944,0.0049267,-0.18299,0.27617,-9.8578,0,0,45.509,1,1,753,995
14277,1.0443e+08,1,-0.030205,-0.0021037,-0.022078,-0.018231,0.10592,-9.7278,0,0,45.509,1,1,753,995
14280,1.0443e+08,1,-0.016467,-0.023362,-0.012778,0.18325,-0.033754,-9.5807,0,0,45.509,1,1,753,995
14283,1.0443e+08,1,-0.0097269,-0.018942,0.0011508,0.31838,-0.13215,-9.5376,0,0,45.509,1,1,753,995
14286,1.0443e+08,1,-0.015012,0.0010689,0.031604,0.38165,-0.16989,-9.5979,0,0,45.509,1,1,753,995
14321,1.0443e+08,1,-0.02409,0.032441,0.051884,0.36116,-0.065872,-9.817,0,0,45.509,1,1,753,995
14324,1.0444e+08,1,-0.013755,0.046553,0.050888,0.35098,0.015381,-9.906,0,0,45.509,1,1,753,995
14328,1.0444e+08,1,-0.0091225,0.022934,0.022113,0.31393,0.10328,-9.8969,0,0,45.509,1,1,753,995
14331,1.0444e+08,1,-0.027939,-0.018,-0.019698,0.20357,0.20629,-9.8434,0,0,45.509,1,1,753,995
14366,1.0444e+08,1,-0.034183,-0.03344,-0.036465,-0.021083,0.45202,-9.7444,0,0,45.509,1,1,753,995
14371,1.0445e+08,1,0.0047378,-0.029985,-0.039679,-0.16268,0.5652,-9.675,0,0,45.509,1,1,753,995
14374,1.0445e+08,1,0.066829,0.066671,0.014435,-0.54458,0.62335,-9.8087,0,0,45.509,1,1,753,995
14409,1.0446e+08,1,0.07159,0.083547,0.023774,-0.54844,0.55933,-9.9198,0,0,45.509,1,1,753,995
14412,1.0446e+08,1,0.061706,0.084045,0.024075,-0.44566,0.32467,-9.9532,0,0,45.509,1,1,753,995
14416,1.0446e+08,1,-0.0092597,0.029743,-0.011944,-0.26181,0.11516,-9.8809,0,0,45.509,1,1,753,995
14419,1.0447e+08,1,-0.013681,-0.03769,-0.0083336,0.13801,-0.15765,-9.679,0,0,45.509,1,1,753,995
14454,1.0447e+08,1,-0.0097421,-0.015909,0.023149,0.18546,-0.18844,-9.7067,0,0,45.509,1,1,753,995
14458,1.0447e+08,1,-0.01349,0.010268,0.039006,0.22608,-0.097749,-9.8344,0,0,45.509,1,1,753,995
14461,1.0447e+08,1,-0.0053681,0.05302,0.059009,0.29079,0.092827,-10.018,0,0,45.51,1,1,753,995
14465,1.0448e+08,1,0.01631,0.046331,0.050956,0.27861,0.14748,-10.035,0,0,45.51,1,1,753,995
14502,1.0448e+08,1,0.00023252,0.011426,0.015867,0.15185,0.25184,-9.9324,0,0,45.51,1,1,753,995
14505,1.0448e+08,1,-0.0395,-0.020019,-0.024033,0.047643,0.41652,-9.8277,0,0,45.51,1,1,753,995
14511,1.0448e+08,1,-0.022177,-0.041418,-0.041566,-0.14572,0.64397,-9.6831,0,0,45.51,1,1,753,995
14515,1.0449e+08,1,0.036398,-0.028506,-0.028134,-0.32525,0.67161,-9.6354,0,0,45.51,1,1,753,995
14550,1.0449e+08,1,0.064838,0.031078,-0.00047993,-0.52622,0.6417,-9.6968,0,0,45.51,1,1,753,995
14553,1.0449e+08,1,0.066481,0.063706,0.013074,-0.54276,0.63704,-9.8019,0,0,45.51,1,1,753,995
14556,1.0449e+08,1,0.065806,0.083368,0.028679,-0.45432,0.49828,-9.8894,0,0,45.51,1,1,753,995
14559,1.045e+08,1,0.055461,0.067006,0.020402,-0.37934,0.30301,-9.8511,0,0,45.51,1,1,753,995
14594,1.045e+08,1,0.0062148,0.03009,-0.0099824,-0.15953,0.12793,-9.7106,0,0,45.51,1,1,753,995
14597,1.045e+08,1,-0.023662,-0.036895,-0.036149,0.13351,0.083115,-9.5475,0,0,45.51,1,1,753,995
14600,1.045e+08,1,-0.0093477,-0.053134,-0.031289,0.22436,-0.013052,-9.4851,0,0,45.51,1,1,753,995
14603,1.0451e+08,1,-0.00026214,-0.036511,-0.00094638,0.23273,-0.13532,-9.5323,0,0,45.51,1,1,753,995
14638,1.0451e+08,1,-0.028996,0.05944,0.049946,0.31651,-0.0089463,-9.7528,0,0,45.51,1,1,753,995
14642,1.0451e+08,1,-0.019482,0.068327,0.055003,0.35224,0.084046,-9.8555,0,0,45.51,1,1,753,995
14645,1.0451e+08,1,0.0029928,0.038683,0.040208,0.2426,0.089214,-9.8341,0,0,45.51,1,1,753,995
14648,1.0452e+08,1,-0.028856,0.00063178,0.0040881,0.1543,0.14878,-9.7688,0,0,45.51,1,1,753,995
14683,1.0452e+08,1,-0.069531,-0.030517,-0.030002,0.089765,0.40898,-9.6582,0,0,45.51,1,1,753,995
14686,1.0452e+08,1,-0.032816,-0.057464,-0.043977,-0.035067,0.52867,-9.5833,0,0,45.51,1,1,753,995
14689,1.0452e+08,1,0.032603,-0.024782,-0.028863,-0.3601,0.52273,-9.5603,0,0,45.51,1,1,753,995
14692,1.0453e+08,1,0.047551,0.019238,-0.012736,-0.47096,0.50733,-9.6615,0,0,45.51,1,1,753,995
14727,1.0453e+08,1,0.042418,0.12017,0.027094,-0.43049,0.4849,-9.8336,0,0,45.51,1,1,753,995
14731,1.0453e+08,1,0.040599,0.11057,0.02759,-0.39607,0.35069,-9.848,0,0,45.51,1,1,753,995
14734,1.0453e+08,1,0.022668,0.054511,0.0059696,-0.36473,0.085753,-9.7712,0,0,45.51,1,1,753,995
14737,1.0454e+08,1,-0.020458,0.0073992,-0.025279,-0.22876,-0.0026523,-9.7088,0,0,45.51,1,1,753,995
14772,1.0454e+08,1,-0.02218,-0.046493,-0.041192,0.10794,-0.1155,-9.5999,0,0,45.51,1,1,753,995
14776,1.0454e+08,1,-0.0078454,-0.034461,-0.017127,0.11272,-0.21073,-9.5908,0,0,45.51,1,1,753,995
14779,1.0455e+08,1,-0.018997,0.0010297,0.0029301,0.10439,-0.23723,-9.6486,0,0,45.51,1,1,753,995
14782,1.0455e+08,1,-0.043291,0.08436,0.039683,0.16812,-0.14662,-9.7507,0,0,45.51,1,1,753,995
14817,1.0455e+08,1,-0.0077498,0.058951,0.040563,0.19823,-0.049692,-9.8163,0,0,45.51,1,1,753,995
14820,1.0455e+08,1,-0.019357,-0.0062229,0.0023862,0.025234,-0.027589,-9.7441,0,0,45.51,1,1,753,995
14823,1.0456e+08,1,-0.046086,-0.024359,-0.019057,-0.015921,0.10976,-9.67,0,0,45.51,1,1,753,995
14826,1.0456e+08,1,-0.053758,-0.058924,-0.059371,-0.045674,0.37963,-9.5846,0,0,45.51,1,1,753,995
14861,1.0456e+08,1,-0.01907,-0.063189,-0.060042,-0.21245,0.43995,-9.5702,0,0,45.51,1,1,753,995
14865,1.0456e+08,1,0.035868,-0.012931,-0.038692,-0.52984,0.41084,-9.6338,0,0,45.51,1,1,753,995
14868,1.0457e+08,1,0.039214,0.092059,-0.00020296,-0.56572,0.43107,-9.7281,0,0,45.51,1,1,753,995
14871,1.0457e+08,1,0.038078,0.13307,0.023908,-0.44598,0.35416,-9.7762,0,0,45.51,1,1,753,995
14906,1.0457e+08,1,0.029021,0.078865,0.013402,-0.41502,0.12752,-9.655,0,0,45.511,1,1,753,995
14909,1.0457e+08,1,-0.013807,0.010368,-0.016481,-0.33842,0.055434,-9.5627,0,0,45.511,1,1,753,995
14914,1.0458e+08,1,-0.039526,-0.039008,-0.036664,-0.046294,0.029087,-9.5071,0,0,45.511,1,1,753,995
14917,1.0458e+08,1,-0.014612,-0.070175,-0.033685,0.084557,-0.039043,-9.5319,0,0,45.511,1,1,753,995
14952,1.0458e+08,1,-0.0088653,-0.029699,-0.0033572,0.050689,-0.14827,-9.6394,0,0,45.511,1,1,753,995
14956,1.0458e+08,1,-0.036918,0.070809,0.04139,0.11317,-0.025595,-9.8051,0,0,45.511,1,1,753,995
14962,1.0459e+08,1,-0.034299,0.10917,0.063369,0.20734,0.085816,-9.8544,0,0,45.511,1,1,753,995
14966,1.0459e+08,1,-0.013918,0.048754,0.043533,0.11289,0.16285,-9.7861,0,0,45.511,1,1,753,995
15001,1.0459e+08,1,-0.030841,-0.014685,-0.0012202,-0.0376,0.25053,-9.7034,0,0,45.511,1,1,753,995
15005,1.0459e+08,1,-0.05037,-0.040078,-0.038854,-0.11931,0.48285,-9.6533,0,0,45.511,1,1,753,995
15008,1.046e+08,1,-0.038737,-0.048216,-0.050642,-0.18045,0.60547,-9.682,0,0,45.511,1,1,753,995
15011,1.046e+08,1,0.029935,-0.01945,-0.039993,-0.45962,0.61509,-9.7171,0,0,45.511,1,1,753,995
15046,1.046e+08,1,0.03844,0.020845,-0.0223,-0.613,0.59521,-9.737,0,0,45.511,1,1,753,995
15049,1.046e+08,1,0.041368,0.10515,0.013631,-0.56943,0.57472,-9.771,0,0,45.511,1,1,753,995
15052,1.0461e+08,1,0.043509,0.11359,0.027282,-0.4794,0.46749,-9.7603,0,0,45.511,1,1,753,995
15055,1.0461e+08,1,0.026239,0.056117,0.010619,-0.40769,0.23421,-9.6515,0,0,45.511,1,1,753,995
15090,1.0461e+08,1,-0.0056191,0.0052316,-0.014344,-0.20175,0.098457,-9.5299,0,0,45.511,1,1,753,995
15094,1.0461e+08,1,-0.010407,-0.037134,-0.024776,-0.010782,0.01295,-9.5108,0,0,45.511,1,1,753,995
15097,1.0462e+08,1,0.0013204,-0.057125,-0.014826,0.071336,-0.13739,-9.5807,0,0,45.511,1,1,753,995
15100,1.0462e+08,1,-0.016404,-0.0057842,0.017014,0.050228,-0.15788,-9.6493,0,0,45.511,1,1,753,995
15135,1.0462e+08,1,-0.029883,0.073458,0.050522,0.19466,-0.0559,-9.7474,0,0,45.511,1,1,753,995
15138,1.0462e+08,1,-0.021623,0.090168,0.058608,0.30078,-0.015317,-9.7641,0,0,45.511,1,1,753,995
15141,1.0463e+08,1,-0.0049051,0.035762,0.034672,0.22467,0.018373,-9.6671,0,0,45.511,1,1,753,995
15144,1.0463e+08,1,-0.016153,0.01467,0.016837,0.12305,0.11475,-9.5788,0,0,45.511,1,1,753,995
15147,1.0463e+08,1,-0.024882,-0.029615,-0.029923,0.072516,0.32882,-9.5362,0,0,45.511,1,1,753,995
15183,1.0464e+08,1,-0.00578,-0.043217,-0.039009,-0.020402,0.4253,-9.5908,0,0,45.511,1,1,753,995
15186,1.0464e+08,1,0.031821,-0.030882,-0.03632,-0.32156,0.49341,-9.7299,0,0,45.511,1,1,753,995
15189,1.0464e+08,1,0.042721,0.044989,-0.0050184,-0.43136,0.53444,-9.8287,0,0,45.511,1,1,753,995
15192,1.0464e+08,1,0.052233,0.1032,0.027569,-0.3532,0.48776,-9.9301,0,0,45.511,1,1,753,995
15227,1.0465e+08,1,0.039087,0.057895,0.027142,-0.29287,0.30532,-9.9114,0,0,45.511,1,1,753,995
15231,1.0465e+08,1,0.019838,0.036826,0.015975,-0.27931,0.22229,-9.8455,0,0,45.511,1,1,753,995
15234,1.0465e+08,1,-0.006905,0.0070437,-0.005872,-0.085224,0.14146,-9.757,0,0,45.511,1,1,753,995
15239,1.0465e+08,1,0.0027093,-0.032914,-0.017229,0.069723,0.04332,-9.7556,0,0,45.511,1,1,753,995
15274,1.0466e+08,1,-0.050304,0.042169,0.033037,0.093959,0.025888,-9.9029,0,0,45.511,1,1,753,995
15278,1.0466e+08,1,-0.047629,0.066579,0.046267,0.19861,0.12091,-9.9137,0,0,45.511,1,1,753,995
15281,1.0467e+08,1,-0.023027,0.00064739,0.012891,-0.01333,0.33822,-9.7017,0,0,45.511,1,1,753,995
15316,1.0467e+08,1,-0.036356,-0.012425,-0.013133,-0.018212,0.56605,-9.6127,0,0,45.511,1,1,753,995
15320,1.0467e+08,1,-0.00069878,-0.035763,-0.03231,-0.067862,0.64777,-9.6251,0,0,45.511,1,1,753,995
15323,1.0468e+08,1,0.038879,-0.024081,-0.034657,-0.23583,0.66835,-9.6687,0,0,45.511,1,1,753,995
15326,1.0468e+08,1,0.049041,0.044995,-0.013934,-0.41929,0.67587,-9.7403,0,0,45.511,1,1,753,995
15361,1.0468e+08,1,0.052671,0.094812,0.0087444,-0.33284,0.59635,-9.8193,0,0,45.511,1,1,753,995
15365,1.0468e+08,1,0.049883,0.0924,0.012021,-0.2813,0.46102,-9.8435,0,0,45.511,1,1,753,995
15368,1.0469e+08,1,0.0058798,0.036392,-0.0095161,-0.25924,0.3325,-9.83,0,0,45.511,1,1,753,995
15371,1.0469e+08,1,-0.0070557,0.021707,-0.018942,-0.10418,0.18045,-9.7652,0,0,45.511,1,1,753,995
15409,1.0469e+08,1,-0.0087062,-0.014611,-0.031401,0.14122,-0.018048,-9.7379,0,0,45.511,1,1,753,995
15414,1.0469e+08,1,-0.0097915,-0.04525,-0.025206,0.14246,-0.17197,-9.7851,0,0,45.512,1,1,753,995
15417,1.047e+08,1,-0.023222,-0.022506,-0.011782,0.085172,-0.16147,-9.8019,0,0,45.512,1,1,753,995
15420,1.047e+08,1,-0.038728,0.046237,0.023575,0.15039,-0.062434,-9.8417,0,0,45.512,1,1,753,995
15455,1.047e+08,1,-0.022855,0.067595,0.04235,0.19076,-0.0088559,-9.8641,0,0,45.512,1,1,753,995
15459,1.047e+08,1,-0.016346,0.03807,0.031893,0.046674,0.11945,-9.8227,0,0,45.512,1,1,753,995
15462,1.0471e+08,1,-0.032614,0.02027,0.0043271,-0.071595,0.25537,-9.7628,0,0,45.512,1,1,753,995
15466,1.0471e+08,1,-0.031791,0.0046064,-0.022236,-0.11761,0.43327,-9.6893,0,0,45.512,1,1,753,995
15501,1.0471e+08,1,-0.0024483,-0.024643,-0.040595,-0.24605,0.5041,-9.7145,0,0,45.512,1,1,753,995
15504,1.0471e+08,1,0.020162,-0.011766,-0.038767,-0.40448,0.52881,-9.7492,0,0,45.512,1,1,753,995
15507,1.0472e+08,1,0.026816,0.019273,-0.029226,-0.47638,0.53615,-9.7708,0,0,45.512,1,1,753,995
15510,1.0472e+08,1,0.042792,0.1024,0.0044844,-0.35369,0.42744,-9.7968,0,0,45.512,1,1,753,995
15545,1.0472e+08,1,0.036906,0.10131,0.0076105,-0.26585,0.29574,-9.7912,0,0,45.512,1,1,753,995
15549,1.0472e+08,1,0.0026589,0.07486,-0.0015315,-0.20477,0.16704,-9.7008,0,0,45.512,1,1,753,995
15552,1.0473e+08,1,-0.022957,0.042236,-0.014093,-0.083712,0.10225,-9.6302,0,0,45.512,1,1,753,995
15555,1.0473e+08,1,-0.018042,-0.0072284,-0.022458,0.16251,-0.050001,-9.6352,0,0,45.512,1,1,753,995
