LineNo,TimeUS,I,GyrX,GyrY,GyrZ,AccX,AccY,AccZ,EG,EA,T,GH,AH,GHz,AHz
184,33256349,2,-0.002244958,-0.0002583482,-0.00247208,-0.306185,-0.1574534,-9.819996,0,0,32.10257,1,1,7747,3873
215,33259140,2,-0.002498461,-0.0005341186,-0.003049498,-0.3058626,-0.1605186,-9.820911000000001,0,0,32.10273,1,1,7747,3873
291,33285681,2,-0.003077134,-1.129499e-05,0.002184996,-0.2992767,-0.1664688,-9.839195999999999,0,0,32.10443,1,1,7747,3873
407,33309404,2,0.0009917705000000001,0.00140912,0.0003316344,-0.3095096,-0.1587596,-9.852105,0,0,32.10565,1,1,7747,3873
522,33334855,2,0.0004129839,-0.002537104,0.002247743,-0.3152912,-0.1586035,-9.825934,0,0,32.1068,1,1,7747,3873
553,33337667,2,0.0001021909,-0.002640173,0.0004261782,-0.3162951,-0.1594984,-9.822722000000001,0,0,32.10691,1,1,7747,3873
633,33358133,2,0.002487246,-0.0002296988,0.001297509,-0.3368931,-0.1612838,-9.822236,0,0,32.10799,1,1,7747,3873
749,33384900,2,0.001999721,0.001083413,-0.0009529205,-0.3300966,-0.1823227,-9.817052,0,0,32.10949,1,1,7747,3873
864,33405910,2,0.0004797602,0.0006032834,-0.001210335,-0.3319072,-0.185823,-9.866282999999999,0,0,32.11002,1,1,7747,3873
980,33436545,2,-0.001993059,0.001730026,-0.001661298,-0.3239324,-0.1648182,-9.835487000000001,0,0,32.11121,1,1,7747,3873
1011,33439609,2,-0.002134065,0.001428467,-0.0001739724,-0.318062,-0.1662754,-9.830061000000001,0,0,32.11135,1,1,7747,3873
1091,33476225,2,-0.001995756,0.0004702673,0.002179038,-0.3050036,-0.1519158,-9.803794999999999,0,0,32.11274,1,1,7747,3873
1206,33569561,2,0.0006971737,-0.0004363105,-0.002161133,-0.3253239,-0.1549392,-9.80303,0,0,32.11814,1,1,7747,3873
1298,33614185,2,4.86946e-05,0.002208565,0.0008567971,-0.359713,-0.1574011,-9.864805,0,0,32.1201,1,1,7747,3873
1329,33617187,2,0.0002519605,0.002239258,0.0004378304,-0.3575411,-0.1549683,-9.856572999999999,0,0,32.12028,1,1,7747,3873
1390,33633490,2,0.0009589306,0.002728306,-0.0009342544,-0.3251306,-0.166781,-9.847901999999999,0,0,32.12138,1,1,7747,3873
1483,33648343,2,0.001362722,-0.001003072,3.613915e-05,-0.3274726,-0.1746295,-9.839205,0,0,32.12241,1,1,7747,3873
1568,33653495,2,0.001859229,-0.001113582,-0.001158241,-0.3277755,-0.1758011,-9.833693999999999,0,0,32.12269,1,1,7747,3873
1572,33660692,2,0.0008254178,0.001370644,0.001566443,-0.3387057,-0.1762383,-9.826079,0,0,32.12318,1,1,7747,3873
1606,33663202,2,0.001315046,0.001242512,0.002391011,-0.3383223,-0.172186,-9.824396999999999,0,0,32.12336,1,1,7747,3873
1609,33666092,2,0.002408024,0.0008462007,0.002434272,-0.3371856,-0.1693754,-9.823369,0,0,32.12348,1,1,7747,3873
1613,33668580,2,0.00289685,0.001361425,0.002350214,-0.3360265,-0.1673417,-9.821622,0,0,32.12367,1,1,7747,3873
1618,33670677,2,0.002049917,0.002022576,0.002104886,-0.3349241,-0.1651483,-9.818299,0,0,32.12385,1,1,7747,3873
1649,33673388,2,0.001265998,0.001823389,0.00144032,-0.3344028,-0.1638118,-9.816865999999999,0,0,32.12397,1,1,7747,3873
1652,33675790,2,0.001147296,0.00121071,0.001401459,-0.3338675,-0.1627584,-9.815407,0,0,32.12417,1,1,7747,3873
1656,33679635,2,0.001412328,0.001398003,0.001369014,-0.333674,-0.1627175,-9.811944,0,0,32.12439,1,1,7747,3873
1659,33682560,2,0.001448766,0.002144235,0.002076391,-0.3327417,-0.164107,-9.807335999999999,0,0,32.12462,1,1,7747,3873
1662,33684093,2,0.001445508,0.002411081,0.003627164,-0.3289164,-0.164361,-9.807897000000001,0,0,32.12486,1,1,7747,3873
1693,33686552,2,0.001691365,0.002790196,0.002201752,-0.3228204,-0.1647983,-9.812899,0,0,32.12511,1,1,7747,3873
1696,33690092,2,0.00181222,0.003002645,0.0004128482,-0.3127253,-0.1649543,-9.81883,0,0,32.12535,1,1,7747,3873
1699,33691828,2,0.001587352,0.002890734,-0.0002761605,-0.3059997,-0.1638291,-9.821820000000001,0,0,32.12552,1,1,7747,3873
1702,33694775,2,0.00137157,0.003119671,-0.0006494828,-0.2997201,-0.1614878,-9.826559,0,0,32.12583,1,1,7747,3873
1733,33697134,2,0.001170748,0.002652367,-0.0008353211,-0.2968919,-0.1622941,-9.831455999999999,0,0,32.12607,1,1,7747,3873
1737,33700395,2,0.0008903308,0.002404123,-0.0002791765,-0.2966844,-0.163231,-9.832877,0,0,32.12622,1,1,7747,3873
1740,33702312,2,0.0001039935,0.001510969,0.0001195953,-0.2972229,-0.1635112,-9.832941,0,0,32.12638,1,1,7747,3873
1743,33704868,2,-0.0003445955,0.0004872314,0.0002691477,-0.297902,-0.1657114,-9.836342,0,0,32.1266,1,1,7747,3873
1774,33707622,2,0.0003623807,0.0003358372,0.0004997487,-0.2974238,-0.1684125,-9.839116000000001,0,0,32.12682,1,1,7747,3873
1777,33709795,2,0.0003299742,0.0003885972,0.0003407702,-0.2963758,-0.1720998,-9.840648,0,0,32.12698,1,1,7747,3873
1780,33712606,2,-0.0002191089,0.0006646623,-0.0005990402,-0.2965077,-0.1761027,-9.841514,0,0,32.12711,1,1,7747,3873
1783,33714889,2,-0.002083663,-4.887559e-05,-0.001479715,-0.299701,-0.1799926,-9.842841,0,0,32.12732,1,1,7747,3873
1814,33717202,2,-0.00332905,1.667978e-05,-0.001776594,-0.3028453,-0.1827792,-9.846424000000001,0,0,32.12757,1,1,7747,3873
1818,33719728,2,-0.003473155,0.0001980658,-0.001728303,-0.3044798,-0.1841329,-9.847875,0,0,32.12768,1,1,7747,3873
1825,33722816,2,-0.002848587,0.0003356916,-0.001769936,-0.3068812,-0.1835589,-9.847412,0,0,32.1278,1,1,7747,3873
1830,33725834,2,-0.002080203,0.001269883,-0.002525596,-0.3127408,-0.1815399,-9.847147,0,0,32.12797,1,1,7747,3873
1861,33728784,2,-0.002172287,0.001333899,-0.001605013,-0.318973,-0.1798371,-9.850975999999999,0,0,32.12814,1,1,7747,3873
1864,33730684,2,-0.002292713,0.001230695,-0.0008514559,-0.3236472,-0.1783019,-9.855582,0,0,32.12831,1,1,7747,3873
1867,33733210,2,-0.002256289,0.0009831016999999999,-0.0001660867,-0.3246587,-0.1783528,-9.857028,0,0,32.12843,1,1,7747,3873
1870,33736125,2,-0.002147943,0.0003494349,-0.001350178,-0.3237102,-0.1772421,-9.855416,0,0,32.1286,1,1,7747,3873
1901,33738613,2,-0.001795319,0.0003309784,-0.0005652221,-0.322928,-0.1754031,-9.852304,0,0,32.12878,1,1,7747,3873
1905,33741152,2,-0.002472843,0.0004202873,-0.0004228353,-0.322217,-0.1725997,-9.84632,0,0,32.12896,1,1,7747,3873
1908,33743892,2,-0.0027691,0.0008647215,5.426734e-05,-0.3201402,-0.1709821,-9.841908999999999,0,0,32.12916,1,1,7747,3873
1911,33746497,2,-0.002802024,0.001744423,0.0004602338,-0.3167975,-0.1691894,-9.838638,0,0,32.12934,1,1,7747,3873
1942,33749116,2,-0.002856423,0.002018957,-0.0001488789,-0.3117485,-0.1673175,-9.837666,0,0,32.12959,1,1,7747,3873
1945,33751801,2,-0.002597928,0.001291697,-0.0003473848,-0.3089997,-0.1659361,-9.838387000000001,0,0,32.12972,1,1,7747,3873
1949,33753598,2,-0.001466334,7.426188999999999e-05,0.0002487746,-0.3045872,-0.1628612,-9.837344999999999,0,0,32.12995,1,1,7747,3873
1952,33755900,2,-0.001459154,-0.0005674229,-0.0001864529,-0.3025424,-0.1613082,-9.835267999999999,0,0,32.13005,1,1,7747,3873
1983,33758356,2,-0.0003990719,-0.0005021191,-0.001406964,-0.3001204,-0.1603289,-9.831804999999999,0,0,32.13021,1,1,7747,3873
1987,33764650,2,-0.001024311,0.0001692553,-0.0014193,-0.2986156,-0.1613908,-9.827818000000001,0,0,32.1305,1,1,7747,3873
1990,33766844,2,-0.001807695,-5.594088e-05,-0.0008664572,-0.3015947,-0.1635798,-9.823771000000001,0,0,32.13063,1,1,7747,3873
2021,33769084,2,-0.001717075,-0.000406627,-4.495143e-05,-0.3054078,-0.1651911,-9.821377999999999,0,0,32.13076,1,1,7747,3873
2025,33772094,2,-0.0009967958,-0.0004506106,-0.0001755165,-0.3094228,-0.1666907,-9.818409000000001,0,0,32.13084,1,1,7747,3873
2028,33774200,2,-0.0006625198,-0.0002672657,-0.0001224275,-0.3128714,-0.1672698,-9.814399999999999,0,0,32.13092,1,1,7747,3873
2031,33776920,2,-0.0005015797,-0.0007098746,0.00165632,-0.3158611,-0.1651607,-9.807649,0,0,32.13102,1,1,7747,3873
2062,33779903,2,-0.000610704,-0.001056442,0.003244309,-0.3181378,-0.1626333,-9.805479,0,0,32.13111,1,1,7747,3873
2065,33781579,2,-0.0009706307,-0.0008536016,0.002670117,-0.3190989,-0.1610512,-9.807736,0,0,32.13118,1,1,7747,3873
2068,33784690,2,-0.001026016,-0.0007302972,0.001880123,-0.3202902,-0.1603864,-9.809816,0,0,32.13125,1,1,7747,3873
2071,33786662,2,-0.0009819195000000001,-0.0008363007999999999,-0.0001617635,-0.3224927,-0.1610278,-9.810378999999999,0,0,32.13136,1,1,7747,3873
2102,33789346,2,-0.001251778,-0.0005875804,-0.0007146543,-0.323474,-0.1622242,-9.809274,0,0,32.13145,1,1,7747,3873
2106,33793128,2,-0.0002644433,0.0001027416,-0.0001427874,-0.3239192,-0.1647482,-9.812886000000001,0,0,32.13158,1,1,7747,3873
2109,33795056,2,0.000803118,0.0002454921,0.001722847,-0.3243583,-0.1673829,-9.819366,0,0,32.13172,1,1,7747,3873
2112,33797208,2,0.001197764,0.0001099857,0.00337803,-0.325114,-0.1689261,-9.8223,0,0,32.13182,1,1,7747,3873
2143,33799538,2,0.0009163001,0.0009529171,0.003503632,-0.3256752,-0.1700614,-9.824558,0,0,32.13197,1,1,7747,3873
2146,33802115,2,0.001088982,0.001218865,0.002480642,-0.3255423,-0.1699486,-9.825006,0,0,32.13207,1,1,7747,3873
2150,33805099,2,0.001720664,0.0006455588,0.002128889,-0.3246987,-0.1690534,-9.827636,0,0,32.13222,1,1,7747,3873
2153,33807579,2,0.001838294,0.0004906418,0.002307125,-0.323792,-0.168165,-9.832231999999999,0,0,32.13233,1,1,7747,3873
2184,33810095,2,0.001858357,5.354108e-05,0.002307532,-0.3225976,-0.1670778,-9.842644999999999,0,0,32.13249,1,1,7747,3873
2188,33812652,2,0.003003401,-8.471274e-05,0.001787719,-0.3217835,-0.1651103,-9.852313000000001,0,0,32.13266,1,1,7747,3873
2191,33815146,2,0.002944295,0.0004070973,0.002026781,-0.321199,-0.1629182,-9.857264000000001,0,0,32.13277,1,1,7747,3873
2194,33817663,2,0.002103042,0.0004168484,0.001470354,-0.3202219,-0.1609508,-9.862780000000001,0,0,32.13298,1,1,7747,3873
2225,33820663,2,0.001951372,-0.0001813232,0.0004296549,-0.3197807,-0.1613575,-9.865458,0,0,32.13314,1,1,7747,3873
2228,33822793,2,0.001007778,-0.0008228315,-0.0008922017,-0.3184589,-0.1636708,-9.867432000000001,0,0,32.13332,1,1,7747,3873
2235,33825357,2,0.0006007489,-0.0003796375,-0.00106415,-0.3174035,-0.1658123,-9.866317,0,0,32.13343,1,1,7747,3873
2238,33827629,2,0.0001053174,0.0003150633,-0.0001712208,-0.3176147,-0.1688997,-9.86378,0,0,32.13359,1,1,7747,3873
2269,33830647,2,-0.0001361873,0.0004390218,-0.0002043829,-0.3186736,-0.1704811,-9.860422,0,0,32.13369,1,1,7747,3873
2273,33832900,2,-0.0006036508,-2.963411e-05,-0.0005528886,-0.3196037,-0.171893,-9.85275,0,0,32.13384,1,1,7747,3873
2276,33835694,2,-4.753577e-05,-0.0005158358,-9.637141e-05,-0.3195053,-0.172194,-9.850222,0,0,32.13395,1,1,7747,3873
2279,33837598,2,0.0005186269,-0.001063482,0.0005583439,-0.3212732,-0.1735575,-9.842649,0,0,32.13416,1,1,7747,3873
2310,33840022,2,0.0006914355,-0.0008679031,0.001554501,-0.3245534,-0.1745671,-9.83839,0,0,32.13426,1,1,7747,3873
2317,33842915,2,0.0009506101,-0.0004896806,0.002555052,-0.3312447,-0.1741677,-9.835006999999999,0,0,32.13442,1,1,7747,3873
2320,33845370,2,0.0006864372,-0.0009408547,0.002080301,-0.3349635,-0.1724201,-9.834682000000001,0,0,32.13453,1,1,7747,3873
2324,33847380,2,-0.0004896096,-0.0006766787,0.001253131,-0.3373349,-0.1685123,-9.834941000000001,0,0,32.1347,1,1,7747,3873
2355,33850212,2,-0.00137693,4.947411e-05,0.0009155882,-0.3374051,-0.1653454,-9.834201,0,0,32.13481,1,1,7747,3873
2358,33852333,2,-0.002136462,0.000630237,0.0003865547,-0.3367941,-0.1616565,-9.833074999999999,0,0,32.13502,1,1,7747,3873
2361,33855171,2,-0.002121214,0.000705933,-0.0002186827,-0.3368223,-0.1610208,-9.832723,0,0,32.13512,1,1,7747,3873
2364,33858845,2,-0.002276312,0.000510051,-0.00146613,-0.3346945,-0.1615556,-9.830800999999999,0,0,32.13531,1,1,7747,3873
2367,33860873,2,-0.002463388,0.0001251169,-0.001083739,-0.3306463,-0.1633917,-9.829650000000001,0,0,32.13544,1,1,7747,3873
2399,33863185,2,-0.0015068,0.001439665,-0.001075219,-0.3274241,-0.1625479,-9.827633000000001,0,0,32.13559,1,1,7747,3873
2402,33865888,2,-0.0006690301,0.002302849,-0.0008445198,-0.3268239,-0.1619447,-9.826465000000001,0,0,32.13569,1,1,7747,3873
2405,33869278,2,-0.0003834103,0.002719335,-0.001737439,-0.3248927,-0.1597398,-9.823297999999999,0,0,32.13588,1,1,7747,3873
2408,33872155,2,-0.0006084784,0.002707911,-0.002123103,-0.3238946,-0.158659,-9.821346999999999,0,0,32.13597,1,1,7747,3873
2439,33874506,2,-0.0021716,0.002064858,-0.002280728,-0.3236231,-0.1581588,-9.81986,0,0,32.13615,1,1,7747,3873
2443,33877287,2,-0.001992681,0.001290653,-0.001868184,-0.3225145,-0.1581075,-9.819167999999999,0,0,32.13625,1,1,7747,3873
2446,33880285,2,-0.001099714,0.001144135,-0.001292209,-0.3213617,-0.1586355,-9.816757000000001,0,0,32.13644,1,1,7747,3873
2449,33882205,2,-0.0006245179,0.001083642,-0.001270257,-0.3217154,-0.1595566,-9.816447999999999,0,0,32.13656,1,1,7747,3873
2480,33885566,2,-0.0004622359,0.0002786666,-0.001869477,-0.3216927,-0.1632157,-9.817072,0,0,32.13674,1,1,7747,3873
2483,33887081,2,-0.0004869473,0.0001595082,-0.002371018,-0.3205552,-0.1656386,-9.820064,0,0,32.13688,1,1,7747,3873
2486,33890282,2,-4.528066e-06,-5.241554e-05,-0.002562837,-0.3185308,-0.1676989,-9.822435,0,0,32.13697,1,1,7747,3873
2489,33891833,2,0.0001736659,-0.0001513265,-0.002596015,-0.3166062,-0.169657,-9.825011999999999,0,0,32.1371,1,1,7747,3873
2520,33894792,2,-0.0005183547,0.0007819575,-0.002245598,-0.3154849,-0.1708619,-9.829041,0,0,32.13721,1,1,7747,3873
2526,33897101,2,-0.0005563027,0.001502973,-0.002789703,-0.3150219,-0.1721064,-9.833914,0,0,32.13733,1,1,7747,3873
2529,33899843,2,-0.000730621,0.001999342,-0.002682379,-0.3147897,-0.1739871,-9.839638000000001,0,0,32.13741,1,1,7747,3873
2532,33902637,2,-0.0008767039,0.001805106,-0.002277321,-0.3145931,-0.1756301,-9.840819,0,0,32.1375,1,1,7747,3873
2563,33905497,2,-0.0005244532,0.0003712401,-0.002458647,-0.3165797,-0.176135,-9.840693,0,0,32.13759,1,1,7747,3873
2566,33907581,2,-0.0002872761,2.8228e-05,-0.001265175,-0.3193996,-0.1747833,-9.838357999999999,0,0,32.13764,1,1,7747,3873
2569,33910240,2,-0.0001688163,0.0003389996,-0.001191098,-0.3215958,-0.1749435,-9.835922999999999,0,0,32.13767,1,1,7747,3873
2572,33912343,2,-0.0004037519,0.001317409,-0.001000935,-0.3248001,-0.1772707,-9.830921999999999,0,0,32.13774,1,1,7747,3873
2603,33915662,2,-0.0009771684,0.00201181,-0.000120924,-0.3265154,-0.1781694,-9.830406999999999,0,0,32.13778,1,1,7747,3873
2607,33917868,2,-0.001839578,0.002231799,-4.629747e-05,-0.3281637,-0.1768282,-9.832613,0,0,32.13784,1,1,7747,3873
2610,33920272,2,-0.002680287,0.002129003,-0.0008635542,-0.328642,-0.1759863,-9.834128,0,0,32.13788,1,1,7747,3873
2613,33922634,2,-0.001917037,0.001048583,-0.0004468134,-0.3289379,-0.1750204,-9.836930000000001,0,0,32.13797,1,1,7747,3873
2644,33925095,2,-0.0007670315,0.0009313946,7.335976e-05,-0.3293851,-0.1736041,-9.838893000000001,0,0,32.13802,1,1,7747,3873
2651,33928533,2,-3.107469e-05,0.001704735,0.0008812151,-0.3303548,-0.1715687,-9.841117000000001,0,0,32.13808,1,1,7747,3873
2656,33930635,2,0.0002665167,0.002000046,0.0008962362,-0.3315201,-0.1684828,-9.842477000000001,0,0,32.13811,1,1,7747,3873
2659,33932547,2,0.0007686976,0.001617567,0.0007227986,-0.3323764,-0.1621082,-9.841271000000001,0,0,32.13816,1,1,7747,3873
2690,33935789,2,0.001545929,0.0008608887,0.0004363344,-0.3317755,-0.1576793,-9.840833,0,0,32.13823,1,1,7747,3873
2693,33937849,2,0.001468747,0.001126244,0.001160611,-0.3279073,-0.1524854,-9.841187,0,0,32.13828,1,1,7747,3873
2696,33940223,2,0.001456107,0.00113368,0.001440948,-0.3230357,-0.1504817,-9.841393999999999,0,0,32.13834,1,1,7747,3873
2699,33943143,2,0.001463558,0.0008585449999999999,0.0005872293,-0.3154221,-0.1499382,-9.840168,0,0,32.13845,1,1,7747,3873
2730,33945755,2,0.0007187339,0.0004202079,-0.0005216543,-0.309016,-0.1515499,-9.836114999999999,0,0,32.13852,1,1,7747,3873
2734,33948118,2,0.0001599477,0.0006883111,-0.0002546897,-0.3061427,-0.1537156,-9.830962,0,0,32.1386,1,1,7747,3873
2737,33950761,2,-0.0002919876,0.002141865,0.0001291208,-0.3028987,-0.1580062,-9.826022999999999,0,0,32.13868,1,1,7747,3873
2740,33953479,2,-5.135978e-05,0.002492435,0.001149434,-0.3013211,-0.1603848,-9.826563999999999,0,0,32.13875,1,1,7747,3873
2771,33956180,2,0.0004072262,0.002455187,0.001862721,-0.3001239,-0.1636787,-9.827700999999999,0,0,32.13882,1,1,7747,3873
2775,33958541,2,0.001382416,0.001942105,0.0009245766,-0.2996853,-0.165867,-9.827756000000001,0,0,32.13888,1,1,7747,3873
2778,33960801,2,0.001931552,0.00115871,0.0001146215,-0.3008013,-0.1678713,-9.826571,0,0,32.13893,1,1,7747,3873
2781,33963321,2,0.002685411,0.001069955,-0.0003820926,-0.3027589,-0.1716613,-9.822043000000001,0,0,32.13898,1,1,7747,3873
2812,33966904,2,0.002245878,0.0009852239,0.0001107316,-0.304541,-0.1741204,-9.819277,0,0,32.13902,1,1,7747,3873
2816,33969178,2,0.001591587,0.001151214,-0.0001257538,-0.3078139,-0.1773971,-9.817349,0,0,32.13906,1,1,7747,3873
2819,33971191,2,0.00190885,0.001315231,-8.716297e-05,-0.3091475,-0.1784638,-9.81582,0,0,32.13907,1,1,7747,3873
2822,33973287,2,0.002296193,0.00148184,0.001356853,-0.3103045,-0.178921,-9.812502,0,0,32.13913,1,1,7747,3873
2853,33975856,2,0.001760486,0.001316191,0.002024208,-0.3120494,-0.1799733,-9.810983,0,0,32.13917,1,1,7747,3873
2856,33979273,2,0.001237596,0.0006867499,0.00136783,-0.3139522,-0.1808736,-9.809495999999999,0,0,32.13925,1,1,7747,3873
2859,33981336,2,0.0004464059,-1.970778e-05,0.0005317228,-0.3141443,-0.179593,-9.810575,0,0,32.13928,1,1,7747,3873
2862,33983532,2,-0.0002749831,-0.0002510687,6.398436e-05,-0.3147545,-0.1776326,-9.809336999999999,0,0,32.13939,1,1,7747,3873
2893,33985839,2,0.0002468245,0.0005643306,-0.0006640991,-0.3163486,-0.1769117,-9.806673999999999,0,0,32.13944,1,1,7747,3873
2897,33988497,2,0.0009083051,0.0008996043999999999,-0.0001528581,-0.3187867,-0.1742392,-9.805932,0,0,32.13953,1,1,7747,3873
2900,33991771,2,0.001519229,0.0005596307,0.000141923,-0.3188558,-0.1736283,-9.806804,0,0,32.1396,1,1,7747,3873
2903,33996113,2,0.001671655,-0.0007043424,0.001618824,-0.3137411,-0.1752139,-9.820767,0,0,32.13977,1,1,7747,3873
2934,33998601,2,0.0008855066,-0.001108628,0.002404579,-0.3111857,-0.1761685,-9.827009,0,0,32.13981,1,1,7747,3873
2937,34001183,2,0.0006827725,-0.0006536687,0.002319829,-0.3063879,-0.1782152,-9.832179,0,0,32.13989,1,1,7747,3873
2940,34004304,2,0.0006158805,-0.0009613089,0.001623064,-0.3027907,-0.1794819,-9.834322999999999,0,0,32.13994,1,1,7747,3873
2945,34006634,2,-0.0005682596,-0.001227996,0.0002522459,-0.2969355,-0.1798652,-9.840061,0,0,32.14001,1,1,7747,3873
2977,34008884,2,-0.0002131397,-0.0005236474000000001,5.397029e-05,-0.2934852,-0.1785716,-9.844374999999999,0,0,32.14006,1,1,7747,3873
2980,34011352,2,0.0005583955,-0.0006469327,-0.0004134081,-0.2897163,-0.176663,-9.847910000000001,0,0,32.14014,1,1,7747,3873
2983,34013907,2,0.0007886427,-0.001080107,-0.0006606986,-0.2879134,-0.1754037,-9.850922000000001,0,0,32.1402,1,1,7747,3873
2986,34016874,2,-4.985201e-05,-0.001640446,-0.0005000659,-0.2869892,-0.1745463,-9.853224000000001,0,0,32.14033,1,1,7747,3873
3017,34019629,2,-0.0007236696,-0.001890145,0.0005879044,-0.289036,-0.1745349,-9.853111,0,0,32.14042,1,1,7747,3873
3021,34021881,2,-0.0009603211,-0.001461794,0.0004696571,-0.2904736,-0.1744924,-9.853649000000001,0,0,32.1405,1,1,7747,3873
3024,34024237,2,-0.0007777998,-0.0005733879000000001,-0.0003284828,-0.296293,-0.1735113,-9.855903,0,0,32.14064,1,1,7747,3873
3027,34027103,2,-0.0006377022,-0.0002251072,-0.0006114002,-0.3014908,-0.172764,-9.856464000000001,0,0,32.1407,1,1,7747,3873
3062,34029927,2,-0.0005312358,-8.147476000000001e-06,-0.001533299,-0.3090977,-0.1706106,-9.853297,0,0,32.1408,1,1,7747,3873
3065,34032567,2,7.445188e-05,0.0001634515,-0.001906923,-0.3127685,-0.1694227,-9.852982000000001,0,0,32.14086,1,1,7747,3873
3068,34034256,2,-0.0001475926,0.0003415162,-0.00197254,-0.3163154,-0.166745,-9.854065,0,0,32.14098,1,1,7747,3873
3071,34037111,2,-0.0007426295,0.0004519086,-0.001699552,-0.3182436,-0.1644286,-9.855013,0,0,32.14104,1,1,7747,3873
3102,34040253,2,-0.001113095,1.676712e-05,-0.001284146,-0.3209212,-0.1626183,-9.856907,0,0,32.14112,1,1,7747,3873
3106,34042504,2,-0.001101588,4.074722e-05,-0.001094639,-0.3217733,-0.1626396,-9.858514,0,0,32.14119,1,1,7747,3873
3109,34044567,2,-0.001176477,0.0001942804,-0.001416598,-0.3226909,-0.1648039,-9.861649,0,0,32.1413,1,1,7747,3873
3112,34046699,2,-0.0009052302,0.0007841442,-0.001479442,-0.3238454,-0.167337,-9.862144000000001,0,0,32.14137,1,1,7747,3873
3143,34049348,2,-0.0006139089,0.001478408,-0.004101864,-0.3259296,-0.1722387,-9.859123,0,0,32.14146,1,1,7747,3873
3146,34052200,2,-0.0005664664,0.001493812,-0.005000045,-0.3271774,-0.1744211,-9.855100999999999,0,0,32.14152,1,1,7747,3873
3149,34054795,2,-6.104593000000001e-05,0.001532906,-0.004034217,-0.3280503,-0.1767881,-9.851430000000001,0,0,32.14165,1,1,7747,3873
3152,34056915,2,2.693091e-05,0.00175139,-0.002804989,-0.3293692,-0.1785273,-9.847936000000001,0,0,32.14174,1,1,7747,3873
3185,34059649,2,0.0002455291,0.002035025,-0.001476447,-0.3311891,-0.1790341,-9.842572000000001,0,0,32.14186,1,1,7747,3873
3189,34061841,2,0.0007442808,0.001841869,-2.419916e-05,-0.3309063,-0.1771342,-9.838210999999999,0,0,32.14195,1,1,7747,3873
3192,34065623,2,0.001495741,0.001122555,0.001797956,-0.3289474,-0.1738588,-9.832817,0,0,32.14214,1,1,7747,3873
3195,34068382,2,0.001581809,0.0005489626,0.001183442,-0.3263933,-0.1718875,-9.831096000000001,0,0,32.14225,1,1,7747,3873
3198,34070006,2,0.0009536013,0.0005460442,-0.0006783851,-0.3222628,-0.1696928,-9.830914999999999,0,0,32.14241,1,1,7747,3873
3229,34072554,2,0.0008980822,0.0009603208999999999,-0.001633039,-0.3196247,-0.1693791,-9.832407999999999,0,0,32.14258,1,1,7747,3873
3232,34075731,2,0.0008605988,0.001504754,-0.00091693,-0.3177222,-0.1697076,-9.834225999999999,0,0,32.14271,1,1,7747,3873
3235,34077363,2,-0.0004345014,0.001106172,7.551595e-05,-0.3156673,-0.1695061,-9.834758000000001,0,0,32.14296,1,1,7747,3873
3238,34080321,2,-0.001077747,0.0003763301,0.001196835,-0.3157463,-0.1695113,-9.834991,0,0,32.14308,1,1,7747,3873
3269,34082904,2,-0.0007954918,0.0003275588,0.001620178,-0.3180536,-0.1722704,-9.835615000000001,0,0,32.14325,1,1,7747,3873
3274,34085553,2,4.048043e-05,0.001084995,0.002142474,-0.3203021,-0.1745085,-9.835629000000001,0,0,32.1434,1,1,7747,3873
3277,34088125,2,-3.022815e-05,0.00180497,0.001690871,-0.324248,-0.1760922,-9.833163000000001,0,0,32.14356,1,1,7747,3873
3280,34090605,2,-0.0003211852,0.002090682,0.001113758,-0.3298071,-0.1762675,-9.826495,0,0,32.14373,1,1,7747,3873
3314,34093728,2,-0.000359887,0.002142347,0.00110415,-0.3332485,-0.1755868,-9.821438000000001,0,0,32.14384,1,1,7747,3873
3318,34095522,2,0.0003363088,0.001892465,0.001595807,-0.3381268,-0.1756453,-9.814627,0,0,32.14399,1,1,7747,3873
3321,34097787,2,0.0002704309,0.001361658,0.001786555,-0.3412139,-0.1754896,-9.811937,0,0,32.14409,1,1,7747,3873
3325,34100834,2,0.0009793504000000001,0.00135005,0.001694001,-0.344147,-0.1749146,-9.812053000000001,0,0,32.14424,1,1,7747,3873
3356,34103668,2,0.002535892,0.001488793,0.00162714,-0.3448158,-0.1744971,-9.816065,0,0,32.14439,1,1,7747,3873
3359,34105844,2,0.002612992,0.001585258,0.002002966,-0.3455425,-0.1741617,-9.823990999999999,0,0,32.1445,1,1,7747,3873
3362,34108327,2,0.001755279,0.001651435,0.002283447,-0.3453382,-0.1731632,-9.830598999999999,0,0,32.1446,1,1,7747,3873
3365,34111203,2,0.0004070415,0.0009340451,0.002328913,-0.3447248,-0.1730134,-9.839817999999999,0,0,32.14474,1,1,7747,3873
3396,34113474,2,0.001280565,-0.0001883161,0.002159243,-0.3453909,-0.1724956,-9.846686999999999,0,0,32.14487,1,1,7747,3873
3400,34116628,2,0.001354533,-0.0005859207,0.001860214,-0.3464799,-0.170983,-9.851777,0,0,32.14496,1,1,7747,3873
3403,34118813,2,0.002287573,-0.0009654689,0.001883506,-0.3455427,-0.1696698,-9.85651,0,0,32.1451,1,1,7747,3873
3406,34121332,2,0.00277883,-0.0003416551,0.002604461,-0.3433997,-0.1688659,-9.859474000000001,0,0,32.14519,1,1,7747,3873
3437,34124196,2,0.002946093,0.0002679134,0.002998896,-0.3390629,-0.1674111,-9.86214,0,0,32.14539,1,1,7747,3873
3440,34126247,2,0.002888906,0.0003743301,0.002276378,-0.3351685,-0.1663198,-9.862474000000001,0,0,32.14556,1,1,7747,3873
3443,34128774,2,0.002432502,0.0007640611,0.001729319,-0.3287826,-0.1696708,-9.861974999999999,0,0,32.14571,1,1,7747,3873
3450,34131689,2,0.001982819,0.001192818,0.0006449053,-0.3251602,-0.1738495,-9.861357,0,0,32.14582,1,1,7747,3873
3483,34134815,2,0.001559862,0.002156613,-0.0005999405,-0.3210124,-0.1765751,-9.862019999999999,0,0,32.14599,1,1,7747,3873
3487,34137214,2,0.001774084,0.001896458,-0.0007186002,-0.3174333,-0.1764592,-9.861991,0,0,32.14615,1,1,7747,3873
3490,34139150,2,0.002051604,0.001871682,-0.0001138372,-0.3151656,-0.1757445,-9.86097,0,0,32.14626,1,1,7747,3873
3494,34141624,2,0.0009442221,0.001260372,0.0005271517,-0.3129742,-0.1743731,-9.860421000000001,0,0,32.14646,1,1,7747,3873
3525,34144314,2,-0.0004531843,0.0002784262,0.001140953,-0.3122918,-0.1746815,-9.859481000000001,0,0,32.14658,1,1,7747,3873
3530,34147506,2,-0.0008692473,9.549169000000001e-05,0.001306141,-0.3116522,-0.1756099,-9.857519999999999,0,0,32.14672,1,1,7747,3873
3533,34149526,2,-0.00119963,0.0007854884,0.0008978751000000001,-0.3111486,-0.1767611,-9.854433999999999,0,0,32.14682,1,1,7747,3873
3536,34151858,2,-0.001718745,0.0008484569,0.0001308047,-0.3103009,-0.1788401,-9.849774,0,0,32.14697,1,1,7747,3873
3567,34154099,2,-0.001916861,0.0005310962,6.037461e-05,-0.3068524,-0.178968,-9.845351000000001,0,0,32.14714,1,1,7747,3873
3570,34156861,2,-0.002202134,0.0004187546,0.0007198958,-0.3057119,-0.1785048,-9.841113,0,0,32.14722,1,1,7747,3873
3573,34159609,2,-0.00254232,0.0001117061,0.0006240902,-0.3051957,-0.1773219,-9.837216,0,0,32.14732,1,1,7747,3873
3576,34161915,2,-0.003142332,-0.0007303161,-0.0001306161,-0.3043201,-0.1745517,-9.833589999999999,0,0,32.14744,1,1,7747,3873
3607,34164170,2,-0.003021724,-0.0003187789,-0.0004478791,-0.3040872,-0.1699543,-9.832324,0,0,32.14759,1,1,7747,3873
3611,34166600,2,-0.00231973,-8.405523e-05,-0.0002466969,-0.3048714,-0.1662132,-9.831853000000001,0,0,32.14768,1,1,7747,3873
3614,34170550,2,-0.001835452,0.0008384752000000001,-0.0001024871,-0.307014,-0.1630622,-9.831605,0,0,32.14777,1,1,7747,3873
3617,34171694,2,-0.0006462884,0.00217858,-0.0001788885,-0.3103251,-0.1609019,-9.830916999999999,0,0,32.1479,1,1,7747,3873
3648,34177594,2,-0.001833447,0.001463507,-0.001406837,-0.3178768,-0.1562021,-9.828196999999999,0,0,32.14813,1,1,7747,3873
3651,34180768,2,-0.001853479,0.00197677,-0.001158611,-0.3185193,-0.1558041,-9.829647,0,0,32.14819,1,1,7747,3873
3654,34182142,2,-0.002216962,0.001943848,-0.0006588305,-0.3190553,-0.1570005,-9.830603999999999,0,0,32.14834,1,1,7747,3873
3685,34185286,2,-0.002089598,0.001511049,0.0004165547,-0.3182133,-0.1591479,-9.828917000000001,0,0,32.14841,1,1,7747,3873
3688,34187423,2,-0.0006045667,0.001308253,0.00189687,-0.3155988,-0.1609927,-9.830371,0,0,32.14853,1,1,7747,3873
3692,34189807,2,-0.0001455849,0.0009144844,0.001710584,-0.3131359,-0.1615883,-9.834833,0,0,32.14865,1,1,7747,3873
3695,34192775,2,-0.000553301,-9.42456e-05,-0.0004288112,-0.3097382,-0.1618573,-9.839117999999999,0,0,32.14878,1,1,7747,3873
3726,34195248,2,-0.0006680802,-0.0003558571,-0.0006363846,-0.3079142,-0.16214,-9.840501,0,0,32.14889,1,1,7747,3873
3729,34198176,2,-0.0003597989,-0.000398894,-0.0006041542,-0.3074825,-0.1643318,-9.841243,0,0,32.14905,1,1,7747,3873
3733,34200282,2,-0.0005869719999999999,-0.0003293298,4.243196e-05,-0.3076236,-0.1658657,-9.842174,0,0,32.14919,1,1,7747,3873
3736,34202806,2,-0.001079082,6.023699e-05,0.0008529547,-0.3070154,-0.1694465,-9.844811999999999,0,0,32.14936,1,1,7747,3873
3767,34205119,2,-0.0009618234,-0.0005609522,0.0008882896,-0.3068491,-0.1725313,-9.846636,0,0,32.14947,1,1,7747,3873
3771,34208020,2,-0.000332829,-0.0009794305000000001,0.0005209728,-0.3075835,-0.1736144,-9.845394000000001,0,0,32.14954,1,1,7747,3873
3774,34210591,2,-0.0003106856,-0.001628009,0.0005675899000000001,-0.3086202,-0.1740874,-9.844567,0,0,32.14963,1,1,7747,3873
3777,34212827,2,-0.001319794,-0.001344862,-0.0006810921,-0.313536,-0.1742878,-9.842722,0,0,32.14974,1,1,7747,3873
3808,34215587,2,-0.001261527,-0.0007641559,-0.001420842,-0.3190517,-0.173219,-9.838086000000001,0,0,32.14984,1,1,7747,3873
3811,34217777,2,-0.0008993241,-0.0004790886,-0.001590463,-0.321373,-0.17183,-9.836081999999999,0,0,32.14992,1,1,7747,3873
3815,34220681,2,-0.0004013858,9.813154e-06,-0.001574563,-0.3221439,-0.1703898,-9.836239000000001,0,0,32.15,1,1,7747,3873
3818,34223135,2,-0.0007072285,-0.000587897,-0.0009848826000000001,-0.3208578,-0.1682165,-9.838607,0,0,32.15014,1,1,7747,3873
3849,34225537,2,-0.001387927,-0.0005715931,-0.0001983215,-0.3172593,-0.1656793,-9.841887,0,0,32.15029,1,1,7747,3873
3852,34228603,2,-0.001835505,0.0003670557,0.0001888027,-0.3143367,-0.1627212,-9.845388,0,0,32.15038,1,1,7747,3873
3855,34230845,2,-0.002019522,0.0009345397,0.0002838862,-0.3102539,-0.1575295,-9.849356999999999,0,0,32.15051,1,1,7747,3873
3862,34233372,2,-0.001538566,-9.35472e-05,-6.126622999999999e-05,-0.3085775,-0.1550241,-9.851570000000001,0,0,32.15064,1,1,7747,3873
3893,34236203,2,-0.001195518,2.286952e-05,-0.001138794,-0.3066235,-0.1517453,-9.850300000000001,0,0,32.15079,1,1,7747,3873
3896,34238575,2,0.0002726091,8.756162e-05,-0.001384481,-0.3062459,-0.1486194,-9.845165,0,0,32.15097,1,1,7747,3873
3900,34241190,2,0.001012385,7.560125e-05,-0.00151638,-0.3065686,-0.1476145,-9.842205,0,0,32.15107,1,1,7747,3873
3903,34243877,2,0.001761841,-0.0001367178,-0.0006465517,-0.3069012,-0.1480072,-9.839808,0,0,32.15123,1,1,7747,3873
3934,34246613,2,0.001231239,-0.0003972543,-8.140853e-05,-0.3081204,-0.1517764,-9.837865000000001,0,0,32.1514,1,1,7747,3873
3937,34249359,2,0.0008216363,-0.0002614335,-0.0002084996,-0.3081428,-0.1552452,-9.836925000000001,0,0,32.1515,1,1,7747,3873
3940,34251626,2,0.001335303,-2.113617e-05,-0.0006723325,-0.3076016,-0.1599243,-9.835948999999999,0,0,32.15166,1,1,7747,3873
3943,34254303,2,0.001427361,0.0001094729,-0.0001555718,-0.3079629,-0.1624609,-9.837792,0,0,32.15176,1,1,7747,3873
3974,34256809,2,0.001845524,0.0004698831,-0.0004334186,-0.3086612,-0.1638358,-9.841391,0,0,32.15196,1,1,7747,3873
3978,34259544,2,0.002228206,0.0003402891,0.0009319917,-0.3085385,-0.1632745,-9.839724,0,0,32.15212,1,1,7747,3873
3982,34262250,2,0.001949014,0.0005315955,0.002176887,-0.3081619,-0.1624355,-9.83719,0,0,32.15223,1,1,7747,3873
3985,34264599,2,0.002115423,0.0005743176,0.00320793,-0.3093669,-0.1618076,-9.834759999999999,0,0,32.15239,1,1,7747,3873
4016,34268152,2,0.00220837,0.0006680121,0.003458782,-0.311319,-0.1624335,-9.833273,0,0,32.15257,1,1,7747,3873
4019,34269796,2,0.001732789,0.0006898999,0.002820538,-0.3136031,-0.1651317,-9.831562,0,0,32.15274,1,1,7747,3873
4022,34272105,2,0.001207822,0.0004604106,0.002276911,-0.3154036,-0.1677853,-9.830080000000001,0,0,32.15286,1,1,7747,3873
4025,34277329,2,-0.0009473767,0.001260343,0.001154971,-0.320304,-0.1716754,-9.82498,0,0,32.15322,1,1,7747,3873
4056,34280799,2,-0.001011746,0.0007573861,0.0004444285,-0.3216969,-0.1721559,-9.825294,0,0,32.15334,1,1,7747,3873
4060,34282579,2,0.0004019105,-0.0005737291,-0.0003226899,-0.3231084,-0.1730058,-9.826127,0,0,32.15351,1,1,7747,3873
4063,34284836,2,0.001502024,-0.0009261461,-0.0001399308,-0.3226283,-0.1734048,-9.826279,0,0,32.15363,1,1,7747,3873
4066,34287794,2,0.00173042,-0.0003673128,-1.279464e-06,-0.3216839,-0.1738389,-9.825308,0,0,32.15382,1,1,7747,3873
4097,34290674,2,0.001759958,0.0002221119,0.0002958195,-0.3211027,-0.1736497,-9.826090000000001,0,0,32.15395,1,1,7747,3873
4101,34292867,2,0.00154672,0.000528028,0.0007588515,-0.3213109,-0.1718631,-9.831263999999999,0,0,32.15413,1,1,7747,3873
4104,34295110,2,0.001090109,0.000414209,-0.0002949548,-0.3212576,-0.1699885,-9.835210999999999,0,0,32.15426,1,1,7747,3873
4107,34297869,2,-0.000365311,0.0005175687,-0.002131258,-0.3212186,-0.1693537,-9.840650999999999,0,0,32.15452,1,1,7747,3873
4138,34300496,2,-0.0005509108,0.001100548,-0.002287471,-0.3216458,-0.1697951,-9.842072999999999,0,0,32.15471,1,1,7747,3873
4142,34303239,2,-0.0007405758,0.001312304,-0.0008049247,-0.3200604,-0.1698289,-9.842561999999999,0,0,32.1549,1,1,7747,3873
4145,34305455,2,-0.00129824,0.0004969953,0.0003580073,-0.3189629,-0.1697577,-9.844545999999999,0,0,32.15508,1,1,7747,3873
4148,34308094,2,-0.0009150402,-0.0007054977,0.001218205,-0.3181997,-0.169588,-9.847496,0,0,32.15527,1,1,7747,3873
4179,34310802,2,-0.0002125553,-0.000492309,0.0006499689,-0.3170461,-0.1690734,-9.853911999999999,0,0,32.15546,1,1,7747,3873
4183,34313265,2,-0.0002620856,5.851633e-05,5.222792e-05,-0.3155649,-0.1694565,-9.857877,0,0,32.15557,1,1,7747,3873
4186,34316103,2,-0.0004998466,-3.709552e-06,0.0001613561,-0.3137824,-0.1691965,-9.858029,0,0,32.15573,1,1,7747,3873
4189,34318292,2,-0.0006221164,0.0004271136,-0.0005981252,-0.3129823,-0.1677628,-9.855589,0,0,32.15584,1,1,7747,3873
4222,34321558,2,-0.0001394096,0.0002653431,0.000564539,-0.3130152,-0.1652651,-9.850636,0,0,32.15604,1,1,7747,3873
4225,34323322,2,0.0001753299,-0.0001241548,0.0007852896,-0.3130672,-0.1650153,-9.848964,0,0,32.15615,1,1,7747,3873
4228,34325670,2,-6.078211e-05,-7.334798e-05,0.000303388,-0.3120559,-0.1664853,-9.847808000000001,0,0,32.15631,1,1,7747,3873
4231,34328650,2,-0.0006575591,3.696327e-06,-0.0006067725,-0.3123647,-0.1686787,-9.847030999999999,0,0,32.15643,1,1,7747,3873
4262,34330925,2,-0.0009729123,-0.000256746,-0.001235091,-0.3145106,-0.1720212,-9.846735000000001,0,0,32.1566,1,1,7747,3873
4266,34334167,2,-0.002083262,-0.0004573424,-0.0006444863,-0.3170538,-0.1746934,-9.844226000000001,0,0,32.15676,1,1,7747,3873
4273,34336637,2,-0.003012849,-0.00049298,-0.0002834763,-0.3178225,-0.1759815,-9.841635,0,0,32.15687,1,1,7747,3873
4279,34338915,2,-0.003991268,-0.0006046858,-0.001157578,-0.3195637,-0.1773248,-9.840096000000001,0,0,32.15705,1,1,7747,3873
4310,34341536,2,-0.003735326,-1.598254e-05,-0.001337828,-0.3241411,-0.1776035,-9.837833,0,0,32.15724,1,1,7747,3873
4315,34344239,2,-0.002616059,0.0007163055,-0.001234059,-0.3277799,-0.1760136,-9.834322999999999,0,0,32.15737,1,1,7747,3873
4318,34346864,2,-0.00135704,0.0002854473,-0.0009269011,-0.3329747,-0.1726244,-9.828656000000001,0,0,32.15762,1,1,7747,3873
4321,34349159,2,-0.001248515,-0.0005673122,-0.0009275815,-0.3339538,-0.1708568,-9.826098,0,0,32.15775,1,1,7747,3873
4352,34351910,2,-0.00147866,-0.0004507902,0.0001548767,-0.334263,-0.1696853,-9.825405,0,0,32.15793,1,1,7747,3873
4355,34354131,2,-0.001595497,-0.0001519809,0.0002180396,-0.3348346,-0.1688714,-9.826833000000001,0,0,32.15807,1,1,7747,3873
4358,34356914,2,-0.001846786,0.0005638859,-0.000617563,-0.3356441,-0.167315,-9.829423999999999,0,0,32.15833,1,1,7747,3873
4361,34359574,2,-0.001508228,0.0007180824,-0.0007949844,-0.3351621,-0.1663713,-9.829786,0,0,32.15845,1,1,7747,3873
4392,34361810,2,-0.001346973,0.001047833,-0.0001440309,-0.3342382,-0.1643807,-9.827627,0,0,32.15871,1,1,7747,3873
4396,34364892,2,-0.001598467,0.001380771,0.0004415007,-0.3348818,-0.159206,-9.825773999999999,0,0,32.15891,1,1,7747,3873
4399,34367094,2,-0.001774427,0.001607495,0.0004424054,-0.3338625,-0.1563719,-9.826867999999999,0,0,32.15905,1,1,7747,3873
4402,34369577,2,-0.001183402,0.001907468,-0.0006457424,-0.332242,-0.1547564,-9.829022,0,0,32.15933,1,1,7747,3873
4433,34372049,2,-0.0002956547,0.002095341,-0.0002998099,-0.3303805,-0.1532288,-9.830263,0,0,32.15947,1,1,7747,3873
4436,34375038,2,-0.0004936822,0.00235358,3.067237e-05,-0.3276393,-0.1518411,-9.831633,0,0,32.15976,1,1,7747,3873
4439,34379885,2,-0.0003255106,0.001267219,-0.0001825792,-0.3227817,-0.1556144,-9.828968,0,0,32.16032,1,1,7747,3873
4470,34382478,2,0.001208205,0.001877371,-0.001252028,-0.3206505,-0.1598252,-9.826859000000001,0,0,32.16054,1,1,7747,3873
4474,34387905,2,0.002277785,0.0006314414,-0.002059168,-0.3156223,-0.1651709,-9.820021000000001,0,0,32.161,1,1,7747,3873
4477,34390458,2,0.002048769,0.0001880354,-0.001338359,-0.3143315,-0.1660542,-9.818555999999999,0,0,32.16116,1,1,7747,3873
4508,34392691,2,0.0009476961,0.0008276401,-0.0005329007,-0.3134157,-0.1645932,-9.817294,0,0,32.1614,1,1,7747,3873
4512,34395497,2,0.0007023503,0.001669016,-0.000103056,-0.3147557,-0.1623899,-9.816648000000001,0,0,32.16157,1,1,7747,3873
4515,34397819,2,0.0007120373,0.002877208,0.0005205531,-0.3172347,-0.1603626,-9.818101,0,0,32.16191,1,1,7747,3873
4518,34400879,2,0.0006479028,0.003031221,0.001024035,-0.3196274,-0.1596638,-9.821358,0,0,32.16215,1,1,7747,3873
4549,34403855,2,0.0009375539999999999,0.002540007,0.0004700104,-0.3233579,-0.1591234,-9.824151000000001,0,0,32.16255,1,1,7747,3873
4553,34406151,2,0.0009015148,0.002376423,-0.000130454,-0.3229591,-0.159057,-9.825412,0,0,32.16273,1,1,7747,3873
4557,34408492,2,0.001168488,0.002713475,0.0003174689,-0.3218976,-0.1595056,-9.825964000000001,0,0,32.16311,1,1,7747,3873
4560,34411451,2,0.001738106,0.003107188,0.001197329,-0.3202686,-0.1604763,-9.826244000000001,0,0,32.1633,1,1,7747,3873
4591,34414148,2,0.002586758,0.003269501,0.001354799,-0.3165374,-0.1609914,-9.830117,0,0,32.16367,1,1,7747,3873
4595,34416356,2,0.002961014,0.002971444,0.001839561,-0.3143765,-0.1606945,-9.836213000000001,0,0,32.16396,1,1,7747,3873
4598,34418726,2,0.003038014,0.002215091,0.002844963,-0.3152538,-0.1596373,-9.841879,0,0,32.16426,1,1,7747,3873
4601,34421317,2,0.002657737,0.002144009,0.002775691,-0.3158754,-0.1576782,-9.842594,0,0,32.16456,1,1,7747,3873
4632,34424151,2,0.001322045,0.001150847,0.001793104,-0.315243,-0.1543365,-9.842238999999999,0,0,32.16487,1,1,7747,3873
4635,34426864,2,0.001226904,0.0006280788,0.001259473,-0.3156406,-0.1534377,-9.841701,0,0,32.16507,1,1,7747,3873
4638,34428810,2,0.001966756,0.001304666,0.001289868,-0.3141972,-0.1542518,-9.840035,0,0,32.16537,1,1,7747,3873
4641,34431297,2,0.001582437,0.001477551,0.00132256,-0.3132525,-0.1545378,-9.838784,0,0,32.16556,1,1,7747,3873
4672,34433666,2,0.001071639,0.0008499265,0.001895217,-0.3087271,-0.1549079,-9.836233999999999,0,0,32.16584,1,1,7747,3873
4676,34436769,2,0.0005921692,0.0005929439000000001,0.002238697,-0.3050441,-0.1548692,-9.836512000000001,0,0,32.16602,1,1,7747,3873
4683,34439671,2,0.0007038459,0.0007026485,0.001567533,-0.3009664,-0.1571794,-9.839486000000001,0,0,32.16629,1,1,7747,3873
4686,34441463,2,0.0006739651,0.0003491609,0.0008402118000000001,-0.2987577,-0.1593722,-9.841013999999999,0,0,32.16655,1,1,7747,3873
4717,34443882,2,0.0005693174,0.0002052834,0.0007307027,-0.2963189,-0.1628383,-9.841964000000001,0,0,32.16682,1,1,7747,3873
4720,34446332,2,0.0008929417,6.028998e-05,0.000623518,-0.2955616,-0.1649303,-9.840695,0,0,32.16708,1,1,7747,3873
4723,34449516,2,0.001395207,-0.0003237863,0.0008021502999999999,-0.296138,-0.1685539,-9.835883000000001,0,0,32.16735,1,1,7747,3873
4726,34451874,2,0.001813706,-0.0003463167,0.001308237,-0.2984191,-0.1711665,-9.833667,0,0,32.16752,1,1,7747,3873
4757,34454067,2,0.001341096,0.0002751557,0.002280742,-0.3026667,-0.1738568,-9.831814,0,0,32.16787,1,1,7747,3873
4761,34456858,2,0.001072611,0.0006736452,0.00200327,-0.3044495,-0.1737536,-9.834804,0,0,32.16803,1,1,7747,3873
4764,34459411,2,0.001756796,8.281638e-05,0.002300753,-0.3051834,-0.1727021,-9.838196999999999,0,0,32.16819,1,1,7747,3873
4767,34462122,2,0.001715458,-0.0009989209,0.001353222,-0.3070033,-0.1722861,-9.840109,0,0,32.16843,1,1,7747,3873
4798,34464913,2,0.001498416,-0.001226461,0.001601874,-0.3109207,-0.1730985,-9.841684000000001,0,0,32.16869,1,1,7747,3873
4801,34466658,2,0.001648531,-0.0008498923,0.001914672,-0.3126736,-0.1728991,-9.840279000000001,0,0,32.16887,1,1,7747,3873
4804,34469141,2,0.001835348,-4.52357e-05,0.002571607,-0.3133759,-0.1728688,-9.837189,0,0,32.16905,1,1,7747,3873
4807,34471863,2,0.001716629,0.0004625143,0.00218043,-0.3141167,-0.1707508,-9.832792,0,0,32.16932,1,1,7747,3873
4838,34475397,2,0.000245676,0.001092467,0.002064171,-0.3146592,-0.1662166,-9.828868,0,0,32.16968,1,1,7747,3873
4841,34478268,2,-0.0005121292,0.001914773,0.002252321,-0.3155611,-0.164309,-9.827211,0,0,32.16986,1,1,7747,3873
4844,34479605,2,-0.0009264164,0.001550867,0.003470449,-0.3165694,-0.1640521,-9.824823,0,0,32.17012,1,1,7747,3873
4848,34482109,2,-0.0008975358,0.001259025,0.003265716,-0.3166999,-0.1649127,-9.824590000000001,0,0,32.17029,1,1,7747,3873
4879,34485572,2,-0.001028674,0.0002985967,0.001879137,-0.3153805,-0.1660177,-9.825494000000001,0,0,32.17054,1,1,7747,3873
4882,34487146,2,-0.0005833528,-0.0003911821,0.001580893,-0.3144743,-0.1667054,-9.82653,0,0,32.17071,1,1,7747,3873
4885,34490148,2,-0.0002333515,-8.100375e-05,0.0008336768,-0.3123732,-0.1680301,-9.829624000000001,0,0,32.17097,1,1,7747,3873
4889,34492143,2,0.0005778489,0.0006726574,0.0002867343,-0.3109213,-0.1676077,-9.830581,0,0,32.17122,1,1,7747,3873
4920,34494992,2,0.0006528979,0.0009208898,8.232555000000001e-05,-0.3102567,-0.1671126,-9.829465000000001,0,0,32.17146,1,1,7747,3873
4923,34497871,2,-0.0003152435,0.0006574849,0.0004868377,-0.3109872,-0.1658561,-9.829456,0,0,32.17177,1,1,7747,3873
4926,34499888,2,-0.0008690009,0.0004622279,7.793525e-05,-0.3123832,-0.1638521,-9.832558000000001,0,0,32.17192,1,1,7747,3873
4930,34502517,2,-0.001089792,0.0008048144,0.0005048315,-0.3145736,-0.1598876,-9.836653,0,0,32.17209,1,1,7747,3873
4961,34505639,2,-0.0007210455,0.001269727,0.0002801034,-0.3161711,-0.1587384,-9.838139999999999,0,0,32.17234,1,1,7747,3873
4964,34507138,2,0.0003508109,0.001011419,-0.0006434521,-0.3185186,-0.1594062,-9.837408,0,0,32.1725,1,1,7747,3873
4967,34510385,2,0.0007598253,0.0003289005,-0.00166997,-0.3192321,-0.1612423,-9.837078999999999,0,0,32.17273,1,1,7747,3873
4970,34512496,2,0.001286601,7.246688e-05,-0.002303181,-0.3179502,-0.1637574,-9.839753,0,0,32.17296,1,1,7747,3873
5001,34514809,2,0.001356869,0.0003784309,-0.001889562,-0.3163543,-0.166481,-9.843643,0,0,32.17316,1,1,7747,3873
5005,34517455,2,0.0005555282,0.001174877,-0.00172066,-0.3154519,-0.1712641,-9.84829,0,0,32.1734,1,1,7747,3873
5008,34520637,2,-0.0005625939,0.002188887,-0.001948759,-0.3159203,-0.1742071,-9.850884000000001,0,0,32.17351,1,1,7747,3873
5012,34522665,2,-0.0006475539,0.002652528,-0.001175348,-0.3165543,-0.1764933,-9.853766,0,0,32.17366,1,1,7747,3873
5045,34525543,2,-0.0009946326000000001,0.002828502,-7.819008e-05,-0.3169461,-0.1782954,-9.858947000000001,0,0,32.1738,1,1,7747,3873
5048,34527668,2,-0.002642182,0.002486864,0.001017559,-0.3170028,-0.179159,-9.859344,0,0,32.17394,1,1,7747,3873
5052,34530665,2,-0.002777664,0.002255445,0.001191792,-0.3172588,-0.1791956,-9.855619000000001,0,0,32.17404,1,1,7747,3873
5055,34533127,2,-0.002798503,0.001349783,-0.0004274209,-0.318583,-0.1787992,-9.848912,0,0,32.17417,1,1,7747,3873
5086,34535335,2,-0.002367835,0.0009116197,-0.0003693342,-0.3202118,-0.1783325,-9.843544,0,0,32.17428,1,1,7747,3873
5089,34538238,2,-0.002235909,0.000774306,-0.001520543,-0.3215802,-0.1768018,-9.839024999999999,0,0,32.17436,1,1,7747,3873
5096,34540892,2,-0.003040013,0.001037494,-0.002156222,-0.3242979,-0.17414,-9.832447,0,0,32.17451,1,1,7747,3873
5100,34543200,2,-0.00343343,0.00107049,-0.002043831,-0.3264805,-0.1724363,-9.830033999999999,0,0,32.17458,1,1,7747,3873
5131,34546216,2,-0.002990374,0.001550593,-0.001063661,-0.3311898,-0.1689038,-9.828815000000001,0,0,32.1747,1,1,7747,3873
5134,34548391,2,-0.003031978,0.00175007,-0.0004090982,-0.3333276,-0.1681527,-9.828282,0,0,32.17479,1,1,7747,3873
5137,34550863,2,-0.002332798,0.002001179,0.001185633,-0.3348619,-0.1684235,-9.828013,0,0,32.17489,1,1,7747,3873
5140,34553132,2,-0.001479632,0.001416126,0.001351658,-0.3359945,-0.1698198,-9.829624000000001,0,0,32.17495,1,1,7747,3873
5173,34555564,2,-0.0004476048,0.0007414575,-0.0004071103,-0.3365352,-0.1719607,-9.832521,0,0,32.17503,1,1,7747,3873
5176,34558081,2,-0.0004681517,9.12321e-06,-0.001201006,-0.3364781,-0.1724574,-9.832933000000001,0,0,32.17508,1,1,7747,3873
5179,34560841,2,-0.001039659,-0.0005428787999999999,-0.001249161,-0.3348882,-0.1718975,-9.83384,0,0,32.17519,1,1,7747,3873
5183,34563319,2,-0.001396623,-0.0001840909,-0.001188022,-0.3327125,-0.1688853,-9.834246,0,0,32.17524,1,1,7747,3873
5214,34566181,2,-0.001432503,0.0001446229,-0.0008879642000000001,-0.3298265,-0.1640669,-9.833034,0,0,32.17537,1,1,7747,3873
5217,34568511,2,-0.0008472367,-0.0004335905,-0.000332416,-0.3291969,-0.1619184,-9.832931,0,0,32.17542,1,1,7747,3873
5220,34570636,2,-0.0001843938,-0.0007438096,-0.0003628663,-0.3297617,-0.1610526,-9.832632,0,0,32.17554,1,1,7747,3873
5225,34572847,2,0.0001474107,-0.0008857024,-0.001144285,-0.3304197,-0.1603963,-9.831701000000001,0,0,32.17561,1,1,7747,3873
5256,34575624,2,0.0007000654,-0.0001654985,-0.002465407,-0.3317743,-0.1617584,-9.831643,0,0,32.1757,1,1,7747,3873
5259,34578060,2,0.0008258951,-0.0002074522,-0.002020279,-0.3330919,-0.1639963,-9.831075999999999,0,0,32.17578,1,1,7747,3873
5262,34581051,2,-0.0001293874,0.0003998764,-0.001068296,-0.334103,-0.1683793,-9.831568000000001,0,0,32.17596,1,1,7747,3873
5265,34583289,2,0.0002209692,0.001249565,-0.0001838453,-0.3337099,-0.172094,-9.833375999999999,0,0,32.17606,1,1,7747,3873
5296,34586097,2,0.0007730801,0.001657647,-7.702204e-05,-0.331567,-0.1771693,-9.835915,0,0,32.17625,1,1,7747,3873
5299,34588091,2,0.0005376666,0.001729236,0.0004096891,-0.3307219,-0.1788066,-9.837906,0,0,32.17636,1,1,7747,3873
5302,34593094,2,0.0009504513,0.001695984,0.0006025065,-0.3269347,-0.1746429,-9.838346,0,0,32.1767,1,1,7747,3873
5334,34597084,2,0.0009575774,0.001182164,0.0005687865,-0.3264476,-0.1707226,-9.836342,0,0,32.1768,1,1,7747,3873
5337,34598579,2,0.0004879505,0.0006428509999999999,0.0003863333,-0.3260747,-0.1664627,-9.833288,0,0,32.17693,1,1,7747,3873
5340,34600790,2,0.0008978722,0.0002559317,-0.0005081797,-0.3267514,-0.165659,-9.833262,0,0,32.17702,1,1,7747,3873
5343,34603795,2,0.001402292,0.0005306217999999999,-0.0009125873,-0.328817,-0.1663441,-9.832514,0,0,32.17714,1,1,7747,3873
5374,34606378,2,0.001287446,0.0006241498,-0.0008584094,-0.3300071,-0.1665376,-9.830928,0,0,32.17722,1,1,7747,3873
5377,34609792,2,9.095237e-05,0.0002129376,-0.000745993,-0.3280553,-0.1634842,-9.829561,0,0,32.17735,1,1,7747,3873
5380,34611177,2,-0.0007028917,0.0001163025,0.0005433827,-0.3241351,-0.1619369,-9.829582,0,0,32.17744,1,1,7747,3873
5383,34613568,2,-0.001362783,0.001443323,0.001704316,-0.3200693,-0.1610428,-9.83074,0,0,32.17758,1,1,7747,3873
5414,34616798,2,-0.001769193,0.00196404,0.0016486,-0.3198432,-0.1614472,-9.833087000000001,0,0,32.17767,1,1,7747,3873
5418,34618663,2,-0.001091721,0.002399302,0.001154544,-0.3197339,-0.1644747,-9.837749000000001,0,0,32.17781,1,1,7747,3873
5421,34621673,2,-0.0004048923,0.002477156,0.001171335,-0.3191212,-0.1663062,-9.841447000000001,0,0,32.17791,1,1,7747,3873
5424,34623816,2,0.0002840563,0.002416472,0.002091358,-0.3187963,-0.1668122,-9.842822999999999,0,0,32.17804,1,1,7747,3873
5455,34626097,2,0.001114842,0.002308061,0.002480973,-0.3191341,-0.1688645,-9.839487,0,0,32.1782,1,1,7747,3873
5459,34629266,2,0.001698739,0.002152694,0.001840374,-0.3191107,-0.1705362,-9.838022,0,0,32.17829,1,1,7747,3873
5462,34631615,2,0.002299655,0.00180664,0.001027469,-0.3182248,-0.1725142,-9.837505,0,0,32.17837,1,1,7747,3873
5465,34634102,2,0.002430032,0.001101108,0.001457058,-0.3172934,-0.1753983,-9.837121,0,0,32.17852,1,1,7747,3873
5496,34636649,2,0.001689996,0.0002795805,0.001593762,-0.3166304,-0.1769919,-9.835658,0,0,32.17873,1,1,7747,3873
5500,34639566,2,0.001381879,-9.261441000000001e-05,0.001946773,-0.3160389,-0.1785108,-9.835201,0,0,32.17881,1,1,7747,3873
5507,34642589,2,0.001425651,0.0005819007,0.00191646,-0.3165667,-0.180714,-9.835903999999999,0,0,32.17895,1,1,7747,3873
5510,34644796,2,0.002092443,0.0004928282,0.001415916,-0.3161471,-0.1806892,-9.835564,0,0,32.17907,1,1,7747,3873
5541,34646929,2,0.002437799,0.0007582071,0.0008662743,-0.3142587,-0.1786148,-9.833109,0,0,32.17919,1,1,7747,3873
5545,34649702,2,0.00124856,0.0009683077,0.001142313,-0.3131899,-0.1772579,-9.83043,0,0,32.17929,1,1,7747,3873
5548,34652550,2,0.0004833294,0.001154738,0.001004798,-0.3119328,-0.1752331,-9.828365,0,0,32.17935,1,1,7747,3873
5551,34655291,2,-0.0001215742,0.0009179,0.0007995234,-0.3107579,-0.1722356,-9.824780000000001,0,0,32.17945,1,1,7747,3873
5582,34657888,2,-0.0007630941,0.0009486434,6.014588e-06,-0.3100443,-0.1681137,-9.824044000000001,0,0,32.17957,1,1,7747,3873
5586,34660657,2,-0.0005524406,0.000731561,-0.0001522135,-0.309182,-0.165845,-9.824824,0,0,32.17967,1,1,7747,3873
5589,34663339,2,-0.0006413463,0.0009520346,-0.0007161874,-0.3097979,-0.1653109,-9.823415000000001,0,0,32.17974,1,1,7747,3873
5592,34665328,2,-0.0008837223,0.0008426468,-0.000399935,-0.3106125,-0.1639615,-9.822255999999999,0,0,32.17986,1,1,7747,3873
5623,34668496,2,-0.001037719,0.0009096785,-0.0002257301,-0.3098617,-0.1639219,-9.823444,0,0,32.17992,1,1,7747,3873
5627,34670580,2,-0.001909058,0.0003546851,4.785139e-05,-0.3109101,-0.1659573,-9.826517000000001,0,0,32.18004,1,1,7747,3873
5630,34673367,2,-0.002607384,-1.614347e-05,0.0002086638,-0.3137032,-0.169615,-9.828531,0,0,32.1801,1,1,7747,3873
5633,34675659,2,-0.003293688,0.0005604859,-1.300393e-05,-0.3183779,-0.1764196,-9.829622000000001,0,0,32.18018,1,1,7747,3873
5664,34677927,2,-0.003068699,0.001499448,-0.0002075747,-0.3194973,-0.1783603,-9.830215000000001,0,0,32.18023,1,1,7747,3873
5667,34681810,2,-0.001600833,0.002814971,-0.0005891001,-0.3219297,-0.182826,-9.833107,0,0,32.18034,1,1,7747,3873
5670,34683054,2,-0.0006923668,0.003035317,-0.001545702,-0.3216996,-0.1838153,-9.833581000000001,0,0,32.1804,1,1,7747,3873
5673,34688103,2,-0.0003165445,0.002005434,-0.002499067,-0.3163208,-0.1815414,-9.840252,0,0,32.1806,1,1,7747,3873
5705,34691602,2,7.631959e-05,0.001546226,-0.002754452,-0.3124901,-0.1779775,-9.842961000000001,0,0,32.18069,1,1,7747,3873
5708,34693390,2,-0.0005817503,0.001692491,-0.002838728,-0.3061406,-0.1728717,-9.844274,0,0,32.18077,1,1,7747,3873
5711,34695916,2,-0.001565535,0.001989609,-0.003156027,-0.303144,-0.171201,-9.841341,0,0,32.18092,1,1,7747,3873
5714,34698467,2,-0.001378083,0.001996681,-0.002163977,-0.3009517,-0.1708225,-9.838148,0,0,32.18102,1,1,7747,3873
5746,34701355,2,-0.0003378442,0.002427987,-0.0003748776,-0.3005165,-0.1706442,-9.837657,0,0,32.18116,1,1,7747,3873
5749,34703798,2,-0.000371168,0.002162965,-2.685725e-05,-0.3004051,-0.169169,-9.836116000000001,0,0,32.18123,1,1,7747,3873
5752,34705920,2,-0.001299547,0.001212937,0.0004362906,-0.2989827,-0.1650629,-9.832063,0,0,32.18135,1,1,7747,3873
5755,34708521,2,-0.002010668,0.0006522754,0.0003842274,-0.2982727,-0.1621298,-9.829674000000001,0,0,32.18151,1,1,7747,3873
5786,34711150,2,-0.002750815,-0.0006090825,0.0001775031,-0.2990136,-0.1588233,-9.828666999999999,0,0,32.18163,1,1,7747,3873
5789,34713772,2,-0.002261385,-0.0009836719000000001,0.0005060117,-0.3008939,-0.1590703,-9.828752,0,0,32.18179,1,1,7747,3873
5793,34716174,2,-0.001163586,-0.0004511255,-0.0005434404,-0.3032121,-0.1602165,-9.829271,0,0,32.18191,1,1,7747,3873
5796,34718461,2,-0.0009296557,-0.000433269,-0.0009539262,-0.3061964,-0.1613673,-9.83184,0,0,32.18203,1,1,7747,3873
5827,34721253,2,-0.001120528,-0.0004865127,-0.001264461,-0.3106865,-0.1633162,-9.837676,0,0,32.18219,1,1,7747,3873
5831,34723506,2,-0.001420931,-0.0005929181,-0.001011291,-0.3130369,-0.1644977,-9.839428,0,0,32.18234,1,1,7747,3873
5834,34725910,2,-0.001984808,-0.0008061127,0.0002375628,-0.3148578,-0.165804,-9.840588,0,0,32.18252,1,1,7747,3873
5839,34729159,2,-0.002081332,-7.537675e-05,0.001624161,-0.3161475,-0.1669009,-9.839032,0,0,32.1827,1,1,7747,3873
5870,34732224,2,-0.001125154,0.000236273,0.0002205959,-0.3180685,-0.1685115,-9.837573000000001,0,0,32.18299,1,1,7747,3873
5873,34734150,2,-0.0001841395,-0.0002129733,6.693516999999999e-05,-0.3183745,-0.1685176,-9.83836,0,0,32.18317,1,1,7747,3873
5877,34736870,2,0.001088748,-0.000860515,-0.0007450756,-0.3185131,-0.1655142,-9.837615,0,0,32.18336,1,1,7747,3873
5880,34740085,2,0.001159851,-0.001479416,-0.0005661222,-0.3186843,-0.161738,-9.834542000000001,0,0,32.18354,1,1,7747,3873
5911,34742913,2,2.427435e-06,-0.001798316,0.0003648783,-0.3179991,-0.1548134,-9.827135999999999,0,0,32.18385,1,1,7747,3873
5919,34745622,2,-0.0004078652,-0.001932734,-0.0001059606,-0.3161686,-0.1527949,-9.825322999999999,0,0,32.18397,1,1,7747,3873
5922,34747562,2,-2.334127e-05,-0.001456298,-0.0005952154,-0.3142136,-0.1518355,-9.827218999999999,0,0,32.1842,1,1,7747,3873
5925,34750678,2,0.0001936363,-0.001307388,-0.0003723985,-0.3139445,-0.1520919,-9.828899,0,0,32.1843,1,1,7747,3873
5956,34753152,2,0.0008704758,-0.0009095357,4.929192e-05,-0.3146499,-0.1543628,-9.828851999999999,0,0,32.18452,1,1,7747,3873
5960,34756110,2,0.00121565,-0.0006397040000000001,7.152326e-05,-0.3137641,-0.1579251,-9.827881,0,0,32.18475,1,1,7747,3873
5963,34758110,2,0.0009782028999999999,-0.001135866,-0.0003947176,-0.3123824,-0.1604975,-9.829326999999999,0,0,32.18487,1,1,7747,3873
5966,34761165,2,0.0002887807,-0.001273058,0.0004520192,-0.3106189,-0.1658403,-9.834020000000001,0,0,32.18517,1,1,7747,3873
5997,34764058,2,-0.0002063315,-0.001184263,0.001441442,-0.3109593,-0.170568,-9.839732,0,0,32.18543,1,1,7747,3873
6000,34766324,2,0.0001422408,-0.0008911669,0.00234105,-0.312738,-0.172876,-9.843213,0,0,32.18562,1,1,7747,3873
6003,34768849,2,0.001667748,0.0001006575,0.002013914,-0.3162616,-0.1749151,-9.848888000000001,0,0,32.18587,1,1,7747,3873
6006,34771333,2,0.00234268,0.000269947,0.001531664,-0.3182303,-0.175521,-9.851623999999999,0,0,32.18607,1,1,7747,3873
6037,34775154,2,0.001760652,0.0008793721,0.0009150907,-0.3192754,-0.1764994,-9.852138999999999,0,0,32.18628,1,1,7747,3873
6040,34776551,2,0.0007911527,0.001580932,9.108116e-05,-0.3185076,-0.1783552,-9.845285000000001,0,0,32.18656,1,1,7747,3873
6045,34779605,2,0.000793795,0.001424492,-0.0003664411,-0.3179652,-0.1784347,-9.844068,0,0,32.18676,1,1,7747,3873
6048,34781702,2,0.001459801,0.0009834194000000001,3.973934e-05,-0.3166955,-0.1786689,-9.841789,0,0,32.18694,1,1,7747,3873
6079,34784044,2,0.002090383,0.0004321748,0.000707959,-0.3167388,-0.1785524,-9.840636,0,0,32.18711,1,1,7747,3873
6082,34787775,2,0.002170045,0.0002699899,0.001409008,-0.3181094,-0.1792789,-9.839371999999999,0,0,32.18734,1,1,7747,3873
6086,34788925,2,0.001425611,0.0007413313,0.002129321,-0.3200288,-0.1823262,-9.835074000000001,0,0,32.18749,1,1,7747,3873
6089,34792867,2,0.0006519683000000001,0.001227474,0.001815667,-0.3219298,-0.1832594,-9.833214,0,0,32.18762,1,1,7747,3873
6092,34794151,2,6.304929000000001e-05,0.001301833,0.001272104,-0.325543,-0.1815038,-9.829537,0,0,32.18782,1,1,7747,3873
6123,34796700,2,2.032839e-05,0.001039144,0.001005235,-0.3278511,-0.1806912,-9.828692,0,0,32.1879,1,1,7747,3873
6126,34800014,2,-0.001039181,0.0004260128,-9.454393e-05,-0.3310854,-0.1796596,-9.828331,0,0,32.18805,1,1,7747,3873
6129,34801892,2,-0.002269428,0.0001316832,-0.0003932634,-0.3328287,-0.1791178,-9.827356999999999,0,0,32.18811,1,1,7747,3873
6132,34805293,2,-0.002338042,0.0008406085999999999,-0.0002851826,-0.3336061,-0.1795054,-9.826934,0,0,32.18822,1,1,7747,3873
6163,34807605,2,-0.001127263,0.001857034,-0.002104458,-0.332092,-0.1788119,-9.827572,0,0,32.18836,1,1,7747,3873
6167,34810525,2,-0.0004030773,0.001860008,-0.002206323,-0.3312957,-0.1782273,-9.827389999999999,0,0,32.18843,1,1,7747,3873
6170,34813117,2,-0.0004760074,0.001833336,-0.001664498,-0.3301202,-0.1764872,-9.827484999999999,0,0,32.18854,1,1,7747,3873
6173,34815768,2,-0.0006591626,0.002031951,-0.001519805,-0.3303883,-0.1751,-9.827629999999999,0,0,32.18864,1,1,7747,3873
6204,34818183,2,-0.001060201,0.002806557,-0.0001479656,-0.3301423,-0.1731569,-9.826183,0,0,32.18873,1,1,7747,3873
6207,34820813,2,-0.001257845,0.001830874,-0.0003318417,-0.3289431,-0.171713,-9.825258,0,0,32.18888,1,1,7747,3873
6210,34823402,2,-0.00208453,0.001340286,-0.0002134419,-0.3286479,-0.1706165,-9.825257000000001,0,0,32.18899,1,1,7747,3873
6213,34826310,2,-0.00234431,0.00114906,-9.341964e-05,-0.3294074,-0.1691696,-9.82737,0,0,32.18908,1,1,7747,3873
6244,34829504,2,-0.0007780443,0.0007656838999999999,-0.0001305049,-0.3307663,-0.1688378,-9.828252000000001,0,0,32.18922,1,1,7747,3873
6248,34831534,2,-0.000232212,0.0008623234,-0.001139645,-0.3311594,-0.1683031,-9.828161,0,0,32.18935,1,1,7747,3873
6251,34833775,2,-0.0004979471,0.001090928,-0.0007236529,-0.330948,-0.1691888,-9.827937,0,0,32.18942,1,1,7747,3873
6254,34836256,2,-0.0005685869,0.001118937,-0.0008526017000000001,-0.3304018,-0.1703398,-9.828339,0,0,32.18952,1,1,7747,3873
6285,34839293,2,-0.001432767,0.000651792,-0.001851749,-0.331736,-0.1724376,-9.830158000000001,0,0,32.18964,1,1,7747,3873
6288,34841802,2,-0.002141791,0.0001653312,-0.001760546,-0.3321539,-0.1743602,-9.83005,0,0,32.18974,1,1,7747,3873
6291,34843651,2,-0.001862605,0.0004300934,-0.001119298,-0.3316897,-0.1748525,-9.827862,0,0,32.18982,1,1,7747,3873
6294,34846119,2,-0.0009700657,0.0002641597,-0.001271145,-0.3320751,-0.1734185,-9.825210999999999,0,0,32.18987,1,1,7747,3873
6329,34848933,2,-0.0001232304,0.0002431231,-0.0006898321,-0.3331465,-0.1696756,-9.822288,0,0,32.18994,1,1,7747,3873
6335,34851997,2,0.0003010524,0.0001865137,-0.0007982582,-0.3320774,-0.1671338,-9.823466,0,0,32.19,1,1,7747,3873
6339,34854193,2,-0.0006410464,-0.0002970768,-0.0001351433,-0.3314523,-0.1664588,-9.826427000000001,0,0,32.19004,1,1,7747,3873
6342,34856811,2,-0.001750331,-0.0008407509,0.001209495,-0.3307619,-0.16323,-9.83319,0,0,32.19011,1,1,7747,3873
6373,34859072,2,-0.001833819,0.0001668136,0.001683433,-0.3288535,-0.1587622,-9.83595,0,0,32.19021,1,1,7747,3873
6377,34862202,2,-0.002236333,0.0002893728,-9.016685e-05,-0.3273634,-0.1562674,-9.836373,0,0,32.19027,1,1,7747,3873
6380,34864305,2,-0.00227503,4.994086e-05,-0.001558046,-0.3259882,-0.1542428,-9.836021000000001,0,0,32.19035,1,1,7747,3873
6383,34866855,2,-0.00163783,-0.0001240862,-0.002441232,-0.3241039,-0.1526691,-9.836537999999999,0,0,32.19047,1,1,7747,3873
6414,34869789,2,-0.0005979008,-0.0003364771,-0.001686836,-0.3216672,-0.1518393,-9.837730000000001,0,0,32.19054,1,1,7747,3873
6417,34871625,2,0.0003160804,-0.0001323484,-0.001143273,-0.3161051,-0.151715,-9.839285,0,0,32.19059,1,1,7747,3873
6420,34874822,2,0.0002492607,0.0001376992,-0.001434769,-0.3144493,-0.1522348,-9.840199,0,0,32.19062,1,1,7747,3873
6423,34876908,2,-0.000484954,0.0001744226,-0.002147442,-0.3118598,-0.1540943,-9.84116,0,0,32.1907,1,1,7747,3873
6454,34879409,2,-0.0007535955,-0.0001269871,-0.001728837,-0.3097824,-0.1564982,-9.84008,0,0,32.1908,1,1,7747,3873
6458,34881897,2,-0.0007484704999999999,0.0004218612,-0.001117839,-0.3080982,-0.1580306,-9.842076,0,0,32.19085,1,1,7747,3873
6461,34884818,2,-0.0006318017,0.0007570762,-0.0007781194,-0.3068527,-0.1582514,-9.845424,0,0,32.19093,1,1,7747,3873
6464,34889277,2,0.0009674214,-0.0007869053,0.001224165,-0.3080893,-0.1607639,-9.851348,0,0,32.19111,1,1,7747,3873
6495,34891852,2,0.001505685,-0.0004251614,0.001285666,-0.3070584,-0.1622866,-9.852264,0,0,32.19115,1,1,7747,3873
6498,34896916,2,0.001759202,0.001505905,0.001125708,-0.3040749,-0.1660312,-9.847609,0,0,32.19128,1,1,7747,3873
6501,34900005,2,0.001571158,0.001910261,0.0009179998,-0.3035444,-0.1672647,-9.846109,0,0,32.19133,1,1,7747,3873
6532,34902161,2,0.0005100267,0.0003581216,0.0005319206,-0.303445,-0.1681192,-9.845185000000001,0,0,32.19141,1,1,7747,3873
6537,34904840,2,0.0001764829,-0.0001141135,0.0007317320999999999,-0.3049939,-0.1686946,-9.845687,0,0,32.19145,1,1,7747,3873
6540,34907791,2,0.0004627821,5.1012e-06,0.001256711,-0.3076117,-0.1707347,-9.847602999999999,0,0,32.19151,1,1,7747,3873
6543,34910491,2,0.001262942,0.0007202109,0.002011732,-0.3084297,-0.1721548,-9.847661,0,0,32.19157,1,1,7747,3873
6574,34912599,2,0.002056153,0.001080435,0.001360668,-0.3096003,-0.1730219,-9.848271,0,0,32.19169,1,1,7747,3873
6578,34915192,2,0.00166189,0.001474238,0.001033632,-0.3102171,-0.1712609,-9.847749,0,0,32.1918,1,1,7747,3873
6581,34918221,2,0.00104729,0.001888049,0.001420024,-0.3114938,-0.166977,-9.843042000000001,0,0,32.19192,1,1,7747,3873
6584,34920802,2,0.001372342,0.001674484,0.001225081,-0.3118138,-0.164004,-9.837221,0,0,32.1921,1,1,7747,3873
6615,34923553,2,0.0006318506,0.001863555,0.0008215397,-0.3103682,-0.1621632,-9.83558,0,0,32.19218,1,1,7747,3873
6618,34926298,2,-8.254475e-05,0.001124648,0.001345951,-0.3074487,-0.1601133,-9.837296,0,0,32.19231,1,1,7747,3873
6621,34928343,2,-0.0001663455,0.0008666263,0.001672508,-0.305,-0.1603628,-9.839311,0,0,32.19238,1,1,7747,3873
6624,34930703,2,0.0004593044,0.001165996,0.001927164,-0.3024472,-0.1607337,-9.84202,0,0,32.19254,1,1,7747,3873
6655,34933372,2,0.002391431,0.001888206,0.001865795,-0.3014101,-0.1611498,-9.842758,0,0,32.1926,1,1,7747,3873
6659,34936236,2,0.004551703,0.002309809,0.001724869,-0.3009382,-0.1621749,-9.843031,0,0,32.19273,1,1,7747,3873
6664,34939169,2,0.004751644,0.00203275,0.002094644,-0.2998686,-0.1629207,-9.842434000000001,0,0,32.19279,1,1,7747,3873
6667,34940647,2,0.003784489,0.0009915932999999999,0.003535408,-0.2991502,-0.164998,-9.839532999999999,0,0,32.19291,1,1,7747,3873
6698,34943485,2,0.003002462,0.001095433,0.003278505,-0.2992913,-0.1661642,-9.835708,0,0,32.19297,1,1,7747,3873
6701,34945825,2,0.001022987,0.001289744,0.001917805,-0.2997191,-0.166763,-9.830773000000001,0,0,32.19308,1,1,7747,3873
6705,34948656,2,-0.0001093826,0.001093219,0.00152453,-0.2998219,-0.1677019,-9.829423999999999,0,0,32.19314,1,1,7747,3873
6713,34951293,2,-0.0007484625,0.0009249845,0.001906198,-0.301237,-0.1694113,-9.829594999999999,0,0,32.19324,1,1,7747,3873
6744,34954117,2,0.0001212175,0.0008748792,0.002140159,-0.302966,-0.1698186,-9.829223000000001,0,0,32.19338,1,1,7747,3873
6748,34956277,2,0.0009115613,0.0008020593,0.001721382,-0.3034245,-0.169745,-9.828310999999999,0,0,32.19345,1,1,7747,3873
6751,34959369,2,0.001644877,0.00017236,0.001586185,-0.3016626,-0.1703079,-9.828132,0,0,32.19359,1,1,7747,3873
6754,34961492,2,0.001684949,0.0003696501,0.002094305,-0.2999123,-0.1705815,-9.827935999999999,0,0,32.19368,1,1,7747,3873
6785,34964389,2,0.001222296,0.0002978409,0.0006736894999999999,-0.2979723,-0.1705932,-9.827429,0,0,32.19376,1,1,7747,3873
6788,34966261,2,-0.0003001789,-0.00132657,-0.0001106568,-0.2998393,-0.1692033,-9.828711,0,0,32.19393,1,1,7747,3873
6791,34968611,2,-0.001433766,-0.001440375,0.0001545448,-0.3008365,-0.1686272,-9.829256000000001,0,0,32.194,1,1,7747,3873
6794,34971789,2,-0.001995229,-0.0007259133,0.0001213025,-0.3036823,-0.1685612,-9.828939999999999,0,0,32.19411,1,1,7747,3873
6825,34974131,2,-0.001732324,-0.0005709765,-0.0001500316,-0.3080623,-0.1706549,-9.827503,0,0,32.19426,1,1,7747,3873
6829,34977089,2,-0.002064179,-0.0004091061,-0.0001246396,-0.312829,-0.1714575,-9.825479,0,0,32.19437,1,1,7747,3873
6832,34979138,2,-0.002869798,-0.0004168666,-0.0006853167,-0.3163949,-0.1707257,-9.824422,0,0,32.19444,1,1,7747,3873
6835,34982804,2,-0.003871189,-0.0002731058,-0.002025104,-0.3221935,-0.1692336,-9.827527,0,0,32.19455,1,1,7747,3873
6838,34984285,2,-0.003788747,-0.000610605,-0.00224413,-0.3251807,-0.1688951,-9.830704000000001,0,0,32.19463,1,1,7747,3873
6869,34987497,2,-0.003285789,-0.001885165,-0.00201339,-0.3276058,-0.165951,-9.832608,0,0,32.19476,1,1,7747,3873
6873,34989349,2,-0.002616141,-0.001863903,-0.001600833,-0.3276505,-0.1626284,-9.831379,0,0,32.19488,1,1,7747,3873
6876,34991629,2,-0.00229176,-0.001316571,-0.0001809003,-0.3261201,-0.1572917,-9.826632999999999,0,0,32.19497,1,1,7747,3873
6879,34994843,2,-0.001644379,5.419826e-06,-0.0004627778,-0.3243667,-0.1543117,-9.82147,0,0,32.19503,1,1,7747,3873
6910,34997184,2,-0.001542973,0.0008951239,-0.0008968448,-0.3202118,-0.1504173,-9.81592,0,0,32.19512,1,1,7747,3873
6913,35002196,2,-0.002527069,0.0003442876,-0.0009056761,-0.3152905,-0.1481396,-9.811188,0,0,32.19534,1,1,7747,3873
6917,35005292,2,-0.002263287,0.0004390294,-0.0006350072,-0.3151855,-0.1500701,-9.811719999999999,0,0,32.1954,1,1,7747,3873
6948,35007467,2,-0.002275948,-0.0001223702,-0.001330389,-0.3159342,-0.1546364,-9.815022000000001,0,0,32.19552,1,1,7747,3873
6951,35010577,2,-0.001877733,-0.0001816934,-0.002302157,-0.3169052,-0.1567558,-9.816381,0,0,32.19559,1,1,7747,3873
6954,35013064,2,-0.001106628,0.0005013038,-0.00278743,-0.317816,-0.1606075,-9.81776,0,0,32.19575,1,1,7747,3873
6957,35015222,2,-0.0008412299,0.0003976184,-0.002253667,-0.3191431,-0.1641221,-9.818657999999999,0,0,32.19583,1,1,7747,3873
6988,35018123,2,-0.0006563854,0.0004583998,-0.001610394,-0.3221596,-0.1700986,-9.820053,0,0,32.19597,1,1,7747,3873
6991,35020336,2,-1.631689e-05,0.001025257,-0.002082185,-0.3238112,-0.1731635,-9.822812000000001,0,0,32.19606,1,1,7747,3873
6994,35022915,2,0.0002396102,0.001030608,-0.003167422,-0.3242995,-0.1760328,-9.828730999999999,0,0,32.19618,1,1,7747,3873
6997,35025411,2,-0.0001585655,0.0007360688,-0.00353265,-0.3239717,-0.1768201,-9.833301000000001,0,0,32.19626,1,1,7747,3873
7028,35027767,2,-0.001396185,0.001079186,-0.00294736,-0.3240112,-0.1754314,-9.837153000000001,0,0,32.19642,1,1,7747,3873
7033,35030628,2,-0.001957846,0.0006744481000000001,-0.002841363,-0.324493,-0.1745136,-9.838063999999999,0,0,32.1965,1,1,7747,3873
7036,35032874,2,-0.001590673,-5.053995e-05,-0.001369837,-0.3273765,-0.1721752,-9.841441,0,0,32.19661,1,1,7747,3873
7039,35035834,2,-0.001703677,-0.0002199061,-0.001131029,-0.32852,-0.1704446,-9.844580000000001,0,0,32.19668,1,1,7747,3873
7070,35038296,2,-0.0007246612,-0.000100827,-0.001271134,-0.3300391,-0.1676966,-9.850962000000001,0,0,32.19683,1,1,7747,3873
7074,35041312,2,0.000637862,-8.768715e-05,-0.001708853,-0.3310198,-0.1650163,-9.852115,0,0,32.1969,1,1,7747,3873
7077,35043282,2,0.001046305,0.0003731886,-0.001028448,-0.3305689,-0.1598316,-9.853856,0,0,32.19701,1,1,7747,3873
7080,35046327,2,0.0008372153,0.001279512,-0.0008520017,-0.3291376,-0.1566136,-9.854009,0,0,32.19708,1,1,7747,3873
7113,35048674,2,0.0006853282,0.001716293,0.0007402325,-0.3267438,-0.1549223,-9.85178,0,0,32.19723,1,1,7747,3873
7117,35051464,2,0.001407177,0.001124471,0.001830806,-0.3255908,-0.155773,-9.850625000000001,0,0,32.1974,1,1,7747,3873
7124,35054520,2,0.001205557,0.0007497247,0.001938502,-0.3253254,-0.1586212,-9.850343000000001,0,0,32.19749,1,1,7747,3873
7127,35056921,2,0.0004079553,0.001484255,0.0004817195,-0.3245824,-0.1629424,-9.849167,0,0,32.19769,1,1,7747,3873
7158,35059779,2,-0.0004576183,0.001608065,-0.0008924116,-0.3236702,-0.1655925,-9.846653,0,0,32.19784,1,1,7747,3873
7162,35061688,2,-0.0003672893,0.0009870522,-0.001536043,-0.3235949,-0.1660399,-9.845511,0,0,32.19795,1,1,7747,3873
7165,35064480,2,0.00126154,2.396968e-05,-9.024024999999999e-05,-0.3234428,-0.1681447,-9.841316000000001,0,0,32.19814,1,1,7747,3873
7168,35067138,2,0.001857525,-1.410419e-05,0.0003687454,-0.3220589,-0.1696148,-9.837168,0,0,32.19826,1,1,7747,3873
7199,35070144,2,0.002012249,-0.0002182446,0.0004474662,-0.3194962,-0.1705154,-9.830765,0,0,32.19845,1,1,7747,3873
7202,35072161,2,0.002116385,-0.0008060837,-4.356578e-05,-0.3177301,-0.1709895,-9.828200000000001,0,0,32.19858,1,1,7747,3873
7205,35074998,2,0.002538875,-0.000533756,0.000161364,-0.315284,-0.170164,-9.82935,0,0,32.19879,1,1,7747,3873
7208,35077691,2,0.002778119,0.0004807315,1.340337e-05,-0.3125222,-0.1682212,-9.832129999999999,0,0,32.19907,1,1,7747,3873
7239,35080585,2,0.002694451,0.0008590052,0.0007671526,-0.3106697,-0.1674687,-9.830692000000001,0,0,32.19923,1,1,7747,3873
7243,35083145,2,0.002178645,0.0007913039,0.0009706089,-0.3097063,-0.1675576,-9.829948999999999,0,0,32.19946,1,1,7747,3873
7246,35085474,2,0.00185319,0.0004974797,0.001303411,-0.3103842,-0.1686885,-9.830253000000001,0,0,32.1996,1,1,7747,3873
7250,35087893,2,0.0007091718,-2.934045e-05,0.0005507578,-0.3112304,-0.1719324,-9.831279,0,0,32.19982,1,1,7747,3873
7281,35090574,2,0.0001821863,-0.000493939,0.0009628437,-0.3134195,-0.1753711,-9.829865,0,0,32.20003,1,1,7747,3873
7284,35097932,2,0.0006177912,-0.0019052,-0.0003048399,-0.3175981,-0.1830371,-9.827524,0,0,32.20056,1,1,7747,3873
7315,35100852,2,0.0009995182999999999,-0.0008198439,0.0002531346,-0.3210172,-0.1865642,-9.825856,0,0,32.20075,1,1,7747,3873
7319,35102923,2,0.0006528262,0.0002904914,0.0006364184,-0.3237249,-0.1881917,-9.823667,0,0,32.20088,1,1,7747,3873
7322,35106076,2,-0.000148445,0.002020693,0.001431847,-0.3272772,-0.1885114,-9.818697,0,0,32.20106,1,1,7747,3873
7325,35108514,2,-0.0003726023,0.001804321,0.001999051,-0.3285044,-0.1861859,-9.815327999999999,0,0,32.20118,1,1,7747,3873
7356,35110889,2,-0.0008924677,0.001064166,0.001385411,-0.3303448,-0.182647,-9.810641,0,0,32.20138,1,1,7747,3873
7360,35113413,2,-0.0002683726,0.0002303097,0.001140086,-0.3317681,-0.1794146,-9.808138,0,0,32.20156,1,1,7747,3873
7363,35116080,2,0.0002717963,0.0004017386,0.001794163,-0.3315184,-0.1787198,-9.806514999999999,0,0,32.20169,1,1,7747,3873
7366,35119071,2,0.0008103963,0.000240236,0.001457658,-0.3289782,-0.1776646,-9.804745,0,0,32.20189,1,1,7747,3873
7397,35122040,2,4.275363e-05,0.001135095,0.00131645,-0.3238392,-0.174508,-9.810124999999999,0,0,32.20201,1,1,7747,3873
7400,35124231,2,-0.0006543835,0.002446766,0.001240666,-0.3202766,-0.1723848,-9.815004,0,0,32.2021,1,1,7747,3873
7405,35127102,2,-0.0008196246,0.002897023,0.0005566247000000001,-0.3178413,-0.1707643,-9.819366,0,0,32.20225,1,1,7747,3873
7409,35129776,2,-0.0005769973,0.001923564,4.840726e-05,-0.3165205,-0.1691957,-9.823734999999999,0,0,32.20239,1,1,7747,3873
7440,35132135,2,-0.0005505797,0.0007821073,-0.0006447369,-0.3152021,-0.1689095,-9.829359999999999,0,0,32.20254,1,1,7747,3873
7444,35135191,2,-0.001047344,0.0004121816,0.0003825483,-0.3155157,-0.1712576,-9.83206,0,0,32.20268,1,1,7747,3873
7447,35137457,2,-0.000939491,-1.266899e-05,0.00083712,-0.3160367,-0.1727246,-9.830874,0,0,32.20282,1,1,7747,3873
7450,35140024,2,-0.001259083,-0.000823793,0.002502345,-0.3179361,-0.1748474,-9.828913,0,0,32.20297,1,1,7747,3873
7481,35142779,2,-0.002933137,-0.001500605,0.002996845,-0.3194525,-0.1747222,-9.830093,0,0,32.20313,1,1,7747,3873
7485,35144929,2,-0.003385956,-0.001366941,0.002724121,-0.3205966,-0.1728317,-9.829503000000001,0,0,32.2032,1,1,7747,3873
7489,35148060,2,-0.003127184,-0.0009125534,0.001744952,-0.3217073,-0.1699365,-9.828464,0,0,32.20327,1,1,7747,3873
7492,35149684,2,-0.001759226,-0.0003090916,0.0003236202,-0.3221634,-0.1656988,-9.827438000000001,0,0,32.20341,1,1,7747,3873
7525,35152121,2,-0.0007822108,-0.0001961291,-0.0008337086,-0.3196495,-0.1620747,-9.828148000000001,0,0,32.20352,1,1,7747,3873
7529,35155199,2,-0.001572533,0.0002431913,-0.0009439868,-0.3186965,-0.1607968,-9.82972,0,0,32.2036,1,1,7747,3873
7536,35157615,2,-0.002537833,0.0006382331,-0.001092879,-0.315386,-0.157863,-9.837452000000001,0,0,32.20373,1,1,7747,3873
7540,35160316,2,-0.002707488,0.0004490928,-0.000704438,-0.3136784,-0.1561302,-9.841176000000001,0,0,32.20386,1,1,7747,3873
7571,35162648,2,-0.002522554,0.001000579,-0.0006184231,-0.3114258,-0.1537551,-9.843826999999999,0,0,32.20397,1,1,7747,3873
7574,35165279,2,-0.002374088,0.0006559293,-0.0009606548,-0.3114654,-0.1539696,-9.845893999999999,0,0,32.20408,1,1,7747,3873
7577,35168580,2,-0.001015635,0.001181941,-0.001700909,-0.3135201,-0.1559318,-9.847619999999999,0,0,32.20417,1,1,7747,3873
7580,35170662,2,-6.826755e-05,0.001358638,-0.001986772,-0.3175211,-0.1587614,-9.850173,0,0,32.20436,1,1,7747,3873
7611,35173339,2,-8.779535000000001e-05,0.0009676235,-0.001658897,-0.3195563,-0.159075,-9.849570999999999,0,0,32.20446,1,1,7747,3873
7615,35175312,2,-0.0008176270999999999,5.589992e-05,-0.001100347,-0.3217562,-0.1578027,-9.845074,0,0,32.20461,1,1,7747,3873
7618,35177828,2,-0.0005521399,0.0002886203,-0.001665327,-0.3230635,-0.157183,-9.839437,0,0,32.20472,1,1,7747,3873
7621,35180823,2,0.0004172678,0.0009241537,-0.001345883,-0.3242176,-0.1573071,-9.832288999999999,0,0,32.20483,1,1,7747,3873
7652,35183533,2,0.0001098571,0.0007861127,-0.001122574,-0.323836,-0.1587223,-9.825863999999999,0,0,32.205,1,1,7747,3873
7656,35186073,2,-0.0004639198,0.000213887,-0.001048883,-0.32192,-0.1602481,-9.822882,0,0,32.20517,1,1,7747,3873
7660,35188156,2,-0.0007180871,0.0001012089,-0.001498142,-0.3214805,-0.1601904,-9.821899999999999,0,0,32.20528,1,1,7747,3873
7663,35190743,2,-0.0002827235,0.0003171531,-0.002068223,-0.3197998,-0.1596032,-9.818842999999999,0,0,32.20546,1,1,7747,3873
7694,35193486,2,0.0009675094,0.001363963,-0.001555211,-0.319279,-0.160807,-9.816758999999999,0,0,32.20568,1,1,7747,3873
7697,35201138,2,6.503979e-05,0.000884831,-0.0005433986,-0.3192144,-0.1634756,-9.806012000000001,0,0,32.20624,1,1,7747,3873
7728,35203701,2,-0.0005541064,0.0001031622,-0.000339947,-0.3183728,-0.1643675,-9.800177,0,0,32.20638,1,1,7747,3873
7732,35206131,2,-0.0008526776999999999,-0.0008058434,-0.0004324439,-0.3175253,-0.1646145,-9.798189000000001,0,0,32.2065,1,1,7747,3873
7735,35209597,2,-0.001487782,-0.0007629797,-0.0006540003,-0.3179185,-0.1640216,-9.803122999999999,0,0,32.20667,1,1,7747,3873
7738,35211498,2,-0.001346054,0.0001449643,-0.00110207,-0.3185129,-0.1624053,-9.808541,0,0,32.20679,1,1,7747,3873
7769,35214576,2,-5.076337e-05,0.0009877804000000001,-0.001409147,-0.3187329,-0.1620059,-9.813592,0,0,32.20696,1,1,7747,3873
7772,35216301,2,-0.0001680504,0.0004621058,-0.001019002,-0.3187377,-0.1626223,-9.814895999999999,0,0,32.20708,1,1,7747,3873
7775,35218661,2,-0.0006884746,0.0001714756,0.0004855339,-0.3192651,-0.1632898,-9.816001,0,0,32.20727,1,1,7747,3873
7778,35221785,2,-0.0001956233,6.263005000000001e-05,0.001175831,-0.3214515,-0.1641833,-9.817601,0,0,32.20745,1,1,7747,3873
7809,35223914,2,0.0002476161,0.0007021973,0.0007490391,-0.325691,-0.1650548,-9.820455000000001,0,0,32.20765,1,1,7747,3873
7813,35227036,2,0.0009074762,0.001912209,0.0004328811,-0.3291039,-0.1652918,-9.821037,0,0,32.20787,1,1,7747,3873
7816,35229304,2,0.0008540279,0.000629572,-8.358131000000001e-05,-0.3311,-0.1655309,-9.819136,0,0,32.20801,1,1,7747,3873
7819,35232119,2,0.001120154,-0.0009369174,0.0009009864999999999,-0.3325629,-0.1647684,-9.814793,0,0,32.20824,1,1,7747,3873
7850,35234652,2,0.001971051,-0.001578097,0.001881147,-0.3320148,-0.163577,-9.815261,0,0,32.20846,1,1,7747,3873
7853,35237287,2,0.001803653,-0.001651001,0.0020754,-0.3316827,-0.1625429,-9.817033,0,0,32.20868,1,1,7747,3873
7856,35239840,2,0.001735686,-0.0006944176,0.003026012,-0.331643,-0.1611008,-9.818265,0,0,32.20889,1,1,7747,3873
7859,35242569,2,0.001589393,7.511607e-07,0.003185931,-0.3314046,-0.1612771,-9.817859,0,0,32.20911,1,1,7747,3873
7890,35245574,2,0.0007685587,2.882868e-05,0.002547047,-0.3331176,-0.1605518,-9.821103000000001,0,0,32.20933,1,1,7747,3873
7894,35247558,2,0.001582272,-0.0001770615,0.00123327,-0.334728,-0.1589261,-9.827445000000001,0,0,32.20954,1,1,7747,3873
7898,35250166,2,0.002200284,3.494343e-05,0.001073706,-0.3353373,-0.1590011,-9.832129,0,0,32.20968,1,1,7747,3873
7901,35252291,2,0.001858271,0.0001962872,0.0006231147,-0.3363903,-0.1591987,-9.836074,0,0,32.20987,1,1,7747,3873
7932,35255146,2,0.0017366,0.000211297,0.0009064379,-0.3373232,-0.1594032,-9.838946,0,0,32.21,1,1,7747,3873
7936,35258128,2,0.001501157,-0.0003574186,0.002203867,-0.3368821,-0.1610361,-9.841964000000001,0,0,32.21024,1,1,7747,3873
7943,35260628,2,0.001167925,-0.00130244,0.002553529,-0.3353538,-0.164117,-9.842028000000001,0,0,32.21036,1,1,7747,3873
7946,35262924,2,0.0003609702,-0.001243324,0.002790363,-0.3341978,-0.170489,-9.839537,0,0,32.2106,1,1,7747,3873
7977,35265275,2,-5.647265e-05,-0.0006374888,0.001590161,-0.3325652,-0.1754934,-9.837142999999999,0,0,32.21079,1,1,7747,3873
7981,35268168,2,-0.0005482878,0.0001203705,0.0004149079,-0.3304875,-0.1785645,-9.835679000000001,0,0,32.21093,1,1,7747,3873
7984,35270617,2,-0.0004378549,-4.229762e-05,0.0006951076,-0.3266924,-0.1832494,-9.833019,0,0,32.21114,1,1,7747,3873
7987,35272699,2,3.313349e-05,-0.0005843635,0.0009550845,-0.3252622,-0.1855223,-9.832471999999999,0,0,32.21128,1,1,7747,3873
8018,35275614,2,4.57418e-05,-0.0009405951000000001,0.0005135145,-0.3229216,-0.1878294,-9.832298,0,0,32.2115,1,1,7747,3873
8022,35278193,2,0.0002907645,-0.001394785,0.0001551181,-0.3213158,-0.1902127,-9.831766,0,0,32.21164,1,1,7747,3873
8025,35280866,2,0.0001313267,-0.001094734,5.279143e-05,-0.3193239,-0.1938414,-9.831935,0,0,32.21184,1,1,7747,3873
8028,35283167,2,1.473855e-06,-0.0008848243,0.0008551815,-0.3186768,-0.1943205,-9.832895000000001,0,0,32.21199,1,1,7747,3873
8059,35285520,2,-0.0001327255,-0.0008998114,0.001003118,-0.3158649,-0.1914281,-9.834963999999999,0,0,32.21222,1,1,7747,3873
8062,35287903,2,-0.0002293948,-0.0009252498,0.0009857301,-0.3149981,-0.1870597,-9.836137000000001,0,0,32.21237,1,1,7747,3873
8066,35291091,2,0.000200708,-0.0009198899,0.002149815,-0.31741,-0.180874,-9.835058,0,0,32.2126,1,1,7747,3873
8069,35293856,2,0.0005936461,-0.0006587281,0.002214435,-0.3201248,-0.1772248,-9.832145000000001,0,0,32.21276,1,1,7747,3873
8072,35295339,2,0.0001703202,0.0003809757,0.001702901,-0.3231305,-0.1728966,-9.828238000000001,0,0,32.21298,1,1,7747,3873
8104,35298118,2,-0.0005426461,0.001086633,0.0007633229,-0.3245211,-0.1703441,-9.826332000000001,0,0,32.21313,1,1,7747,3873
8107,35300464,2,-0.0008610552,0.0007961458,7.109624e-06,-0.3263289,-0.1672384,-9.827375,0,0,32.21336,1,1,7747,3873
8110,35303404,2,-0.0009660784,0.001001994,0.000408107,-0.3268791,-0.1654002,-9.829787,0,0,32.2135,1,1,7747,3873
8113,35306294,2,-0.001842601,0.001285558,7.329061e-05,-0.3267305,-0.1632797,-9.832704,0,0,32.21376,1,1,7747,3873
8144,35308549,2,-0.001703702,0.00182621,-0.001170022,-0.3266613,-0.1620399,-9.835039,0,0,32.21394,1,1,7747,3873
8150,35311814,2,-0.0009789226999999999,0.00187409,-0.001112053,-0.3252913,-0.1628184,-9.837631999999999,0,0,32.21413,1,1,7747,3873
8153,35313799,2,-0.0006512703,0.001568926,-0.0003116749,-0.3240446,-0.1646282,-9.839155999999999,0,0,32.21426,1,1,7747,3873
8156,35316768,2,0.000511662,0.001544066,-0.0003217272,-0.322298,-0.1666967,-9.840023,0,0,32.21443,1,1,7747,3873
8187,35321926,2,0.0009234247,0.0009785387,-0.001091152,-0.3218932,-0.1697364,-9.837201,0,0,32.21474,1,1,7747,3873
8190,35324449,2,-0.0004546746,0.000875043,-0.002004691,-0.3229445,-0.1703037,-9.834172000000001,0,0,32.21494,1,1,7747,3873
8193,35327179,2,-0.001643347,0.000370777,-0.001899267,-0.3247144,-0.1697119,-9.833961,0,0,32.21507,1,1,7747,3873
8224,35330154,2,-0.001647899,-0.0002235791,-0.001266224,-0.3264956,-0.1686865,-9.836214999999999,0,0,32.21534,1,1,7747,3873
8229,35333144,2,-0.00124623,0.0001015567,-0.001019476,-0.3261774,-0.1675653,-9.838986,0,0,32.21554,1,1,7747,3873
8233,35335139,2,-0.0003200438,0.0007093239,-0.001032673,-0.3244087,-0.1669512,-9.842127,0,0,32.21572,1,1,7747,3873
8236,35337343,2,0.0001133455,-2.037803e-05,-0.001587491,-0.3236757,-0.1663048,-9.841865,0,0,32.21596,1,1,7747,3873
8267,35339859,2,-0.0002130028,-0.0004879516,-0.002138379,-0.3235642,-0.1652047,-9.837866,0,0,32.21608,1,1,7747,3873
8270,35342686,2,-0.0002297857,-0.0001586139,-0.002118682,-0.3225937,-0.1657373,-9.825918,0,0,32.21629,1,1,7747,3873
8275,35345245,2,-4.776775e-07,0.000224368,-0.001708235,-0.3222032,-0.1668723,-9.817545000000001,0,0,32.21639,1,1,7747,3873
8278,35347314,2,0.0009673928,6.563334e-05,-0.001881614,-0.3219732,-0.1676188,-9.810476,0,0,32.21653,1,1,7747,3873
8309,35350009,2,0.001503642,0.0001249546,-0.002025384,-0.3227307,-0.1677762,-9.805944999999999,0,0,32.21663,1,1,7747,3873
8312,35352500,2,0.001858837,0.0001886301,-0.002123474,-0.324246,-0.1682832,-9.80457,0,0,32.21671,1,1,7747,3873
8315,35355336,2,0.00321808,0.0008454027,-0.001426479,-0.3253613,-0.1698905,-9.807461999999999,0,0,32.21684,1,1,7747,3873
8318,35357916,2,0.002515285,0.001206253,0.0001171024,-0.3262075,-0.169922,-9.810881,0,0,32.21705,1,1,7747,3873
8349,35360339,2,0.001708669,0.001105404,-0.0001229082,-0.3278391,-0.1671732,-9.814793999999999,0,0,32.21722,1,1,7747,3873
8356,35363186,2,0.001100128,0.0009571885,-0.001421879,-0.3274048,-0.1643559,-9.815739000000001,0,0,32.21734,1,1,7747,3873
8362,35365293,2,0.0002583658,4.251867e-05,-0.00113916,-0.3233378,-0.1614228,-9.816461,0,0,32.21759,1,1,7747,3873
8365,35368387,2,-2.008087e-05,-0.0002678708,-0.0002938655,-0.3194975,-0.1597454,-9.817273,0,0,32.21771,1,1,7747,3873
8396,35371385,2,-0.0009287812,0.0003064917,0.0004388871,-0.315657,-0.1582492,-9.819055000000001,0,0,32.21789,1,1,7747,3873
8399,35373585,2,-0.001377047,0.0008738659,0.0005487192,-0.3119043,-0.1590199,-9.821709,0,0,32.21808,1,1,7747,3873
8402,35375908,2,-0.001088267,0.0005903993,0.0009034396,-0.3080442,-0.1604979,-9.823668,0,0,32.2182,1,1,7747,3873
8405,35378579,2,-0.0006665877,0.0004795187,0.0004564701,-0.3050826,-0.1617447,-9.826006,0,0,32.21847,1,1,7747,3873
8436,35381566,2,-0.0003768548,0.00119941,0.0005924826,-0.3026828,-0.1622175,-9.828441,0,0,32.21861,1,1,7747,3873
8439,35383799,2,0.0001010379,0.001451939,0.0006334823,-0.2991036,-0.1629042,-9.833072,0,0,32.21886,1,1,7747,3873
8443,35386089,2,-5.900847e-05,0.000997455,0.002078725,-0.2975815,-0.1635448,-9.835518,0,0,32.21905,1,1,7747,3873
8447,35388580,2,-0.0009679416,0.001255136,0.003092834,-0.2996961,-0.1652464,-9.834778999999999,0,0,32.21923,1,1,7747,3873
8478,35391080,2,-0.0007683168,0.001609242,0.003427831,-0.3057839,-0.1665201,-9.829782,0,0,32.21949,1,1,7747,3873
8481,35393789,2,-0.0001446613,0.0009913424,0.002736181,-0.3100581,-0.1678316,-9.826385999999999,0,0,32.21964,1,1,7747,3873
8484,35396600,2,-7.284136e-05,0.00108911,0.001983738,-0.3136882,-0.169815,-9.823156000000001,0,0,32.21978,1,1,7747,3873
8487,35398863,2,-0.0007274182,0.0005698798,0.0009134421,-0.3181582,-0.1707004,-9.818004999999999,0,0,32.22008,1,1,7747,3873
8518,35401631,2,-0.0005901364,0.0003280358,2.742667e-05,-0.3206478,-0.1697285,-9.817225000000001,0,0,32.22031,1,1,7747,3873
8521,35403802,2,-0.0004017472,0.0001761667,0.0002583095,-0.3211236,-0.1682469,-9.819508000000001,0,0,32.22045,1,1,7747,3873
8525,35406189,2,0.0003309103,-0.0001815671,0.0009536634,-0.3209665,-0.166289,-9.822346,0,0,32.22066,1,1,7747,3873
8528,35412891,2,0.00107453,-0.0004517789,0.001548989,-0.321397,-0.1604759,-9.822187,0,0,32.22117,1,1,7747,3873
8531,35414285,2,0.001540934,0.001033586,0.001183041,-0.3227741,-0.1578049,-9.818109,0,0,32.22146,1,1,7747,3873
8563,35417181,2,0.001336484,0.001942333,0.0008152421,-0.32321,-0.157204,-9.813898999999999,0,0,32.22161,1,1,7747,3873
8567,35419913,2,0.0001400164,0.001485253,0.0007898812,-0.3246017,-0.1566864,-9.809526999999999,0,0,32.22184,1,1,7747,3873
8570,35422678,2,-9.812604e-05,0.001421042,0.001016134,-0.3267735,-0.1548428,-9.808809999999999,0,0,32.22198,1,1,7747,3873
8573,35424176,2,-0.00071447,0.002224514,0.0005209319,-0.3279346,-0.1527777,-9.809602,0,0,32.22221,1,1,7747,3873
8604,35426664,2,-0.001354408,0.002001641,0.0003401244,-0.3269043,-0.1508656,-9.810237000000001,0,0,32.22238,1,1,7747,3873
8607,35429498,2,-0.0003405042,0.001284446,7.214667e-06,-0.3251003,-0.1486922,-9.811617,0,0,32.2227,1,1,7747,3873
8610,35432233,2,0.001081645,0.001230432,0.0005358221,-0.323556,-0.1485628,-9.8147,0,0,32.22287,1,1,7747,3873
8613,35434863,2,0.002891021,0.001357983,0.001270384,-0.3174213,-0.1498022,-9.822535999999999,0,0,32.22319,1,1,7747,3873
8645,35437431,2,0.002183325,0.001044938,0.0009825770999999999,-0.3093467,-0.1545194,-9.831369,0,0,32.22344,1,1,7747,3873
8648,35440089,2,0.00129521,0.0007167958000000001,0.001017763,-0.3068554,-0.1567498,-9.833415,0,0,32.22361,1,1,7747,3873
8651,35442189,2,0.0007658305,0.00022347,0.001297196,-0.3024425,-0.1631766,-9.840316,0,0,32.22383,1,1,7747,3873
8654,35445303,2,0.000577473,-0.0004369013,0.001904736,-0.3007173,-0.1665793,-9.843952,0,0,32.22399,1,1,7747,3873
8685,35448099,2,0.001328783,-0.001681623,0.0008074582,-0.2992893,-0.170283,-9.844834000000001,0,0,32.22429,1,1,7747,3873
8688,35450504,2,0.001517031,-0.001248334,-0.0001188939,-0.2998553,-0.1715231,-9.844341,0,0,32.22458,1,1,7747,3873
8691,35452814,2,0.001761133,-0.0009866445,-0.0007830483,-0.3013089,-0.1737551,-9.843932000000001,0,0,32.2248,1,1,7747,3873
8694,35455911,2,0.002728504,-0.0003749056,-0.0006136629,-0.3028165,-0.1761314,-9.842610000000001,0,0,32.22503,1,1,7747,3873
8725,35458267,2,0.003137662,-3.003364e-05,-0.0003826215,-0.3033188,-0.1746713,-9.840391,0,0,32.22527,1,1,7747,3873
8730,35461117,2,0.002840004,-6.227858e-05,3.208396e-05,-0.3040343,-0.1723035,-9.838471,0,0,32.22543,1,1,7747,3873
8733,35463905,2,0.001303671,9.352892e-05,-0.0007108454,-0.3045299,-0.1700296,-9.833834,0,0,32.22573,1,1,7747,3873
8740,35466794,2,0.0006308649,-0.0001854472,-0.0002469037,-0.3053544,-0.1687331,-9.830904,0,0,32.22588,1,1,7747,3873
8771,35469138,2,0.0002380774,-0.0002058182,0.0002284647,-0.3077455,-0.1670122,-9.82883,0,0,32.22616,1,1,7747,3873
8774,35471646,2,-4.232087e-05,-0.0009161247,-0.0005249686,-0.3084985,-0.165329,-9.828723,0,0,32.22638,1,1,7747,3873
8777,35474202,2,-0.0006622194000000001,-0.0008511762,-0.0007820195,-0.3093895,-0.1653529,-9.829124999999999,0,0,32.22652,1,1,7747,3873
8780,35477256,2,-0.001061197,-0.0002896959,-0.001033855,-0.3123754,-0.1667179,-9.828352000000001,0,0,32.22675,1,1,7747,3873
8811,35480324,2,-0.001907529,1.689601e-05,-0.001186452,-0.3166186,-0.1672145,-9.827102999999999,0,0,32.22696,1,1,7747,3873
8815,35482560,2,-0.002532999,-0.0004088205,-0.001185141,-0.3176748,-0.1672239,-9.828131000000001,0,0,32.22716,1,1,7747,3873
8818,35484865,2,-0.001755013,-0.0005940388999999999,-0.0005097499,-0.3167309,-0.1667161,-9.828706,0,0,32.22736,1,1,7747,3873
8821,35487573,2,-0.0008196866,-0.0006628609,-4.95764e-05,-0.3168339,-0.1666308,-9.824522,0,0,32.22756,1,1,7747,3873
8852,35490598,2,-0.0002769924,-0.0004734831,0.0005338380999999999,-0.3176998,-0.1669294,-9.821049,0,0,32.22778,1,1,7747,3873
8856,35492663,2,-0.0001333782,8.763912e-05,0.002357121,-0.3172225,-0.1678558,-9.815758000000001,0,0,32.22801,1,1,7747,3873
8860,35494863,2,-0.0001387031,0.0004248368,0.002485364,-0.3170395,-0.168542,-9.815434,0,0,32.22817,1,1,7747,3873
8863,35497490,2,-0.0006724804,0.000322493,0.002419489,-0.3172343,-0.1703653,-9.817753,0,0,32.22848,1,1,7747,3873
8894,35500098,2,-0.0003537183,0.0007569026,0.00180534,-0.3179407,-0.1716942,-9.821052,0,0,32.22863,1,1,7747,3873
8897,35503541,2,-0.0001022506,0.0008802378999999999,0.0007658076,-0.318615,-0.1736954,-9.822571,0,0,32.22885,1,1,7747,3873
8900,35505614,2,-0.0004846868,0.0008419396,0.0001588481,-0.3191386,-0.1766857,-9.821247,0,0,32.22899,1,1,7747,3873
8903,35507340,2,-0.0009060993,0.0008793002,-0.0006367368,-0.3185004,-0.1797786,-9.816992000000001,0,0,32.22919,1,1,7747,3873
8934,35509671,2,-0.001087573,0.0007417677,-0.001948413,-0.3160954,-0.1803172,-9.814310000000001,0,0,32.22933,1,1,7747,3873
8938,35512326,2,-0.0008172903,0.0003362226,-0.001618083,-0.3131325,-0.1801904,-9.814743,0,0,32.22952,1,1,7747,3873
8941,35515644,2,-0.001183506,5.740844e-05,-0.000878823,-0.3127528,-0.1802178,-9.81781,0,0,32.22964,1,1,7747,3873
8944,35518357,2,-0.001334408,-0.0002692836,-0.0001944082,-0.3134238,-0.1800468,-9.821792,0,0,32.2299,1,1,7747,3873
8947,35519924,2,-0.0007427353,-0.000516304,0.0003799417,-0.3137135,-0.1805015,-9.824313999999999,0,0,32.23004,1,1,7747,3873
8978,35522677,2,-0.0001284629,-0.000816575,0.001577099,-0.3149653,-0.1818129,-9.827821,0,0,32.23025,1,1,7747,3873
8981,35524827,2,0.0003434602,-0.000123919,0.001804394,-0.3151368,-0.1812365,-9.829102000000001,0,0,32.23045,1,1,7747,3873
8984,35527836,2,0.001012628,0.0001656097,0.000937562,-0.3153326,-0.1790417,-9.830149,0,0,32.23061,1,1,7747,3873
8987,35530820,2,0.0008618617,0.0007543942,-0.0003685383,-0.3160412,-0.1781477,-9.82976,0,0,32.23073,1,1,7747,3873
9018,35533119,2,-0.0002477685,0.001796519,-0.0002758187,-0.3176675,-0.1771445,-9.832617000000001,0,0,32.2309,1,1,7747,3873
9023,35535633,2,-0.0002995066,0.002261123,0.001293665,-0.3185502,-0.1768084,-9.835582,0,0,32.23108,1,1,7747,3873
9028,35538875,2,-0.0004346785,0.002164498,0.00199506,-0.318856,-0.1767861,-9.837172000000001,0,0,32.2312,1,1,7747,3873
9031,35540676,2,-0.0004971524,0.001024148,0.001759346,-0.3190252,-0.1778644,-9.834764,0,0,32.23138,1,1,7747,3873
9064,35543784,2,-0.000554661,0.0005898503,0.001204425,-0.3199314,-0.1781185,-9.831550999999999,0,0,32.23149,1,1,7747,3873
9067,35545693,2,-0.0009964994,0.001561524,-0.0005334393,-0.3206677,-0.1776375,-9.825644,0,0,32.23167,1,1,7747,3873
9070,35548144,2,-0.000811635,0.001769408,-0.0005219929,-0.3208311,-0.1767189,-9.823389000000001,0,0,32.23179,1,1,7747,3873
9073,35551182,2,0.000279441,0.002323808,0.0001935363,-0.3201399,-0.1746465,-9.825801999999999,0,0,32.23198,1,1,7747,3873
9104,35553626,2,0.0006881863,0.002433372,0.0008917403,-0.3197863,-0.1717748,-9.828967,0,0,32.23219,1,1,7747,3873
9108,35556635,2,0.0008627229,0.001716315,0.0007075756,-0.319433,-0.1698675,-9.831110000000001,0,0,32.23233,1,1,7747,3873
9111,35558868,2,0.0009839492999999999,0.0008301347,-0.0002089234,-0.3186163,-0.1690992,-9.834555999999999,0,0,32.23252,1,1,7747,3873
9114,35561186,2,0.0009679233,0.0007073630999999999,-0.001541699,-0.3181896,-0.1690027,-9.836707000000001,0,0,32.23263,1,1,7747,3873
9145,35564045,2,0.001267081,0.000762935,-0.001299102,-0.3176905,-0.1678896,-9.839634,0,0,32.2328,1,1,7747,3873
9149,35566226,2,0.0004323876,0.001025255,-0.0008122082,-0.3187503,-0.1680629,-9.841721,0,0,32.2329,1,1,7747,3873
9156,35568868,2,-0.001398085,0.001002175,0.001001225,-0.3200273,-0.1691348,-9.843401,0,0,32.23307,1,1,7747,3873
9159,35571114,2,-0.002155146,0.0008812696000000001,0.001342114,-0.320886,-0.1694712,-9.846007,0,0,32.23317,1,1,7747,3873
9190,35574237,2,-0.002489509,0.0006709211,0.001065229,-0.322366,-0.1675739,-9.851372,0,0,32.23331,1,1,7747,3873
9193,35576799,2,-0.001637549,0.0005520838,0.0005242161,-0.3227267,-0.1658311,-9.855109000000001,0,0,32.23341,1,1,7747,3873
9196,35578642,2,-0.0001872706,0.0005327972,-0.0005725732,-0.3195971,-0.1642252,-9.854654999999999,0,0,32.23354,1,1,7747,3873
9199,35581050,2,-0.000854918,0.0006631333,-0.00145529,-0.3163756,-0.1628957,-9.849662,0,0,32.23363,1,1,7747,3873
9230,35583888,2,-0.001419629,0.0004553883,-0.000599206,-0.3135164,-0.1624386,-9.840854,0,0,32.23377,1,1,7747,3873
9234,35586040,2,-0.00134156,0.0002742342,8.972237e-05,-0.3130059,-0.1632681,-9.835367,0,0,32.23386,1,1,7747,3873
9237,35588907,2,-0.0009419623,0.0008233216,-0.0001669561,-0.3132367,-0.1670208,-9.828941,0,0,32.23399,1,1,7747,3873
9241,35591166,2,-0.0005778041,0.001106321,-0.0009570624,-0.3130873,-0.170295,-9.826421,0,0,32.23407,1,1,7747,3873
9272,35593579,2,-0.0009796271000000001,0.001333736,-0.001518646,-0.3123872,-0.1723463,-9.824707999999999,0,0,32.2342,1,1,7747,3873
9275,35596811,2,-0.0008888723,0.001180912,-0.001194188,-0.3115767,-0.1704711,-9.823088,0,0,32.23428,1,1,7747,3873
9278,35598821,2,-0.0004694031,0.0008904551,-0.001119593,-0.3109509,-0.1679346,-9.822609999999999,0,0,32.23441,1,1,7747,3873
9281,35601553,2,-0.001015597,0.0008987129,-0.0007672454,-0.3108921,-0.1678175,-9.822886,0,0,32.23448,1,1,7747,3873
9312,35603696,2,-0.001628257,0.001381641,0.0005668794,-0.3114893,-0.1702522,-9.824104999999999,0,0,32.23458,1,1,7747,3873
9316,35606179,2,-0.0007201135,0.001715396,0.001566354,-0.3140782,-0.1743674,-9.823936,0,0,32.23468,1,1,7747,3873
9319,35609191,2,-0.0003711044,0.001375519,0.0013251,-0.3165835,-0.176429,-9.821821,0,0,32.23475,1,1,7747,3873
9322,35612604,2,-0.0003772695,0.0009365726,0.001937386,-0.3203592,-0.1760112,-9.819015,0,0,32.23489,1,1,7747,3873
9325,35617082,2,0.0005371565,0.001524831,0.002342667,-0.3197981,-0.1699014,-9.817492,0,0,32.23505,1,1,7747,3873
9357,35619872,2,0.0008279089,0.003097893,0.001641445,-0.3186469,-0.1658815,-9.819951,0,0,32.23514,1,1,7747,3873
9360,35622033,2,0.0008840367,0.00298991,0.0009603219,-0.3181401,-0.1639053,-9.821033,0,0,32.2352,1,1,7747,3873
9363,35624417,2,0.0003462352,0.001893286,0.000329137,-0.3175922,-0.1624835,-9.822347000000001,0,0,32.23529,1,1,7747,3873
9366,35627054,2,0.000224421,0.00114875,0.0002014465,-0.3161514,-0.1623211,-9.824835999999999,0,0,32.23534,1,1,7747,3873
9397,35629923,2,0.0006106138,0.0006019648,-0.0009625346,-0.3116115,-0.1638891,-9.827089000000001,0,0,32.23546,1,1,7747,3873
9400,35632689,2,0.0006930994,0.0002665861,-0.0009724392,-0.3103732,-0.1644692,-9.827316,0,0,32.2355,1,1,7747,3873
9403,35634342,2,0.0009961155000000001,-0.0001249997,-0.0009487562,-0.3089204,-0.1664284,-9.827700999999999,0,0,32.23556,1,1,7747,3873
9406,35637061,2,0.001347836,-0.0001263994,-0.00055631,-0.3075478,-0.16809,-9.827980999999999,0,0,32.23558,1,1,7747,3873
9438,35639813,2,0.001370357,-0.0001799069,-0.0008111924,-0.3046791,-0.1685882,-9.830272000000001,0,0,32.23557,1,1,7747,3873
9441,35642563,2,0.001011492,0.0002771506,-0.0003598742,-0.3025761,-0.1677084,-9.833262,0,0,32.23557,1,1,7747,3873
9444,35645029,2,9.921573e-05,0.0006295832,0.0006245654999999999,-0.301873,-0.1648273,-9.840605,0,0,32.23557,1,1,7747,3873
9447,35647049,2,-0.0004022199,0.001034046,0.0007879051,-0.3028225,-0.1623828,-9.843783999999999,0,0,32.23559,1,1,7747,3873
9479,35649600,2,-0.00144734,0.001178778,0.0004655155,-0.3037478,-0.1580983,-9.843994,0,0,32.23558,1,1,7747,3873
9482,35651893,2,-0.00147269,0.001205077,0.0009517763,-0.3059754,-0.1558951,-9.845414999999999,0,0,32.23558,1,1,7747,3873
9485,35654863,2,-0.001870768,0.0008360653,0.001200585,-0.3094038,-0.1532841,-9.846295,0,0,32.23556,1,1,7747,3873
9488,35657337,2,-0.002037916,0.0007086651,0.0007245504,-0.3099855,-0.1521063,-9.844253999999999,0,0,32.23553,1,1,7747,3873
9519,35660098,2,-0.002053789,0.0006661026,0.0003255203,-0.309622,-0.1518679,-9.841108,0,0,32.23544,1,1,7747,3873
9522,35662900,2,-0.001462036,0.001331479,0.0001511853,-0.3071698,-0.1543422,-9.836406999999999,0,0,32.23536,1,1,7747,3873
9525,35665486,2,-0.0008708655,0.001400097,0.0001927482,-0.3056826,-0.1573731,-9.834277,0,0,32.23532,1,1,7747,3873
9529,35667303,2,0.0004289595,0.001013371,-0.0003268982,-0.3064946,-0.1612694,-9.828353999999999,0,0,32.23528,1,1,7747,3873
9565,35669999,2,0.0009613963,0.001415449,-0.0005506746,-0.3077371,-0.1629196,-9.823347,0,0,32.23524,1,1,7747,3873
9568,35672767,2,0.0004842783,0.002322614,-0.0004301505,-0.3086861,-0.1638105,-9.819326999999999,0,0,32.23521,1,1,7747,3873
9571,35674760,2,-5.818568e-05,0.002921143,0.0003191144,-0.3090608,-0.1642463,-9.818306,0,0,32.23516,1,1,7747,3873
9574,35677838,2,0.0002402266,0.00113377,0.001101514,-0.3099748,-0.1618713,-9.819091999999999,0,0,32.23513,1,1,7747,3873
9605,35680393,2,0.0005233752,-0.0008694703,0.0006515937,-0.3122232,-0.1577793,-9.821490000000001,0,0,32.23512,1,1,7747,3873
9608,35682588,2,0.0001985019,-0.001129147,0.0006752053,-0.3135628,-0.1556136,-9.822305999999999,0,0,32.23512,1,1,7747,3873
9611,35685878,2,3.498878e-05,-0.001274735,0.000394969,-0.3152968,-0.1546249,-9.822601000000001,0,0,32.23511,1,1,7747,3873
9614,35688119,2,0.0004558685,-0.0021356,0.0006041398,-0.3183799,-0.1539356,-9.822608000000001,0,0,32.23511,1,1,7747,3873
9645,35690557,2,0.001702489,-0.002066161,-0.0004467506,-0.319606,-0.1547572,-9.824223999999999,0,0,32.23511,1,1,7747,3873
9649,35693132,2,0.001842598,-0.001966405,-0.0001072676,-0.3211709,-0.1575996,-9.827016,0,0,32.23512,1,1,7747,3873
9652,35695686,2,0.001178836,-0.001350776,-0.0004784691,-0.3243034,-0.1616297,-9.83104,0,0,32.23515,1,1,7747,3873
9655,35698174,2,0.0005772036,-0.001111321,-0.0002883481,-0.3265599,-0.1635218,-9.833451,0,0,32.23517,1,1,7747,3873
9686,35701240,2,4.870115e-05,-0.001081512,0.00051042,-0.3298645,-0.1642134,-9.836255,0,0,32.23519,1,1,7747,3873
9689,35703528,2,0.0004816052,-0.0009506582,0.0005042256,-0.3329802,-0.1647203,-9.837456,0,0,32.23521,1,1,7747,3873
9693,35706089,2,-6.943516e-05,-0.0003093453,-0.0003677606,-0.3354875,-0.1653684,-9.84146,0,0,32.23524,1,1,7747,3873
9696,35708441,2,-0.0008408946,0.0003016978,-0.001055503,-0.3342772,-0.1665591,-9.844208,0,0,32.23525,1,1,7747,3873
9727,35711114,2,-0.001354908,0.001129438,-0.001550639,-0.3292189,-0.1698013,-9.849897,0,0,32.23528,1,1,7747,3873
9731,35715124,2,-0.00170626,0.002249626,-0.0003082265,-0.322865,-0.171262,-9.849881999999999,0,0,32.23532,1,1,7747,3873
9734,35716601,2,-0.001293893,0.002318266,-2.56801e-05,-0.3163115,-0.1726904,-9.845582,0,0,32.23535,1,1,7747,3873
9737,35719139,2,-0.0009551447999999999,0.001773308,0.001005491,-0.3127875,-0.1729072,-9.841443999999999,0,0,32.23539,1,1,7747,3873
9770,35722476,2,-0.0006399605,0.001318192,0.001330093,-0.3100885,-0.1734707,-9.834861999999999,0,0,32.23548,1,1,7747,3873
9774,35724317,2,-0.0001071297,0.001404238,0.0008585036,-0.3100292,-0.17351,-9.832696,0,0,32.23553,1,1,7747,3873
9777,35727099,2,0.0001638143,0.001757072,0.0008095563,-0.3113187,-0.1728423,-9.833888,0,0,32.2356,1,1,7747,3873
9781,35729696,2,0.0005017493,0.002257849,0.001198822,-0.3142149,-0.1713177,-9.837203000000001,0,0,32.23568,1,1,7747,3873
9812,35732056,2,7.490932000000001e-05,0.002128333,0.0005037254,-0.3153173,-0.1702533,-9.837361,0,0,32.23575,1,1,7747,3873
9815,35738065,2,-0.002663958,0.001319365,-0.0004467649,-0.3235354,-0.1655954,-9.835683,0,0,32.23594,1,1,7747,3873
9818,35740329,2,-0.002695278,0.001153506,-0.0002435947,-0.3247987,-0.1647021,-9.833608999999999,0,0,32.236,1,1,7747,3873
9849,35742838,2,-0.001777264,0.001201616,0.0007107464,-0.3244688,-0.1638667,-9.829056,0,0,32.23611,1,1,7747,3873
9853,35745246,2,-0.001230983,0.001052694,0.000954263,-0.3235617,-0.1638266,-9.826558,0,0,32.23619,1,1,7747,3873
9856,35747904,2,-0.0005766791,0.001099585,0.0005792912,-0.3219562,-0.1628515,-9.825456000000001,0,0,32.23631,1,1,7747,3873
9859,35750777,2,-0.0005897339,0.001486418,0.000470742,-0.3214079,-0.1634514,-9.826142000000001,0,0,32.23639,1,1,7747,3873
9890,35753190,2,-0.0008844731,0.001534921,0.0007043337,-0.3211559,-0.1660196,-9.832601,0,0,32.23651,1,1,7747,3873
9893,35755897,2,-8.606607e-05,0.001985916,-0.0009355611,-0.3208119,-0.1682254,-9.837602,0,0,32.23664,1,1,7747,3873
9896,35758175,2,-9.53021e-05,0.002127238,-0.00246552,-0.3209786,-0.1694439,-9.839714000000001,0,0,32.23673,1,1,7747,3873
9899,35761102,2,-0.0004385772,0.001979425,-0.002343193,-0.3210805,-0.1700498,-9.841310999999999,0,0,32.23687,1,1,7747,3873
9930,35763923,2,-0.001167155,0.001247939,-0.001687437,-0.3217125,-0.1716681,-9.844236,0,0,32.23701,1,1,7747,3873
9934,35766266,2,-0.001891942,0.0006724779,-0.001835637,-0.3231059,-0.1726672,-9.846211,0,0,32.23715,1,1,7747,3873
9937,35769155,2,-0.002761223,0.0002134611,-0.002565775,-0.3243278,-0.1742066,-9.847293000000001,0,0,32.2373,1,1,7747,3873
9940,35771190,2,-0.002402154,-0.0001906169,-0.002431579,-0.3247884,-0.174758,-9.847168,0,0,32.2374,1,1,7747,3873
9975,35774295,2,-0.002458189,0.0002496644,-0.002151985,-0.3244459,-0.1742457,-9.844783,0,0,32.23749,1,1,7747,3873
9978,35776230,2,-0.002356262,0.0004862818,-0.001192793,-0.3236273,-0.1725458,-9.841602,0,0,32.23755,1,1,7747,3873
9981,35778680,2,-0.001958382,0.000121615,-6.04622e-05,-0.3215015,-0.1696593,-9.838132,0,0,32.23767,1,1,7747,3873
9984,35781611,2,-0.001292969,-0.0001509416,-0.0001643088,-0.320242,-0.1681865,-9.834598,0,0,32.23773,1,1,7747,3873
10015,35783920,2,8.158937000000001e-05,0.001174524,-0.0001159155,-0.3185443,-0.1671673,-9.830726,0,0,32.23783,1,1,7747,3873
10019,35786895,2,0.0004575184,0.001613367,0.0007057476,-0.3177253,-0.167125,-9.829330000000001,0,0,32.23793,1,1,7747,3873
10022,35789116,2,-0.0001759907,0.001638634,0.0009899850999999999,-0.3164567,-0.1674123,-9.828832999999999,0,0,32.238,1,1,7747,3873
10025,35791873,2,-0.0006232688,0.0008138262,0.0008466701,-0.3145307,-0.1692482,-9.827928,0,0,32.23815,1,1,7747,3873
10056,35794089,2,-0.0011975,0.0004442727,0.001360891,-0.3140274,-0.1705076,-9.826005,0,0,32.23829,1,1,7747,3873
10060,35797268,2,-0.001968798,0.000852332,0.001078467,-0.3152274,-0.171111,-9.824452000000001,0,0,32.23838,1,1,7747,3873
10063,35799570,2,-0.002480281,0.00151545,0.0007476218,-0.3161222,-0.1706682,-9.822632,0,0,32.23851,1,1,7747,3873
10066,35801683,2,-0.002795408,0.001755647,7.196500999999999e-05,-0.3154294,-0.1680622,-9.822468000000001,0,0,32.23861,1,1,7747,3873
10097,35804727,2,-0.002272183,0.001182734,-3.780122e-05,-0.3139855,-0.1647421,-9.823432,0,0,32.2387,1,1,7747,3873
10100,35806838,2,-0.0007996729,0.0004720977,0.0006101016,-0.3129441,-0.1597392,-9.82846,0,0,32.23885,1,1,7747,3873
10104,35810658,2,-0.0001059768,0.0008633041,0.0005485619,-0.312898,-0.1574895,-9.834496,0,0,32.23901,1,1,7747,3873
10107,35811864,2,0.0008429266,0.0007767528,-0.0005148391,-0.3128272,-0.1569464,-9.839558,0,0,32.23913,1,1,7747,3873
10138,35814558,2,0.002431424,0.0003739137,-0.001362669,-0.3124851,-0.158403,-9.842325000000001,0,0,32.2393,1,1,7747,3873
10141,35817013,2,0.00280029,8.28601e-05,-0.001842368,-0.3114142,-0.1611835,-9.838228000000001,0,0,32.2394,1,1,7747,3873
10144,35819817,2,0.001857114,0.000790323,-0.001699389,-0.3109134,-0.1638498,-9.834078999999999,0,0,32.23952,1,1,7747,3873
10147,35822608,2,0.001573,0.001467585,-0.001123267,-0.3109044,-0.1657773,-9.830033,0,0,32.23962,1,1,7747,3873
10178,35825227,2,0.0009269305,0.001315628,0.0003734769,-0.3114149,-0.1691795,-9.822678,0,0,32.23977,1,1,7747,3873
10181,35827775,2,0.0009259132,0.0006615348,0.001137082,-0.3110536,-0.1714393,-9.820848,0,0,32.23991,1,1,7747,3873
10184,35830335,2,0.0006051688,0.0008296137,0.0009780324999999999,-0.3113863,-0.1728221,-9.823022,0,0,32.24008,1,1,7747,3873
10187,35832896,2,-0.0001563537,0.002070121,-0.0003327065,-0.3139441,-0.1742948,-9.824737000000001,0,0,32.24026,1,1,7747,3873
10218,35836838,2,-0.000240012,0.002050094,-0.0003402645,-0.3164178,-0.1720203,-9.823585,0,0,32.24042,1,1,7747,3873
10221,35838056,2,-0.0001628265,0.001822748,-0.0003267936,-0.3184065,-0.1645601,-9.823919999999999,0,0,32.2406,1,1,7747,3873
10224,35841061,2,-8.995461e-05,0.0007136106,-0.0002409005,-0.3204147,-0.1600129,-9.826438,0,0,32.24072,1,1,7747,3873
10227,35843519,2,0.0004142874,-1.98037e-05,1.190597e-05,-0.3226901,-0.1554432,-9.832006,0,0,32.24094,1,1,7747,3873
10258,35846552,2,0.0007631743,-0.0001072726,0.001073435,-0.3227341,-0.1536192,-9.833206000000001,0,0,32.24106,1,1,7747,3873
10261,35848828,2,0.0006947118,-8.555756999999999e-05,0.002226966,-0.3229456,-0.1541728,-9.833736999999999,0,0,32.24122,1,1,7747,3873
10265,35850811,2,0.0005245207,0.0005672005,0.002664859,-0.3234073,-0.1541976,-9.833593,0,0,32.24133,1,1,7747,3873
10268,35853225,2,0.0004713506,0.00103099,0.001028777,-0.3248506,-0.1540069,-9.833416,0,0,32.24147,1,1,7747,3873
10299,35855670,2,0.0007136147,0.0009882847999999999,0.0007336525,-0.3255709,-0.1546234,-9.834348,0,0,32.24158,1,1,7747,3873
10303,35858850,2,0.001085958,0.0007149378,0.0002210002,-0.3256838,-0.1582569,-9.833619000000001,0,0,32.24173,1,1,7747,3873
10306,35861305,2,0.0008822518,0.0005355571,9.133408e-05,-0.3252635,-0.1602623,-9.832476,0,0,32.24181,1,1,7747,3873
10309,35863831,2,-0.0001125585,-0.0002500555,0.001061616,-0.3235739,-0.1639563,-9.830196000000001,0,0,32.24198,1,1,7747,3873
10340,35866473,2,-0.0004084014,0.001329206,0.002472608,-0.3209179,-0.1681939,-9.825638,0,0,32.24212,1,1,7747,3873
10343,35869619,2,2.181675e-05,0.00203852,0.001995853,-0.3197079,-0.1691193,-9.822355,0,0,32.24221,1,1,7747,3873
10347,35871303,2,0.0002353025,0.002102317,-0.0002621535,-0.3191988,-0.1675607,-9.82108,0,0,32.24235,1,1,7747,3873
10350,35874311,2,-0.0001080189,0.001560456,-0.00225636,-0.3196037,-0.1662126,-9.821413,0,0,32.24245,1,1,7747,3873
10385,35877067,2,-0.0003174049,0.001107548,-0.002332155,-0.3201986,-0.1670484,-9.824579999999999,0,0,32.24261,1,1,7747,3873
10388,35879323,2,0.001120955,0.001545514,-0.001560142,-0.3209451,-0.1686041,-9.827353,0,0,32.24276,1,1,7747,3873
10391,35882249,2,0.002026901,0.001223411,-0.0008672831,-0.3214149,-0.1687944,-9.826433,0,0,32.24285,1,1,7747,3873
10394,35884634,2,0.001615762,0.000923133,-0.0003815296,-0.3215077,-0.1694032,-9.826537,0,0,32.24299,1,1,7747,3873
10425,35887330,2,0.0005075602,0.001014427,0.0001077616,-0.3214489,-0.1702624,-9.829041,0,0,32.24312,1,1,7747,3873
10428,35889607,2,0.0002254535,0.001134546,0.0009597520999999999,-0.3214917,-0.171546,-9.835936999999999,0,0,32.24325,1,1,7747,3873
10432,35891814,2,0.0006646974,0.000533235,0.001154303,-0.3218126,-0.1726377,-9.843845999999999,0,0,32.24334,1,1,7747,3873
10435,35894857,2,0.002251968,0.0008683547,0.001749393,-0.3222859,-0.1722553,-9.855008,0,0,32.24352,1,1,7747,3873
10466,35897294,2,0.003030591,0.001146142,0.002832637,-0.3231641,-0.1685973,-9.86492,0,0,32.2437,1,1,7747,3873
10469,35900033,2,0.002044283,0.001223838,0.002906604,-0.3243899,-0.167364,-9.867663,0,0,32.24379,1,1,7747,3873
10472,35902604,2,0.0005844439,0.0007617263,0.002599862,-0.3250952,-0.1660464,-9.864655000000001,0,0,32.24395,1,1,7747,3873
10475,35905303,2,0.0008059452,0.0003540253,0.002508628,-0.3250703,-0.1664445,-9.86177,0,0,32.24403,1,1,7747,3873
10506,35907658,2,0.0005794612,-5.45889e-05,0.002356701,-0.3251232,-0.1693094,-9.859197,0,0,32.24419,1,1,7747,3873
10509,35910639,2,0.0005926617,-0.0003078429,0.001032038,-0.3243479,-0.1712893,-9.858731000000001,0,0,32.24438,1,1,7747,3873
10513,35912900,2,-7.507095e-05,-0.000383161,0.0006098381,-0.3224235,-0.1718743,-9.858242000000001,0,0,32.24447,1,1,7747,3873
10516,35915594,2,-0.0003375131,-0.0006103239000000001,0.0005432938,-0.3213789,-0.1715749,-9.856301,0,0,32.24461,1,1,7747,3873
10547,35921555,2,-0.0007091476999999999,-0.001627889,0.0002727462,-0.3216107,-0.1679918,-9.849634,0,0,32.24497,1,1,7747,3873
10551,35923342,2,0.0002067671,-0.0006993692,0.0009066102,-0.3189053,-0.1645726,-9.848421999999999,0,0,32.24514,1,1,7747,3873
10554,35925850,2,0.0007443117,-0.0006280974,0.0008030264,-0.3177463,-0.1628422,-9.847322999999999,0,0,32.24525,1,1,7747,3873
10588,35929314,2,0.001373389,-0.001271064,-0.001483658,-0.3154604,-0.1618592,-9.842751,0,0,32.24546,1,1,7747,3873
10591,35932334,2,0.001655192,-0.001879864,-0.001800254,-0.314209,-0.1627809,-9.838786000000001,0,0,32.24557,1,1,7747,3873
10594,35933888,2,0.00128478,-0.002035124,-0.0001259329,-0.3110867,-0.1626097,-9.837811,0,0,32.24574,1,1,7747,3873
10597,35936116,2,0.001305416,-0.0008650796,0.000820561,-0.3090675,-0.1609457,-9.838925,0,0,32.24593,1,1,7747,3873
10628,35938829,2,0.001034405,7.098477e-05,0.0004457585,-0.3086819,-0.1600184,-9.837831,0,0,32.24605,1,1,7747,3873
10631,35941775,2,0.0001295595,0.0008620738,0.0007916219,-0.3101047,-0.1588127,-9.832183000000001,0,0,32.24628,1,1,7747,3873
10634,35944657,2,-0.0003769658,0.0006723262,0.001490481,-0.310599,-0.1586754,-9.831678999999999,0,0,32.24638,1,1,7747,3873
10637,35946122,2,-0.000210593,-7.425375999999999e-05,0.001476356,-0.3121844,-0.1601306,-9.834337,0,0,32.24654,1,1,7747,3873
10656,35971565,2,0.0003035872,0.001403908,0.0003651511,-0.3267238,-0.18091,-9.836501999999999,0,0,32.24738,1,1,7747,3873
10661,35973870,2,0.0002256754,0.001105696,0.0007535873,-0.3275893,-0.1803181,-9.838207000000001,0,0,32.24744,1,1,7747,3873
10664,35976260,2,-0.0004169371,0.001113646,0.0009331669,-0.3278301,-0.17939,-9.837032000000001,0,0,32.24754,1,1,7747,3873
10699,35979648,2,-0.0006340674,0.001028322,0.001199171,-0.3271031,-0.1789081,-9.833811000000001,0,0,32.24761,1,1,7747,3873
10702,35981888,2,-0.0009899352,0.0004173704,0.001088944,-0.3235945,-0.1775279,-9.828685,0,0,32.24771,1,1,7747,3873
10705,35983907,2,-0.0002337667,0.0005282143,0.0004368561,-0.3206434,-0.1769201,-9.826827,0,0,32.24778,1,1,7747,3873
10708,35986154,2,0.0002778933,0.0009612216,3.130472e-05,-0.3172949,-0.1759444,-9.826269,0,0,32.24793,1,1,7747,3873
10739,35988770,2,-0.001007978,0.0005792467,5.766053e-05,-0.3159568,-0.1739252,-9.827085,0,0,32.24802,1,1,7747,3873
10742,35991840,2,-0.001843484,0.0003704964,-0.0017532,-0.3154176,-0.1702566,-9.829817,0,0,32.24814,1,1,7747,3873
10746,35994159,2,-0.001550765,0.0005803779,-0.002455286,-0.316742,-0.1682968,-9.830674,0,0,32.24822,1,1,7747,3873
10749,35996166,2,-0.0009816949000000001,0.0005136703,-0.002927943,-0.3194646,-0.16709,-9.832025,0,0,32.24835,1,1,7747,3873
10780,35999179,2,-0.0006448702,0.0006863751,-0.002655551,-0.3217528,-0.1666046,-9.833513999999999,0,0,32.24843,1,1,7747,3873
10783,36001546,2,-0.0007685793999999999,0.0006916759,-0.002063638,-0.3243157,-0.1668682,-9.840778,0,0,32.2486,1,1,7747,3873
10786,36004359,2,-0.0005289229,0.000691946,-0.001645902,-0.3251644,-0.1675109,-9.848617000000001,0,0,32.24869,1,1,7747,3873
10789,36006809,2,0.0002874089,0.0001466582,-0.001443624,-0.3260153,-0.1684322,-9.854486,0,0,32.24886,1,1,7747,3873
10820,36009132,2,0.0004149785,0.000424763,-0.001338032,-0.3266915,-0.1692179,-9.857728,0,0,32.24897,1,1,7747,3873
10823,36011339,2,0.0004513106,0.0003159777,-0.001069781,-0.3276502,-0.1695976,-9.859408999999999,0,0,32.24905,1,1,7747,3873
10827,36013772,2,0.0002057911,2.303166e-05,-1.208833e-05,-0.3267741,-0.1703722,-9.859425999999999,0,0,32.24912,1,1,7747,3873
10830,36017790,2,0.0005089434,-0.0007534795,0.001253606,-0.3243074,-0.1708664,-9.856771,0,0,32.24926,1,1,7747,3873
10833,36022118,2,-0.000536797,-0.001695981,0.0003779018,-0.3220554,-0.1656896,-9.849123000000001,0,0,32.24945,1,1,7747,3873
10864,36024863,2,-0.0003165432,-0.001108632,-0.0001847348,-0.3234782,-0.162427,-9.843828,0,0,32.24957,1,1,7747,3873
10868,36028085,2,0.0002511723,-0.0007705285,-0.0006479163,-0.32337,-0.162736,-9.838169000000001,0,0,32.24965,1,1,7747,3873
10871,36029887,2,0.001202906,-0.0006178359,-0.0005316547999999999,-0.322568,-0.1634327,-9.827458999999999,0,0,32.24974,1,1,7747,3873
10874,36032107,2,0.001340703,-5.91567e-06,-0.0001542701,-0.3229703,-0.1626347,-9.818994,0,0,32.2498,1,1,7747,3873
10908,36034560,2,0.0001662941,0.0006447628,-0.000552996,-0.3241363,-0.1623738,-9.810161000000001,0,0,32.24993,1,1,7747,3873
10911,36037232,2,-9.256496e-05,0.0005341346,-0.0009215795,-0.3239333,-0.1645235,-9.806369999999999,0,0,32.24999,1,1,7747,3873
10914,36039854,2,-9.104230999999999e-05,0.001078625,-0.001651055,-0.3231457,-0.1673011,-9.804387999999999,0,0,32.25011,1,1,7747,3873
10917,36042492,2,0.0004312334,0.00161009,-0.0009770597,-0.3215652,-0.1689554,-9.80505,0,0,32.25018,1,1,7747,3873
10948,36045391,2,0.0008848589,0.001497374,-0.000241662,-0.3189302,-0.1705694,-9.809068,0,0,32.25031,1,1,7747,3873
10952,36047367,2,0.0009549166,0.0008883372,0.0005141313,-0.317313,-0.1723017,-9.812476,0,0,32.25039,1,1,7747,3873
10955,36049916,2,0.0002847637,0.0008907277,0.0009626655,-0.3170097,-0.1720857,-9.815894999999999,0,0,32.25045,1,1,7747,3873
10958,36052193,2,-0.0005990219,0.001158469,0.002014433,-0.3174002,-0.1701359,-9.821839000000001,0,0,32.25053,1,1,7747,3873
10989,36055179,2,-0.0006214149,0.001244473,0.002364601,-0.3185392,-0.1692423,-9.824551,0,0,32.25057,1,1,7747,3873
10992,36057632,2,-0.0003467163,0.001012297,0.001804544,-0.3184997,-0.1672091,-9.828765000000001,0,0,32.25063,1,1,7747,3873
10995,36060209,2,-0.0002425512,0.0004792644,0.002287807,-0.3180799,-0.1657109,-9.831265,0,0,32.25068,1,1,7747,3873
10998,36062644,2,-5.685526e-05,0.0005199681,0.003492346,-0.318012,-0.1650558,-9.838063999999999,0,0,32.25077,1,1,7747,3873
11029,36065041,2,0.0002850644,0.0006987503,0.002953881,-0.3178484,-0.1654957,-9.843859,0,0,32.25083,1,1,7747,3873
11034,36068129,2,0.0002976773,0.001003944,0.001255627,-0.3166319,-0.1662132,-9.847669,0,0,32.25089,1,1,7747,3873
11037,36070230,2,-0.0008648729,0.00107478,0.000885886,-0.3158191,-0.1664423,-9.849016000000001,0,0,32.25096,1,1,7747,3873
11041,36072527,2,-0.002012931,0.001069168,0.001933254,-0.3164937,-0.1658562,-9.850270999999999,0,0,32.251,1,1,7747,3873
11072,36075214,2,-0.001975162,0.001016275,0.002077,-0.3173348,-0.1650131,-9.850645999999999,0,0,32.25103,1,1,7747,3873
11075,36077624,2,-0.001416494,0.001377271,0.001167911,-0.3179232,-0.1641909,-9.845934,0,0,32.25108,1,1,7747,3873
11082,36080856,2,-0.0007024332,0.001757566,0.0009353984,-0.3187377,-0.1645605,-9.841925,0,0,32.25111,1,1,7747,3873
11085,36082289,2,-0.0001272606,0.001274916,0.001057037,-0.3219883,-0.1644122,-9.836997,0,0,32.25115,1,1,7747,3873
11116,36085127,2,0.0001118415,0.0008742964999999999,0.001087449,-0.3238579,-0.1639313,-9.835247000000001,0,0,32.25118,1,1,7747,3873
11120,36087779,2,0.0004191838,0.0009479929999999999,-0.000734246,-0.3249247,-0.1639935,-9.836508,0,0,32.25123,1,1,7747,3873
11123,36090324,2,0.0006253159,0.0002354709,-0.001214614,-0.3240311,-0.16448,-9.837688,0,0,32.25128,1,1,7747,3873
11126,36092828,2,0.0003641651,-0.000821534,-0.000406231,-0.3203548,-0.1640654,-9.836211,0,0,32.25134,1,1,7747,3873
11157,36095189,2,0.0002186685,-0.001180813,0.0008395409,-0.3144757,-0.1634374,-9.830112,0,0,32.25143,1,1,7747,3873
11160,36098265,2,0.0009313119,-0.0008121907,0.0007617328,-0.3106161,-0.1633825,-9.827004000000001,0,0,32.25149,1,1,7747,3873
11163,36100368,2,-0.0001662366,-4.273918e-05,-0.0002956425,-0.3052587,-0.1634874,-9.822979,0,0,32.25158,1,1,7747,3873
11166,36103229,2,-0.0004816366,0.0006012687,-0.0003499701,-0.3033689,-0.1638333,-9.822176000000001,0,0,32.25164,1,1,7747,3873
11197,36105600,2,-0.000121299,0.001143226,0.0005022956,-0.3001777,-0.1659083,-9.821286000000001,0,0,32.25173,1,1,7747,3873
11201,36107684,2,3.12243e-05,0.0007879215,0.0009709502,-0.2996448,-0.1677222,-9.820800999999999,0,0,32.25179,1,1,7747,3873
11204,36111087,2,0.0002303729,-2.192026e-05,0.0009692954,-0.2992399,-0.1708582,-9.821833,0,0,32.25191,1,1,7747,3873
11207,36113088,2,-0.0001304535,4.140046e-05,0.001566012,-0.2974311,-0.1724546,-9.822979999999999,0,0,32.252,1,1,7747,3873
11238,36116836,2,-8.947145e-05,0.001968855,0.002827592,-0.2950498,-0.1727553,-9.82807,0,0,32.25216,1,1,7747,3873
11242,36118383,2,-0.0002053,0.003345432,0.002857005,-0.2940492,-0.1713088,-9.832416,0,0,32.25227,1,1,7747,3873
11246,36121099,2,-0.0001260053,0.002673402,0.002266192,-0.2939272,-0.1707242,-9.832582,0,0,32.25234,1,1,7747,3873
11249,36124626,2,-0.0001209598,0.0010405,0.001362804,-0.2951966,-0.1693125,-9.830615999999999,0,0,32.25246,1,1,7747,3873
11252,36126777,2,-0.0006627635,0.0007506905,0.0008835649,-0.2966247,-0.1687185,-9.829637,0,0,32.25254,1,1,7747,3873
11283,36128959,2,-0.000776233,0.0013698,2.73102e-05,-0.3002765,-0.1676097,-9.829367,0,0,32.25269,1,1,7747,3873
11288,36132270,2,0.0001157985,0.001590253,-0.0006827253,-0.3006147,-0.16709,-9.828726,0,0,32.25276,1,1,7747,3873
11291,36134610,2,0.0007001876,0.001637835,-0.001272692,-0.3029625,-0.1664767,-9.829959000000001,0,0,32.25286,1,1,7747,3873
11294,36137171,2,0.0005606734,0.001434408,-0.001648427,-0.3047369,-0.166484,-9.834201999999999,0,0,32.25296,1,1,7747,3873
11325,36140581,2,-6.230938e-05,0.0001838853,-0.001322276,-0.3075377,-0.1656659,-9.841505,0,0,32.25307,1,1,7747,3873
11329,36142161,2,-0.0001533709,-0.0004089254,0.0001439417,-0.3117345,-0.1658087,-9.843753,0,0,32.25319,1,1,7747,3873
11332,36144726,2,-0.0001362212,-0.0008733925999999999,-7.767012e-05,-0.3150347,-0.1656054,-9.842599,0,0,32.25333,1,1,7747,3873
11335,36147323,2,0.0003428194,-0.0004173106,0.0003506083,-0.3181259,-0.1649487,-9.836399999999999,0,0,32.25351,1,1,7747,3873
11367,36150529,2,-0.0001713225,0.0001987383,0.0008652918,-0.3208849,-0.1648466,-9.832193,0,0,32.2536,1,1,7747,3873
11370,36152692,2,-0.0009916262999999999,0.001767525,0.0008664962,-0.3235957,-0.1660484,-9.827947999999999,0,0,32.25374,1,1,7747,3873
11373,36155020,2,-0.001480793,0.002190147,-0.0009529505,-0.3245109,-0.1674503,-9.827437,0,0,32.25383,1,1,7747,3873
11376,36157513,2,-0.00164376,0.002006349,-0.001986172,-0.3241006,-0.169333,-9.829083000000001,0,0,32.25406,1,1,7747,3873
11407,36160152,2,-0.001567323,0.001310154,-0.001071427,-0.3232575,-0.168608,-9.830451,0,0,32.25418,1,1,7747,3873
11411,36162667,2,-0.001509452,0.0002392262,0.00036234,-0.321636,-0.1680881,-9.830501,0,0,32.25438,1,1,7747,3873
11414,36165262,2,-0.001740164,-0.000150616,0.0005058274,-0.320428,-0.167532,-9.828450999999999,0,0,32.25451,1,1,7747,3873
11417,36167351,2,-0.001172848,0.0001074632,0.0004890058,-0.3199776,-0.1663462,-9.823295999999999,0,0,32.25478,1,1,7747,3873
11448,36169807,2,-5.452662e-05,0.0002797071,0.0006257013,-0.3201064,-0.1669817,-9.824109999999999,0,0,32.25498,1,1,7747,3873
11453,36172609,2,8.715147e-05,0.0008340657,-0.0002518314,-0.3183827,-0.1679812,-9.826188999999999,0,0,32.25517,1,1,7747,3873
11458,36175261,2,-0.0005227271,0.0006732642,-0.0003961941,-0.3164789,-0.1689635,-9.825329,0,0,32.25531,1,1,7747,3873
11461,36177608,2,-0.0007782938000000001,0.0006365263,-0.0002924633,-0.3135721,-0.1695266,-9.8245,0,0,32.25557,1,1,7747,3873
11492,36180541,2,-0.001242658,9.611654e-05,0.0003956534,-0.3111309,-0.1696098,-9.824147,0,0,32.25571,1,1,7747,3873
11499,36182850,2,-0.001624337,-0.0004225676,0.0005636663,-0.308677,-0.1712811,-9.8233,0,0,32.25592,1,1,7747,3873
11502,36185115,2,-0.001593473,-0.0003665396,0.0001856779,-0.3085006,-0.1734576,-9.823461999999999,0,0,32.25613,1,1,7747,3873
11505,36187758,2,-0.001726471,-0.0001399387,-0.0002682564,-0.3101317,-0.1751877,-9.823192000000001,0,0,32.25638,1,1,7747,3873
11536,36190183,2,-0.001944726,-0.0001298413,-9.730372e-05,-0.3108844,-0.1746111,-9.824195,0,0,32.25656,1,1,7747,3873
11540,36193292,2,-0.00157114,0.0002385819,-0.0002462516,-0.3112685,-0.1726547,-9.828619,0,0,32.25674,1,1,7747,3873
11543,36195304,2,-0.000954358,0.000275865,-0.0002673728,-0.3122149,-0.1710696,-9.834396,0,0,32.25695,1,1,7747,3873
11546,36197793,2,0.0001935661,-0.0002884856,-0.001187985,-0.3138957,-0.1692682,-9.839741999999999,0,0,32.25714,1,1,7747,3873
11577,36200887,2,0.0004971123,-0.0006382187,-0.001295033,-0.3167022,-0.1670155,-9.844341,0,0,32.25727,1,1,7747,3873
11580,36202829,2,0.0005129905,-0.001197039,-0.001240865,-0.3218109,-0.1629998,-9.849276,0,0,32.25744,1,1,7747,3873
11583,36205653,2,0.0001465521,-0.001217088,-0.0005199271,-0.3241585,-0.1611584,-9.849033,0,0,32.25762,1,1,7747,3873
11586,36207804,2,-0.000811881,-0.000190302,-0.0001439579,-0.32799,-0.1598725,-9.846456,0,0,32.25781,1,1,7747,3873
11617,36210157,2,-0.0009377818,-4.067074e-05,-0.0009852768,-0.3296147,-0.1591047,-9.842921,0,0,32.25799,1,1,7747,3873
11621,36213187,2,-0.0007500655,0.0002191649,-0.001084821,-0.3289189,-0.1589905,-9.841265,0,0,32.25811,1,1,7747,3873
11624,36215508,2,-0.0006385064,0.0007967966,-0.0009123571,-0.3266615,-0.1589234,-9.841516,0,0,32.25827,1,1,7747,3873
11627,36217780,2,-1.565948e-05,0.0008697579,-0.0005202129,-0.3237509,-0.1579542,-9.845673,0,0,32.25848,1,1,7747,3873
11658,36220701,2,0.000765642,0.0007549827,-0.0003790625,-0.3229876,-0.1573538,-9.846117,0,0,32.25859,1,1,7747,3873
11661,36222858,2,0.0005103371,0.0001145028,5.623772e-05,-0.321979,-0.1564197,-9.846169,0,0,32.25875,1,1,7747,3873
11664,36228098,2,0.000460356,0.0003819104,0.0009727684,-0.3223625,-0.155516,-9.845869,0,0,32.25906,1,1,7747,3873
11695,36231856,2,0.0001014595,0.0004002315,0.001489718,-0.3238081,-0.1574333,-9.845858,0,0,32.25921,1,1,7747,3873
11699,36233496,2,-0.0008384492,0.0009476085,0.001158222,-0.3245714,-0.1603468,-9.843565,0,0,32.25935,1,1,7747,3873
11702,36236313,2,-0.001022596,0.0007349731,0.0005700961,-0.3247023,-0.1624902,-9.839055,0,0,32.25944,1,1,7747,3873
11705,36238880,2,0.0002250935,0.00113134,0.0002923719,-0.3252473,-0.1648241,-9.832077,0,0,32.25964,1,1,7747,3873
11736,36241492,2,8.802275e-05,0.001166496,-0.0001380857,-0.3249808,-0.1670931,-9.825896,0,0,32.25977,1,1,7747,3873
11740,36244170,2,-0.0003316167,0.001346927,0.0005726496,-0.3249599,-0.1684245,-9.823957999999999,0,0,32.25986,1,1,7747,3873
11743,36247268,2,6.118330999999999e-05,0.001261668,0.0006725282,-0.3242733,-0.168489,-9.824138,0,0,32.26005,1,1,7747,3873
11746,36249381,2,0.0007057309,0.0007021761,-3.978957e-05,-0.322345,-0.1676725,-9.825024000000001,0,0,32.26015,1,1,7747,3873
11777,36251783,2,0.001245882,0.0001018482,-8.415454e-05,-0.3187911,-0.1671907,-9.825836000000001,0,0,32.26028,1,1,7747,3873
11781,36254631,2,0.0004406004,-0.0002464276,0.0009163893,-0.3162338,-0.1664448,-9.827724999999999,0,0,32.26041,1,1,7747,3873
11784,36257135,2,0.000234497,7.824813e-07,0.001038796,-0.3149055,-0.164305,-9.830463,0,0,32.26051,1,1,7747,3873
11787,36259699,2,0.0002560184,-0.0007021365,-5.933186e-05,-0.3133048,-0.1628495,-9.832276999999999,0,0,32.26071,1,1,7747,3873
11818,36262536,2,0.0004966933,-0.0005938198,9.501914e-05,-0.311677,-0.1617079,-9.832666,0,0,32.26085,1,1,7747,3873
11822,36264848,2,0.0004868819,-0.000268046,-7.798281e-05,-0.3113803,-0.1589765,-9.832718,0,0,32.26095,1,1,7747,3873
11825,36267102,2,0.0005651767,0.0001022465,0.0002174329,-0.3129152,-0.1575402,-9.832378,0,0,32.26105,1,1,7747,3873
11828,36269690,2,0.0009263994,-0.0002217208,0.0004350853,-0.3170253,-0.1566994,-9.829252,0,0,32.26126,1,1,7747,3873
11859,36271896,2,0.001005419,-0.0006527757,0.0008692628,-0.3201946,-0.1573941,-9.828042999999999,0,0,32.26137,1,1,7747,3873
11862,36275060,2,0.0007367458,-0.00027736,0.000791138,-0.3243295,-0.1586304,-9.830482999999999,0,0,32.26155,1,1,7747,3873
11865,36277658,2,0.0003491467,-0.0007110056,0.000368989,-0.3253172,-0.1594572,-9.831749,0,0,32.26167,1,1,7747,3873
11869,36279604,2,-0.0008594969,-0.001813105,0.000731265,-0.325496,-0.1613516,-9.832274999999999,0,0,32.26191,1,1,7747,3873
11900,36282058,2,-0.00125143,-0.001827651,0.001289104,-0.3246065,-0.1632109,-9.832545,0,0,32.26202,1,1,7747,3873
11908,36284704,2,-0.0009688349,-0.0009858098000000001,0.0003935684,-0.3234064,-0.166031,-9.831963,0,0,32.26218,1,1,7747,3873
11911,36287276,2,-0.0001996618,-0.0005037945,0.0001390742,-0.3229854,-0.1681255,-9.831396,0,0,32.26228,1,1,7747,3873
11915,36290229,2,0.0006395293,-4.616873e-05,0.0002127591,-0.3223419,-0.1695986,-9.831931000000001,0,0,32.26247,1,1,7747,3873
