LineNo,TimeUS,I,GyrX,GyrY,GyrZ,AccX,AccY,AccZ,EG,EA,T,GH,AH,GHz,AHz
183,33256349,1,-0.003823026,0.003455658,-0.003035119,-0.4083094,-0.1710509,-9.800917999999999,0,0,41.37292,1,1,755,998
214,33259140,1,-0.008572076,-0.0003926846,-0.003119276,-0.3935282,-0.1571523,-9.745734000000001,0,0,41.37292,1,1,755,998
290,33285681,1,0.001123503,0.004804539,0.009664305,-0.5658157,0.01090206,-9.697725,0,0,41.37389,1,1,755,998
406,33309404,1,-0.004226845,0.007739619,-0.002286031,-0.3953493,-0.1248961,-9.761081000000001,0,0,41.37529,1,1,755,998
521,33334855,1,-0.004628555,0.002254855,0.003079588,-0.450282,-0.1778354,-9.847568000000001,0,0,41.37626,1,1,755,998
552,33337667,1,-0.005898794,0.002010435,0.002963765,-0.4572645,-0.2037831,-9.819827999999999,0,0,41.37626,1,1,755,998
632,33358133,1,0.002541061,0.0013778,0.002102974,-0.4921028,-0.1531921,-9.620092,0,0,41.37723,1,1,755,998
748,33384900,1,0.003581391,0.005710373,0.003593629,-0.505394,-0.1023066,-9.643687999999999,0,0,41.37805,1,1,755,998
863,33405910,1,-0.005750894,-0.000550209,-0.01293025,-0.4670881,-0.1957813,-9.610721,0,0,41.3788,1,1,755,998
979,33436545,1,-4.138783e-05,8.996719e-05,0.003305553,-0.4860337,-0.1087518,-9.636274999999999,0,0,41.37982,1,1,755,998
1010,33439609,1,-0.001192342,0.002008818,0.0008387675,-0.4748436,-0.1178898,-9.589883,0,0,41.37982,1,1,755,998
1090,33476225,1,0.001526719,0.01048385,0.001854662,-0.452309,-0.1881908,-9.625011000000001,0,0,41.38091,1,1,755,998
1205,33569561,1,0.004623181,0.0006090266,0.0008601427,-0.4256979,-0.2340672,-9.683234000000001,0,0,41.38383,1,1,755,998
1297,33614185,1,-0.004434654,0.001065145,-0.003510966,-0.4519477,-0.110805,-9.564829,0,0,41.3852,1,1,755,998
1328,33617187,1,0.002116475,0.001035685,-0.001236463,-0.4769868,-0.1298962,-9.646927,0,0,41.38554,1,1,755,998
1389,33633490,1,0.001357996,0.0009841559000000001,0.0004158201,-0.5064949,-0.1477582,-9.778476,0,0,41.38587,1,1,755,998
1482,33648343,1,0.000836061,0.002468474,-0.001876648,-0.5001451,-0.14384,-9.750259,0,0,41.3862,1,1,755,998
1567,33653495,1,-0.001643365,0.003354226,-0.004053243,-0.4398353,-0.1137019,-9.803789999999999,0,0,41.38652,1,1,755,998
1571,33660692,1,0.002304694,0.002022379,-0.002969777,-0.4029822,-0.0913064,-9.808555,0,0,41.38685,1,1,755,998
1605,33663202,1,0.003762181,0.001064212,-0.003081476,-0.3849737,-0.1022056,-9.812466000000001,0,0,41.38685,1,1,755,998
1608,33666092,1,0.004767694,0.001345097,-0.002549743,-0.3740299,-0.1040494,-9.799922,0,0,41.38685,1,1,755,998
1612,33668580,1,0.004826542,0.002101142,-0.001280055,-0.3686167,-0.09890728,-9.782208000000001,0,0,41.38685,1,1,755,998
1617,33670677,1,0.006641102,0.0003445062,0.0002447514,-0.3686753,-0.0966045,-9.766138,0,0,41.38685,1,1,755,998
1648,33673388,1,0.007891329000000001,-0.002176037,0.002430072,-0.3622953,-0.1039858,-9.741719,0,0,41.3872,1,1,755,998
1651,33675790,1,0.008669948,-0.001894918,0.005532041,-0.3564986,-0.1170583,-9.731984000000001,0,0,41.3872,1,1,755,998
1655,33679635,1,0.007208063,-0.001953512,0.005507424,-0.3438591,-0.1411517,-9.696064,0,0,41.3872,1,1,755,998
1658,33682560,1,0.006128243,-0.001957836,0.003327461,-0.351119,-0.1638592,-9.662808999999999,0,0,41.3872,1,1,755,998
1661,33684093,1,0.002906592,-0.001404977,0.0007929362,-0.3525517,-0.1604977,-9.654139000000001,0,0,41.38757,1,1,755,998
1692,33686552,1,6.459695e-05,0.0006015041,-0.003068611,-0.3655508,-0.1438292,-9.683987,0,0,41.38757,1,1,755,998
1695,33690092,1,-0.0003281056,0.001064321,-0.003254066,-0.3794582,-0.1374344,-9.700324,0,0,41.38757,1,1,755,998
1698,33691828,1,0.001035949,0.001285448,-0.001266312,-0.3833503,-0.1351209,-9.702527999999999,0,0,41.38757,1,1,755,998
1701,33694775,1,0.004524144,0.0003621038,0.002417278,-0.3758728,-0.1324083,-9.700027,0,0,41.38796,1,1,755,998
1732,33697134,1,0.003767033,-0.001029031,0.006360803,-0.3610403,-0.1338965,-9.712757999999999,0,0,41.38796,1,1,755,998
1736,33700395,1,-0.001397815,-0.0008287841,0.008677359000000001,-0.3553684,-0.1509972,-9.720734,0,0,41.38796,1,1,755,998
1739,33702312,1,-0.003167439,0.0006389864000000001,0.00766571,-0.3546557,-0.189924,-9.708399999999999,0,0,41.38796,1,1,755,998
1742,33704868,1,-0.00267478,0.001800468,0.006272323,-0.3601362,-0.2214178,-9.689551,0,0,41.38837,1,1,755,998
1773,33707622,1,-0.002736149,0.005374219,0.001526,-0.3660682,-0.2569648,-9.66025,0,0,41.38837,1,1,755,998
1776,33709795,1,-0.003121778,0.005760491,9.081157999999999e-05,-0.3619198,-0.2708134,-9.640399,0,0,41.38837,1,1,755,998
1779,33712606,1,-0.005767811,0.007505919,-0.001681464,-0.35723,-0.2847376,-9.627817,0,0,41.38837,1,1,755,998
1782,33714889,1,-0.007054484,0.008690882,-0.001742721,-0.3636155,-0.2829218,-9.62716,0,0,41.38837,1,1,755,998
1813,33717202,1,-0.0081326,0.009182523999999999,-0.001415648,-0.394641,-0.2722761,-9.644587,0,0,41.38879,1,1,755,998
1817,33719728,1,-0.006369039,0.00712865,0.0008631818,-0.4222401,-0.2621416,-9.674752,0,0,41.38879,1,1,755,998
1824,33722816,1,-0.003119524,0.005083431,0.001355296,-0.4490602,-0.2422646,-9.719670000000001,0,0,41.38879,1,1,755,998
1829,33725834,1,-0.002452117,0.003973165,-0.001699473,-0.4553525,-0.231426,-9.725158,0,0,41.38879,1,1,755,998
1860,33728784,1,-0.0009532163,-0.0007632048999999999,-0.0004004903,-0.4937149,-0.2236316,-9.722693,0,0,41.38924,1,1,755,998
1863,33730684,1,-0.002816038,-0.002859245,0.002056776,-0.5235932,-0.230671,-9.698947,0,0,41.38924,1,1,755,998
1866,33733210,1,-0.004471072,-0.002931427,0.002422343,-0.5332233,-0.2324015,-9.675205,0,0,41.38924,1,1,755,998
1869,33736125,1,-0.005293272,-0.00133859,0.0009483051,-0.5324612,-0.2247759,-9.651861999999999,0,0,41.38924,1,1,755,998
1900,33738613,1,-0.003648821,0.002861033,-0.0003044202,-0.5135485,-0.2052175,-9.631746,0,0,41.3897,1,1,755,998
1904,33741152,1,-0.003857019,0.003606906,-0.001574833,-0.4862511,-0.1840436,-9.637634,0,0,41.3897,1,1,755,998
1907,33743892,1,-0.001881085,0.002798894,-0.004171349,-0.4635295,-0.1730089,-9.647497,0,0,41.3897,1,1,755,998
1910,33746497,1,9.607755999999999e-05,0.003560134,-0.004748011,-0.4271679,-0.1538221,-9.681315,0,0,41.3897,1,1,755,998
1941,33749116,1,-0.002477389,0.002024989,-0.00385883,-0.4047842,-0.1325005,-9.704931999999999,0,0,41.39018,1,1,755,998
1944,33751801,1,-0.005136703,0.0003794656,-0.002147349,-0.4040179,-0.1266672,-9.724918000000001,0,0,41.39018,1,1,755,998
1948,33753598,1,-0.005272976,0.0005005682999999999,-0.0007649442,-0.4075764,-0.1231928,-9.740465,0,0,41.39018,1,1,755,998
1951,33755900,1,-0.001450413,0.002788964,-0.00161195,-0.4056549,-0.1150413,-9.759198,0,0,41.39018,1,1,755,998
1982,33758356,1,-0.0007096715,0.003906699,-0.003503419,-0.4049909,-0.109009,-9.759131999999999,0,0,41.39018,1,1,755,998
1986,33764650,1,-0.001228698,0.001011686,-0.004321356,-0.3949867,-0.1011754,-9.738706000000001,0,0,41.39067,1,1,755,998
1989,33766844,1,-0.002201475,-0.001141819,-0.003619849,-0.3910241,-0.1031886,-9.735106,0,0,41.39067,1,1,755,998
2020,33769084,1,-0.005159356,-0.003734781,-0.007020431,-0.3978262,-0.1171429,-9.732783,0,0,41.39067,1,1,755,998
2024,33772094,1,-0.007103176,-0.003439453,-0.008762667999999999,-0.409583,-0.1318728,-9.730828000000001,0,0,41.39118,1,1,755,998
2027,33774200,1,-0.008291425,-0.002145825,-0.009401121,-0.4342415,-0.1569093,-9.716742,0,0,41.39118,1,1,755,998
2030,33776920,1,-0.006145459,-0.003371186,-0.005070761,-0.4548696,-0.1690356,-9.700846,0,0,41.39118,1,1,755,998
2061,33779903,1,-0.001926199,-0.004619896,-0.001393694,-0.4674441,-0.1646978,-9.704015999999999,0,0,41.39118,1,1,755,998
2064,33781579,1,0.001283779,-0.003690228,-0.0008408952,-0.4661722,-0.1506798,-9.711615999999999,0,0,41.39171,1,1,755,998
2067,33784690,1,0.002528324,-0.003607791,-0.001030129,-0.4644844,-0.1258602,-9.731686,0,0,41.39171,1,1,755,998
2070,33786662,1,0.002967519,-0.003495176,-0.00094904,-0.4679236,-0.1042679,-9.739136,0,0,41.39171,1,1,755,998
2101,33789346,1,0.002382421,0.001254377,-0.0008568295,-0.4727816,-0.07095256,-9.732684000000001,0,0,41.39171,1,1,755,998
2105,33793128,1,0.001545444,0.003066364,0.0003832636,-0.4729859,-0.05664497,-9.729304000000001,0,0,41.39171,1,1,755,998
2108,33795056,1,0.001115494,0.003185771,0.003036187,-0.4770688,-0.04798488,-9.713319,0,0,41.39224,1,1,755,998
2111,33797208,1,0.00166461,0.00286114,0.003885409,-0.465625,-0.04487244,-9.710051,0,0,41.39224,1,1,755,998
2142,33799538,1,0.001927078,0.002702898,0.005094854,-0.4570601,-0.04477056,-9.706272,0,0,41.39224,1,1,755,998
2145,33802115,1,0.001840062,0.001813882,0.006892474,-0.459799,-0.07826602000000001,-9.706868999999999,0,0,41.39224,1,1,755,998
2149,33805099,1,0.001082231,0.001844228,0.005954457,-0.4674254,-0.1001982,-9.702434999999999,0,0,41.39274,1,1,755,998
2152,33807579,1,-0.0005672679,-0.0004721204,0.004362017,-0.4920177,-0.09837151,-9.702748,0,0,41.39274,1,1,755,998
2183,33810095,1,7.30467e-05,-0.002994619,-0.0002349863,-0.5009806,-0.08021598000000001,-9.712173999999999,0,0,41.39274,1,1,755,998
2187,33812652,1,0.0006424282,-0.002327641,-0.0009434254,-0.5052720000000001,-0.07338404,-9.715132000000001,0,0,41.39274,1,1,755,998
2190,33815146,1,0.0003598348,-0.0009930170999999999,-0.001315708,-0.5066971,-0.08197396,-9.708504,0,0,41.39319,1,1,755,998
2193,33817663,1,0.002645642,-0.00155378,-0.001785633,-0.4999393,-0.09795668,-9.704216000000001,0,0,41.39319,1,1,755,998
2224,33820663,1,0.006708612,-0.0006735449,-0.001464446,-0.4872325,-0.1160973,-9.685034999999999,0,0,41.39319,1,1,755,998
2227,33822793,1,0.007905629000000001,0.00028126,0.001619186,-0.4760453,-0.1126235,-9.691901,0,0,41.39319,1,1,755,998
2234,33825357,1,0.004433033,0.001847921,0.004695859,-0.4624565,-0.1011834,-9.703709999999999,0,0,41.3936,1,1,755,998
2237,33827629,1,0.002649835,0.00218913,0.005347947,-0.4483187,-0.1000758,-9.700004,0,0,41.3936,1,1,755,998
2268,33830647,1,-0.0006205803,-0.002035753,0.005912903,-0.4304607,-0.1112205,-9.696407000000001,0,0,41.3936,1,1,755,998
2272,33832900,1,-0.001502249,-0.003459989,0.005790052,-0.4274134,-0.1236175,-9.692824,0,0,41.3936,1,1,755,998
2275,33835694,1,-0.001674176,-0.004050369,0.003824152,-0.4398097,-0.1466987,-9.681936,0,0,41.3936,1,1,755,998
2278,33837598,1,0.0009449235,-0.001215517,0.0006216054,-0.4521277,-0.1501777,-9.675461,0,0,41.39397,1,1,755,998
2309,33840022,1,0.002962986,0.002080514,-0.001848827,-0.4584177,-0.1379148,-9.681803,0,0,41.39397,1,1,755,998
2316,33842915,1,0.004288427,0.004678256,-0.003509243,-0.459262,-0.1325406,-9.685157,0,0,41.39397,1,1,755,998
2319,33845370,1,0.003935782,0.005045856,-0.002370422,-0.4562141,-0.1322929,-9.677555999999999,0,0,41.39397,1,1,755,998
2323,33847380,1,0.002585649,0.002610399,0.0002333596,-0.4622412,-0.1363814,-9.670629999999999,0,0,41.39431,1,1,755,998
2354,33850212,1,-0.0004719802,0.002687431,0.0008732836,-0.4726642,-0.1399617,-9.658993000000001,0,0,41.39431,1,1,755,998
2357,33852333,1,-0.001738324,0.003108843,7.431883000000001e-05,-0.4774899,-0.1312854,-9.65127,0,0,41.39431,1,1,755,998
2360,33855171,1,-0.002002932,0.00720555,-0.005661782,-0.4897264,-0.1246516,-9.626063,0,0,41.39431,1,1,755,998
2363,33858845,1,-0.001193149,0.008428819000000001,-0.00703754,-0.4966791,-0.1159975,-9.620091,0,0,41.39431,1,1,755,998
2366,33860873,1,-0.0003952853,0.009518567,-0.00634607,-0.5090479999999999,-0.09459919,-9.628078,0,0,41.3946,1,1,755,998
2398,33863185,1,-0.0001040696,0.008224429,-0.001459048,-0.5114862,-0.07168679999999999,-9.625372,0,0,41.3946,1,1,755,998
2401,33865888,1,0.001213376,0.006159658,0.001635318,-0.5097598,-0.05792588,-9.621782,0,0,41.3946,1,1,755,998
2404,33869278,1,0.001684305,0.005602592,0.002788841,-0.5099074,-0.06013524,-9.613293000000001,0,0,41.3946,1,1,755,998
2407,33872155,1,0.002182606,0.005085988,0.001459992,-0.5066039,-0.07239221999999999,-9.607021,0,0,41.39486,1,1,755,998
2438,33874506,1,-0.001062172,0.003691226,-0.002769456,-0.4879411,-0.1062605,-9.611534000000001,0,0,41.39486,1,1,755,998
2442,33877287,1,-0.004283666,0.004050481,-0.004970815,-0.4838969,-0.1313214,-9.626087999999999,0,0,41.39486,1,1,755,998
2445,33880285,1,-0.004997205,0.0006451598999999999,-0.001466512,-0.4824242,-0.1407166,-9.647482,0,0,41.39486,1,1,755,998
2448,33882205,1,-0.004831509,-0.005341969,0.002733422,-0.483174,-0.1483696,-9.693503,0,0,41.39508,1,1,755,998
2479,33885566,1,-0.004322003,-0.006052385,0.00187406,-0.4814486,-0.1526074,-9.716168,0,0,41.39508,1,1,755,998
2482,33887081,1,-0.003084821,-0.002670142,-0.001853298,-0.4792798,-0.1575897,-9.713441,0,0,41.39508,1,1,755,998
2485,33890282,1,-0.002140337,-0.0001894941,-0.003984609,-0.4829907,-0.1702073,-9.711747000000001,0,0,41.39508,1,1,755,998
2488,33891833,1,0.0004251595,0.00447697,-0.008373547,-0.4935353,-0.1840543,-9.697884999999999,0,0,41.39531,1,1,755,998
2519,33894792,1,0.0006844436,0.00559569,-0.009151166000000001,-0.4929702,-0.1829364,-9.682893,0,0,41.39531,1,1,755,998
2525,33897101,1,-3.566677e-05,0.006247396,-0.007396283,-0.4894947,-0.1873243,-9.658488999999999,0,0,41.39531,1,1,755,998
2528,33899843,1,-0.001019223,0.002808016,-0.003879346,-0.4952894,-0.1843887,-9.638838,0,0,41.39531,1,1,755,998
2531,33902637,1,-0.0013169,0.001691778,-0.003217108,-0.5036838,-0.1626855,-9.623391,0,0,41.39553,1,1,755,998
2562,33905497,1,-0.0006462185,0.004641494,-0.00341304,-0.5001910000000001,-0.1522388,-9.643322,0,0,41.39553,1,1,755,998
2565,33907581,1,0.0003650755,0.003514984,-0.00219012,-0.5028909,-0.1449942,-9.654351,0,0,41.39553,1,1,755,998
2568,33910240,1,-0.0004855824,0.001886086,0.001397201,-0.5099631999999999,-0.1277403,-9.667787000000001,0,0,41.39553,1,1,755,998
2571,33912343,1,-0.001406863,0.001648764,0.004044676,-0.51117,-0.1214105,-9.672836,0,0,41.39553,1,1,755,998
2602,33915662,1,-0.001646259,0.0009973642,0.003558021,-0.5198328,-0.1042736,-9.673451999999999,0,0,41.39575,1,1,755,998
2606,33917868,1,0.0006050093,0.002070631,0.003242717,-0.5288531,-0.09203689,-9.663936,0,0,41.39575,1,1,755,998
2609,33920272,1,0.001676822,0.003401229,0.002998707,-0.5240624,-0.08632636,-9.660309,0,0,41.39575,1,1,755,998
2612,33922634,1,0.00138259,0.004669222,0.002416247,-0.5093014,-0.09185603000000001,-9.676681,0,0,41.39575,1,1,755,998
2643,33925095,1,-0.0004924122,0.007022042,0.0004948056,-0.4865639,-0.1104343,-9.7159,0,0,41.39596,1,1,755,998
2650,33928533,1,-0.004135909,0.005803485,-0.002600764,-0.4811894,-0.11987,-9.737569000000001,0,0,41.39596,1,1,755,998
2655,33930635,1,-0.00646433,0.004349968,-0.0066954,-0.4734587,-0.1381051,-9.758058,0,0,41.39596,1,1,755,998
2658,33932547,1,-0.003697976,0.002907399,-0.00573292,-0.4683471,-0.1402486,-9.758827,0,0,41.39596,1,1,755,998
2689,33935789,1,0.00113352,0.0004751105,-0.001794143,-0.4690564,-0.1423973,-9.741158,0,0,41.39618,1,1,755,998
2692,33937849,1,0.004423639,0.0006318857999999999,0.001681419,-0.4626807,-0.144036,-9.722744,0,0,41.39618,1,1,755,998
2695,33940223,1,0.00394579,0.001439081,0.002544226,-0.4387658,-0.1407284,-9.691361000000001,0,0,41.39618,1,1,755,998
2698,33943143,1,0.003050328,0.001936974,0.002723751,-0.4257387,-0.1417918,-9.662646000000001,0,0,41.39618,1,1,755,998
2729,33945755,1,0.001985332,0.002551146,0.002432559,-0.4280111,-0.1658626,-9.607588,0,0,41.39618,1,1,755,998
2733,33948118,1,0.00250972,0.001376254,-0.0001252629,-0.4498544,-0.1931843,-9.548788999999999,0,0,41.39643,1,1,755,998
2736,33950761,1,0.001807834,0.00111967,-0.0004973856,-0.4659193,-0.1975956,-9.531741999999999,0,0,41.39643,1,1,755,998
2739,33953479,1,-0.001226644,-0.0008013358,-9.883759e-05,-0.486047,-0.1902106,-9.515428999999999,0,0,41.39643,1,1,755,998
2770,33956180,1,-7.562567e-05,-0.001023545,-0.001059651,-0.4834557,-0.1830861,-9.516928999999999,0,0,41.39643,1,1,755,998
2774,33958541,1,0.0003037925,-0.0012911,-0.001702721,-0.4797597,-0.1823364,-9.521430000000001,0,0,41.39669,1,1,755,998
2777,33960801,1,0.001546037,0.002217617,-0.001898492,-0.4714542,-0.1699422,-9.524476999999999,0,0,41.39669,1,1,755,998
2780,33963321,1,0.001656256,0.004611111,0.0008421657,-0.4657422,-0.1611772,-9.527051,0,0,41.39669,1,1,755,998
2811,33966904,1,-0.001024697,0.004231992,0.003747675,-0.4655398,-0.1657616,-9.513726,0,0,41.39669,1,1,755,998
2815,33969178,1,-0.0009464988,0.002213391,0.002362752,-0.471888,-0.1701351,-9.503363,0,0,41.39697,1,1,755,998
2818,33971191,1,0.0001538975,-0.001523625,-0.000453271,-0.4817384,-0.167169,-9.495279,0,0,41.39697,1,1,755,998
2821,33973287,1,-0.0003244384,-0.001504496,-0.002187619,-0.484211,-0.1646821,-9.500844000000001,0,0,41.39697,1,1,755,998
2852,33975856,1,1.299463e-05,0.001774632,-0.001822445,-0.4946402,-0.1499533,-9.525397999999999,0,0,41.39697,1,1,755,998
2855,33979273,1,0.001991548,0.004912911,0.0001929539,-0.5084807,-0.1385795,-9.544782,0,0,41.39697,1,1,755,998
2858,33981336,1,0.004733437,0.006649334,0.002384861,-0.5277018999999999,-0.1198717,-9.568521,0,0,41.39726,1,1,755,998
2861,33983532,1,0.005653619,0.007177108,0.002692729,-0.5307883,-0.1183345,-9.569623,0,0,41.39726,1,1,755,998
2892,33985839,1,0.003758028,0.005432511,0.003675219,-0.5261323999999999,-0.1426021,-9.557147000000001,0,0,41.39726,1,1,755,998
2896,33988497,1,0.001605631,0.004855743,0.003635848,-0.5209825,-0.1562506,-9.560468,0,0,41.39726,1,1,755,998
2899,33991771,1,-0.0001314598,0.004963559,0.0009884347999999999,-0.5111343,-0.1637326,-9.576217,0,0,41.39755,1,1,755,998
2902,33996113,1,0.003841859,0.006444815,-0.002889722,-0.5154334,-0.1847836,-9.65226,0,0,41.39755,1,1,755,998
2933,33998601,1,0.00321444,0.005783897,-0.002073626,-0.5285721,-0.1996813,-9.70383,0,0,41.39755,1,1,755,998
2936,34001183,1,0.001883976,0.005848511,-0.001448875,-0.5257227,-0.2003016,-9.729730999999999,0,0,41.39783,1,1,755,998
2939,34004304,1,0.0006520607,0.007725831,0.0004737609,-0.5165458000000001,-0.2028414,-9.752915,0,0,41.39783,1,1,755,998
2944,34006634,1,0.0008605733,0.007648588,0.003353924,-0.515807,-0.1994145,-9.752393,0,0,41.39783,1,1,755,998
2976,34008884,1,-0.0009140929,0.005912683,0.00687065,-0.512453,-0.1940029,-9.751117000000001,0,0,41.39783,1,1,755,998
2979,34011352,1,-0.002476684,0.004947547,0.008064919,-0.5029274,-0.1906215,-9.746479000000001,0,0,41.39783,1,1,755,998
2982,34013907,1,-0.005746248,0.002957981,0.007544558,-0.4742297,-0.1902874,-9.712552000000001,0,0,41.39813,1,1,755,998
2985,34016874,1,-0.004871948,0.002641524,0.006392994,-0.4528834,-0.193391,-9.682506999999999,0,0,41.39813,1,1,755,998
3016,34019629,1,-0.001715443,0.002192831,0.002749209,-0.437007,-0.2114533,-9.667555999999999,0,0,41.39813,1,1,755,998
3020,34021881,1,-0.001211037,0.002192463,0.0008052114,-0.4378018,-0.2298516,-9.650833,0,0,41.39813,1,1,755,998
3023,34024237,1,-0.001279193,0.001573218,-0.0004610937,-0.4437219,-0.2316845,-9.646597,0,0,41.39845,1,1,755,998
3026,34027103,1,-0.00187271,0.001305311,-0.0002682575,-0.4663995,-0.2239309,-9.643027999999999,0,0,41.39845,1,1,755,998
3061,34029927,1,-0.002431111,0.001491079,0.0008033197,-0.488005,-0.2129885,-9.641652000000001,0,0,41.39845,1,1,755,998
3064,34032567,1,-0.003056866,-0.0006513451,0.002540989,-0.5008653,-0.185328,-9.640743000000001,0,0,41.39845,1,1,755,998
3067,34034256,1,-0.004629254,-0.004687374,-0.0006112797,-0.5022351,-0.1674566,-9.646459,0,0,41.39878,1,1,755,998
3070,34037111,1,-0.004750564,-0.005721534,-0.001932754,-0.5000743,-0.1377226,-9.669495,0,0,41.39878,1,1,755,998
3101,34040253,1,-0.003097946,-0.002903298,-0.001960471,-0.4889459,-0.1207026,-9.675513,0,0,41.39878,1,1,755,998
3105,34042504,1,-0.001019398,0.001401367,-0.003378937,-0.4760052,-0.1143309,-9.654256,0,0,41.39878,1,1,755,998
3108,34044567,1,-0.0005527081,0.003290989,-0.00427288,-0.4717464,-0.1202137,-9.639281,0,0,41.39878,1,1,755,998
3111,34046699,1,-0.002483136,0.005289454,-0.001398562,-0.4747625,-0.1397022,-9.629799,0,0,41.39915,1,1,755,998
3142,34049348,1,-0.003601307,0.00517,1.042578e-05,-0.4836891,-0.1569987,-9.633070999999999,0,0,41.39915,1,1,755,998
3145,34052200,1,-0.005580114,0.004368376,0.003203687,-0.4976794,-0.183792,-9.64761,0,0,41.39915,1,1,755,998
3148,34054795,1,-0.004880819,0.002242401,0.005274691,-0.4991065,-0.1913201,-9.662647,0,0,41.39915,1,1,755,998
3151,34056915,1,-0.002589689,-0.0004869087,0.003541581,-0.4840726,-0.1836073,-9.682719000000001,0,0,41.39952,1,1,755,998
3184,34059649,1,-0.001155588,-0.005562435,-9.269909999999999e-05,-0.4733871,-0.1763587,-9.691183000000001,0,0,41.39952,1,1,755,998
3188,34061841,1,-0.00198455,-0.008096809,-0.001478215,-0.4534864,-0.1730271,-9.690867000000001,0,0,41.39952,1,1,755,998
3191,34065623,1,-0.002896744,-0.006188314,-0.0005439965,-0.4422327,-0.1716343,-9.700725,0,0,41.39952,1,1,755,998
3194,34068382,1,-0.001434463,-0.002483912,0.002402069,-0.4393209,-0.1821348,-9.713265,0,0,41.39991,1,1,755,998
3197,34070006,1,-0.00166301,0.003017128,0.00578994,-0.4384587,-0.2005333,-9.716143000000001,0,0,41.39991,1,1,755,998
3228,34072554,1,-0.002208836,0.005854059,0.007889527,-0.4258907,-0.1904654,-9.718106000000001,0,0,41.39991,1,1,755,998
3231,34075731,1,-0.002180001,0.005293354,0.008180747,-0.3985363,-0.1569719,-9.724095999999999,0,0,41.39991,1,1,755,998
3234,34077363,1,-0.001903777,0.004112486,0.008338026,-0.3889065,-0.133487,-9.718636999999999,0,0,41.39991,1,1,755,998
3237,34080321,1,-0.0007320968,-0.0005069209,0.008021653,-0.3962821,-0.1130337,-9.690538,0,0,41.40031,1,1,755,998
3268,34082904,1,0.001614468,-0.001898731,0.007937204999999999,-0.4081007,-0.09120652,-9.668132,0,0,41.40031,1,1,755,998
3273,34085553,1,0.002468096,-0.002046009,0.006747833,-0.4252698,-0.08213263,-9.654253000000001,0,0,41.40031,1,1,755,998
3276,34088125,1,0.002509082,0.002771893,0.000940957,-0.4659459,-0.07574394,-9.657731999999999,0,0,41.40031,1,1,755,998
3279,34090605,1,0.002378645,0.005171943,0.0006561035,-0.4985121,-0.08420508,-9.671685999999999,0,0,41.40073,1,1,755,998
3313,34093728,1,0.00226166,0.007527696,0.001070706,-0.5451459,-0.09741075,-9.677643,0,0,41.40073,1,1,755,998
3317,34095522,1,0.001521192,0.007850698,0.001836962,-0.5647858,-0.09101484999999999,-9.672333999999999,0,0,41.40073,1,1,755,998
3320,34097787,1,-0.001541166,0.006860106,0.002768512,-0.570168,-0.08919133,-9.650998,0,0,41.40073,1,1,755,998
3324,34100834,1,-0.00501082,0.005974442,0.0009641553,-0.566066,-0.09770215,-9.645701000000001,0,0,41.40117,1,1,755,998
3355,34103668,1,-0.005219577,0.005487331,-0.001243173,-0.5429742,-0.1258831,-9.668089,0,0,41.40117,1,1,755,998
3358,34105844,1,-0.003030118,0.005417229,-0.001131827,-0.5241957,-0.1487281,-9.685575,0,0,41.40117,1,1,755,998
3361,34108327,1,0.0002455035,0.0055974,-0.001361255,-0.5044805,-0.1896644,-9.701765999999999,0,0,41.40117,1,1,755,998
3364,34111203,1,0.000861992,0.00525721,-0.001612495,-0.4902816,-0.2117129,-9.700473000000001,0,0,41.40117,1,1,755,998
3395,34113474,1,-0.0007481929,0.004277532,-0.002906527,-0.4916117,-0.2312137,-9.692254,0,0,41.40163,1,1,755,998
3399,34116628,1,-0.0003346066,0.004120799,-0.003962091,-0.5114811,-0.2404771,-9.678727,0,0,41.40163,1,1,755,998
3402,34118813,1,0.0004892905,0.003981431,-0.003897686,-0.5253342,-0.2295374,-9.680932,0,0,41.40163,1,1,755,998
3405,34121332,1,0.0009453411,0.006644253,-0.001174738,-0.538794,-0.1967754,-9.713957000000001,0,0,41.40163,1,1,755,998
3436,34124196,1,0.0005406897,0.007106433,-0.002201825,-0.5471659,-0.1692918,-9.765746999999999,0,0,41.40211,1,1,755,998
3439,34126247,1,0.0002748817,0.006534277,-0.002215728,-0.5528785000000001,-0.1560938,-9.797376999999999,0,0,41.40211,1,1,755,998
3442,34128774,1,-0.0009880862000000001,0.00509067,0.0008698726,-0.558131,-0.1478296,-9.826302999999999,0,0,41.40211,1,1,755,998
3449,34131689,1,-0.003982188,0.00501943,0.004572574,-0.5492892,-0.1357156,-9.815828,0,0,41.40211,1,1,755,998
3482,34134815,1,-0.006047008,0.005447423,0.00571781,-0.5360093,-0.1191321,-9.785425999999999,0,0,41.40259,1,1,755,998
3486,34137214,1,-0.005849341,0.005028632,0.005338298,-0.5226218,-0.1057388,-9.765110999999999,0,0,41.40259,1,1,755,998
3489,34139150,1,-0.003687127,0.004646657,0.003415807,-0.5015083,-0.08824447000000001,-9.718824,0,0,41.40259,1,1,755,998
3493,34141624,1,-0.0006920195000000001,0.007107542,-0.0001109828,-0.4982039,-0.07633966,-9.680533,0,0,41.40259,1,1,755,998
3524,34144314,1,0.001529877,0.005829006,0.000115219,-0.5001734,-0.05568955,-9.652810000000001,0,0,41.40306,1,1,755,998
3529,34147506,1,0.003077816,0.002068121,0.000287811,-0.4991138,-0.03728905,-9.655670000000001,0,0,41.40306,1,1,755,998
3532,34149526,1,0.003539098,0.0005317729,-0.0001243851,-0.5037764,-0.02098706,-9.673576000000001,0,0,41.40306,1,1,755,998
3535,34151858,1,0.00220513,-0.0004631087,-0.0003648249,-0.5068677,-0.01795393,-9.69045,0,0,41.40306,1,1,755,998
3566,34154099,1,-0.003099777,-0.001450541,-0.002983056,-0.5100478000000001,-0.02195603,-9.699175,0,0,41.40306,1,1,755,998
3569,34156861,1,-0.003413334,-0.0007194683,-0.003678625,-0.5051290000000001,-0.02369848,-9.680897999999999,0,0,41.40351,1,1,755,998
3572,34159609,1,-0.003051505,0.003445702,-0.00409954,-0.4985951,-0.0336979,-9.647798,0,0,41.40351,1,1,755,998
3575,34161915,1,-0.002095406,0.007257901,-0.003582291,-0.5024812,-0.02830571,-9.640095000000001,0,0,41.40351,1,1,755,998
3606,34164170,1,0.0001272245,0.009416330000000001,-0.000962806,-0.5215392,-0.01714307,-9.652865,0,0,41.40351,1,1,755,998
3610,34166600,1,0.001293242,0.009161613000000001,0.001136387,-0.5258707,-0.01465304,-9.668030999999999,0,0,41.40395,1,1,755,998
3613,34170550,1,0.00251884,0.008674071,0.001297149,-0.5239719,-0.02675704,-9.68507,0,0,41.40395,1,1,755,998
3616,34171694,1,0.003277662,0.008209144999999999,-0.002486936,-0.5144054,-0.05183367,-9.695194000000001,0,0,41.40395,1,1,755,998
3647,34177594,1,-0.002899026,0.003183517,-0.002992559,-0.4891645,-0.09389342000000001,-9.708551,0,0,41.40437,1,1,755,998
3650,34180768,1,-0.002993706,0.002803578,-0.0003574074,-0.4686059,-0.1079513,-9.703034000000001,0,0,41.40437,1,1,755,998
3653,34182142,1,-0.003152272,0.003575249,0.0009839365999999999,-0.45274,-0.1087469,-9.720872,0,0,41.40437,1,1,755,998
3684,34185286,1,-0.00256654,0.002473552,0.0009525393,-0.4263946,-0.1178252,-9.747458,0,0,41.40437,1,1,755,998
3687,34187423,1,-0.0003413841,0.002848966,0.003506231,-0.4083667,-0.1271804,-9.759073000000001,0,0,41.40437,1,1,755,998
3691,34189807,1,0.001111492,0.0008310623,0.007271221,-0.3997471,-0.1395885,-9.782147999999999,0,0,41.40477,1,1,755,998
3694,34192775,1,0.001190222,-0.0005850578,0.007914266,-0.4058692,-0.1381201,-9.799128,0,0,41.40477,1,1,755,998
3725,34195248,1,0.001412974,-0.0009410626,0.004631652,-0.4133605,-0.134658,-9.775575,0,0,41.40477,1,1,755,998
3728,34198176,1,0.0028291,-0.001198914,0.004417269,-0.4126509,-0.143939,-9.745875,0,0,41.40477,1,1,755,998
3732,34200282,1,0.002343694,-0.0007407803,0.00553847,-0.4096057,-0.184504,-9.719315999999999,0,0,41.40516,1,1,755,998
3735,34202806,1,-0.002009142,-0.0009515556,0.00609802,-0.4051667,-0.2054156,-9.723846999999999,0,0,41.40516,1,1,755,998
3766,34205119,1,-0.004940384,-0.004413476,0.006035247,-0.4136162,-0.204532,-9.738709999999999,0,0,41.40516,1,1,755,998
3770,34208020,1,-0.005921096,-0.004488514,0.00434047,-0.4252327,-0.1921205,-9.731386000000001,0,0,41.40516,1,1,755,998
3773,34210591,1,-0.007062975,-0.003657693,0.0005398643,-0.4254153,-0.163155,-9.719802,0,0,41.4055,1,1,755,998
3776,34212827,1,-0.007915106,-0.003217832,-0.001411779,-0.4250112,-0.1412063,-9.708475,0,0,41.4055,1,1,755,998
3807,34215587,1,-0.006212133,0.0007789556,-0.003396448,-0.4274511,-0.1152935,-9.695187000000001,0,0,41.4055,1,1,755,998
3810,34217777,1,-0.004451436,0.001958287,-0.002299543,-0.4321829,-0.1006217,-9.697238,0,0,41.4055,1,1,755,998
3814,34220681,1,-0.0008163191,0.003227079,0.0004174748,-0.4464953,-0.09346761000000001,-9.688777999999999,0,0,41.4055,1,1,755,998
3817,34223135,1,0.0001648918,0.002609822,0.000169991,-0.4536348,-0.08333831,-9.67656,0,0,41.4058,1,1,755,998
3848,34225537,1,-0.0006351052,0.0001007566,-0.002534656,-0.453808,-0.07032807000000001,-9.667246,0,0,41.4058,1,1,755,998
3851,34228603,1,-0.001092439,0.003065335,-0.002683561,-0.445359,-0.06884129,-9.693754999999999,0,0,41.4058,1,1,755,998
3854,34230845,1,-0.0004961755,0.004658097,-0.001001787,-0.4424334,-0.08186789,-9.712949,0,0,41.4058,1,1,755,998
3861,34233372,1,0.0004375222,0.005203675,0.002149152,-0.4364395,-0.1214398,-9.728683,0,0,41.40608,1,1,755,998
3892,34236203,1,-0.001609627,2.437119e-05,0.004021748,-0.4326086,-0.1588255,-9.748888000000001,0,0,41.40608,1,1,755,998
3895,34238575,1,-0.002333728,-0.0003648366,0.003199095,-0.4264504,-0.1742511,-9.74976,0,0,41.40608,1,1,755,998
3899,34241190,1,-0.002192005,-0.0006826751,0.002069693,-0.4155603,-0.2044655,-9.73831,0,0,41.40608,1,1,755,998
3902,34243877,1,-0.0006500316,-0.002215848,0.004118542,-0.4136863,-0.2237166,-9.744725000000001,0,0,41.40635,1,1,755,998
3933,34246613,1,0.0006014894,0.000742241,0.004524533,-0.4297046,-0.2323886,-9.770764,0,0,41.40635,1,1,755,998
3936,34249359,1,0.001493805,0.006783663,0.002802106,-0.4535442,-0.2208571,-9.792427,0,0,41.40635,1,1,755,998
3939,34251626,1,0.001499744,0.008468432,0.001135439,-0.4675085,-0.2045624,-9.796452,0,0,41.40635,1,1,755,998
3942,34254303,1,0.001729239,0.007399455,0.002040881,-0.4752271,-0.1741812,-9.777499000000001,0,0,41.4066,1,1,755,998
3973,34256809,1,-0.0001544237,0.004529345,0.002095488,-0.4710981,-0.1443729,-9.735695,0,0,41.4066,1,1,755,998
3977,34259544,1,-0.004748702,0.001123539,-0.001246557,-0.4730577,-0.1265847,-9.707819000000001,0,0,41.4066,1,1,755,998
3981,34262250,1,-0.005961789,-0.0005535637,-0.003230472,-0.4716791,-0.1201192,-9.690841000000001,0,0,41.4066,1,1,755,998
3984,34264599,1,-0.00319906,-0.0009110707,-0.0008752364,-0.4576954,-0.1460903,-9.674173,0,0,41.4066,1,1,755,998
4015,34268152,1,-0.0007742566,0.001079482,0.002431688,-0.4528885,-0.1898808,-9.650378999999999,0,0,41.40686,1,1,755,998
4018,34269796,1,-0.0009656293,0.004188306,0.003131568,-0.4586312,-0.2304772,-9.623037999999999,0,0,41.40686,1,1,755,998
4021,34272105,1,-0.003057234,0.007059428,0.0002398042,-0.4661776,-0.2457613,-9.615069999999999,0,0,41.40686,1,1,755,998
4024,34277329,1,-0.005855266,0.004565442,-0.002443358,-0.4872376,-0.2646118,-9.628043,0,0,41.40714,1,1,755,998
4055,34280799,1,-0.002305614,0.005256542,-0.004477783,-0.4898638,-0.2355024,-9.640458000000001,0,0,41.40714,1,1,755,998
4059,34282579,1,-0.0003592187,0.005917827,-0.005226421,-0.4842601,-0.2078189,-9.649374999999999,0,0,41.40714,1,1,755,998
4062,34284836,1,4.305361e-06,0.005035597,-0.004909432,-0.4688874,-0.1645304,-9.669504999999999,0,0,41.40714,1,1,755,998
4065,34287794,1,-0.001562286,0.003752623,-0.004631646,-0.4594874,-0.1317666,-9.678184999999999,0,0,41.40742,1,1,755,998
4096,34290674,1,-0.002372614,0.001899455,-0.002700438,-0.441195,-0.08039080999999999,-9.698076,0,0,41.40742,1,1,755,998
4100,34292867,1,-0.000526664,0.003077891,0.001344053,-0.4190337,-0.05162077,-9.712809999999999,0,0,41.40742,1,1,755,998
4103,34295110,1,0.0006093495,0.00660958,0.003166601,-0.3819811,-0.01324628,-9.732253,0,0,41.40742,1,1,755,998
4106,34297869,1,0.0005262319,0.008079777,0.001130984,-0.3610748,0.0004108324,-9.735903,0,0,41.40742,1,1,755,998
4137,34300496,1,-0.002441392,0.007032532,-0.001394686,-0.349347,-0.003185607,-9.73057,0,0,41.40771,1,1,755,998
4141,34303239,1,-0.004410707,0.004628189,-0.002055656,-0.3478277,-0.01275128,-9.718776,0,0,41.40771,1,1,755,998
4144,34305455,1,-0.003237136,0.004687484,-0.001862957,-0.3522545,-0.03628908,-9.718081,0,0,41.40771,1,1,755,998
4147,34308094,1,-0.0008041588,0.006383962,-0.001169361,-0.3561988,-0.07154734,-9.729232,0,0,41.40771,1,1,755,998
4178,34310802,1,0.0002190761,0.006749139,0.0001644021,-0.3541516,-0.09736794999999999,-9.751312,0,0,41.40801,1,1,755,998
4182,34313265,1,0.002655182,0.006538131,0.004001705,-0.3550544,-0.1100048,-9.76634,0,0,41.40801,1,1,755,998
4185,34316103,1,0.004079229,0.005959361,0.004059977,-0.3648768,-0.106438,-9.767961,0,0,41.40801,1,1,755,998
4188,34318292,1,0.006145533,0.001497222,0.005924705,-0.4036371,-0.09825610999999999,-9.769291000000001,0,0,41.40801,1,1,755,998
4221,34321558,1,0.004923203,-0.0007474593,0.007507605,-0.4497586,-0.1078179,-9.762268000000001,0,0,41.40834,1,1,755,998
4224,34323322,1,0.003118359,-0.0006889543,0.00749736,-0.4775546,-0.1160573,-9.774473,0,0,41.40834,1,1,755,998
4227,34325670,1,-0.003451001,0.001652839,0.006182676,-0.500339,-0.1152423,-9.788596,0,0,41.40834,1,1,755,998
4230,34328650,1,-0.008291626999999999,0.004689977,0.003181965,-0.5203385,-0.1163494,-9.795076,0,0,41.40834,1,1,755,998
4261,34330925,1,-0.007149333,0.005241904,0.0003129027,-0.5188642999999999,-0.1256776,-9.7845,0,0,41.40867,1,1,755,998
4265,34334167,1,-0.004088425,0.005634536,-0.001430829,-0.5153470999999999,-0.1274403,-9.765847000000001,0,0,41.40867,1,1,755,998
4272,34336637,1,-0.00135961,0.006815994,-0.002199629,-0.5010611,-0.1450349,-9.734080000000001,0,0,41.40867,1,1,755,998
4278,34338915,1,-0.0001749247,0.006411646,-0.004027365,-0.4866464,-0.1524847,-9.718944,0,0,41.40867,1,1,755,998
4309,34341536,1,-0.002069569,0.005290024,-0.005835124,-0.4727815,-0.1548201,-9.710089999999999,0,0,41.40867,1,1,755,998
4314,34344239,1,-0.003478045,0.003291941,-0.005784031,-0.4669417,-0.1652765,-9.680581999999999,0,0,41.40899,1,1,755,998
4317,34346864,1,-0.005477585,-0.0009823722999999999,-0.004056005,-0.4560534,-0.1656542,-9.680561000000001,0,0,41.40899,1,1,755,998
4320,34349159,1,-0.005264633,-0.006315251,-0.0004733186,-0.4416484,-0.15897,-9.697801,0,0,41.40899,1,1,755,998
4351,34351910,1,-0.002227985,-0.009916314000000001,-4.634996e-05,-0.4344285,-0.1607522,-9.711693,0,0,41.40899,1,1,755,998
4354,34354131,1,-0.0004055272,-0.008119349,-0.0003945361,-0.430524,-0.156686,-9.723933000000001,0,0,41.40928,1,1,755,998
4357,34356914,1,-0.001212943,-0.005439791,-0.0004661496,-0.4355373,-0.1468035,-9.727677999999999,0,0,41.40928,1,1,755,998
4360,34359574,1,-0.00828745,0.003136618,-0.002374325,-0.451838,-0.1284998,-9.736527000000001,0,0,41.40928,1,1,755,998
4391,34361810,1,-0.009566606,0.004345743,-0.002461578,-0.4674439,-0.1042542,-9.758658,0,0,41.40928,1,1,755,998
4395,34364892,1,-0.008593147000000001,0.004269681,-0.002226405,-0.4798779,-0.09361521,-9.779731999999999,0,0,41.40957,1,1,755,998
4398,34367094,1,-0.00608355,2.317987e-06,-0.003922032,-0.492591,-0.1014275,-9.800003999999999,0,0,41.40957,1,1,755,998
4401,34369577,1,-0.00561071,-0.002745851,-0.004826284,-0.5059589,-0.1039013,-9.794081,0,0,41.40957,1,1,755,998
4432,34372049,1,-0.005382747,-0.005632122,-0.006041104,-0.5223147,-0.1104498,-9.758768999999999,0,0,41.40957,1,1,755,998
4435,34375038,1,-0.004938447,-0.004946582,-0.004563816,-0.5258434,-0.1166419,-9.720663999999999,0,0,41.40957,1,1,755,998
4438,34379885,1,-0.002665857,-0.002064296,7.004823999999999e-05,-0.4991418,-0.1308841,-9.632539,0,0,41.40988,1,1,755,998
4469,34382478,1,0.0001484898,0.0001867794,0.001526307,-0.5025237,-0.1316364,-9.611489000000001,0,0,41.40988,1,1,755,998
4473,34387905,1,0.003515084,0.002436679,0.00184574,-0.4828102,-0.0879373,-9.603429999999999,0,0,41.4102,1,1,755,998
4476,34390458,1,0.002561058,0.002837064,0.0001080951,-0.4717589,-0.06561838,-9.625952,0,0,41.4102,1,1,755,998
4507,34392691,1,-5.261399e-06,0.002739818,-0.001545339,-0.4621829,-0.05007592,-9.663548,0,0,41.4102,1,1,755,998
4511,34395497,1,-0.001992889,0.001271424,-0.002389918,-0.4583017,-0.04693368,-9.691625999999999,0,0,41.4102,1,1,755,998
4514,34397819,1,-0.001758168,0.0008523326,-0.002751447,-0.4574309,-0.05143272,-9.716176000000001,0,0,41.41053,1,1,755,998
4517,34400879,1,0.001212671,0.003268505,-0.001471558,-0.4540572,-0.05613053,-9.732784000000001,0,0,41.41053,1,1,755,998
4548,34403855,1,0.002685899,0.004364065,0.002327462,-0.4520225,-0.05696066,-9.733891,0,0,41.41053,1,1,755,998
4552,34406151,1,0.003564785,0.004809482,0.004682678,-0.4468866,-0.06415203,-9.72982,0,0,41.41053,1,1,755,998
4556,34408492,1,0.005462423,0.004456277,0.00585084,-0.4403535,-0.08414859,-9.717281,0,0,41.41087,1,1,755,998
4559,34411451,1,0.003566694,0.004067451,0.0004758976,-0.4409447,-0.09792381999999999,-9.710919000000001,0,0,41.41087,1,1,755,998
4590,34414148,1,0.0004673193,0.003286608,-0.002595447,-0.4564073,-0.131536,-9.710467,0,0,41.41087,1,1,755,998
4594,34416356,1,0.0001189765,0.003804726,-0.003086611,-0.4683867,-0.1536354,-9.719446,0,0,41.41087,1,1,755,998
4597,34418726,1,-0.0002070043,0.005710966,-0.004215349,-0.4745123,-0.1749412,-9.727668,0,0,41.41087,1,1,755,998
4600,34421317,1,-0.0006273933,0.005715265,-0.005383433,-0.4767146,-0.1881846,-9.739240000000001,0,0,41.41123,1,1,755,998
4631,34424151,1,-0.0002008455,0.003747501,-0.007160674,-0.4739544,-0.1883309,-9.756962,0,0,41.41123,1,1,755,998
4634,34426864,1,0.0001664845,0.003704904,-0.00697548,-0.4679356,-0.190145,-9.755084,0,0,41.41123,1,1,755,998
4637,34428810,1,0.0007568371,0.003370717,-0.004704067,-0.4587071,-0.1930993,-9.741808000000001,0,0,41.41123,1,1,755,998
4640,34431297,1,0.0003833379,0.0041728,-0.0006861745,-0.4530269,-0.1908726,-9.703115,0,0,41.4116,1,1,755,998
4671,34433666,1,0.0002436041,0.00748803,0.001967559,-0.4613912,-0.1957613,-9.676773000000001,0,0,41.4116,1,1,755,998
4675,34436769,1,0.001490331,0.008921043,0.004771153,-0.484777,-0.1922233,-9.655595999999999,0,0,41.4116,1,1,755,998
4682,34439671,1,0.002054288,0.008862750000000001,0.006045163,-0.4912379,-0.1864322,-9.649417,0,0,41.4116,1,1,755,998
4685,34441463,1,0.002484213,0.00663928,0.005216017,-0.5019127,-0.1849193,-9.64626,0,0,41.41198,1,1,755,998
4716,34443882,1,0.001236779,0.006688462,0.002413328,-0.5184857,-0.1821596,-9.664742,0,0,41.41198,1,1,755,998
4719,34446332,1,0.001272307,0.006617242,0.001256815,-0.5231683,-0.1835029,-9.683843,0,0,41.41198,1,1,755,998
4722,34449516,1,0.00133225,0.004376402,0.000593252,-0.5220143,-0.1829294,-9.702066,0,0,41.41198,1,1,755,998
4725,34451874,1,0.0009115178,0.0003153869,0.002843889,-0.5112715,-0.1781931,-9.731182,0,0,41.41198,1,1,755,998
4756,34454067,1,-0.001643498,-0.000865458,0.003499895,-0.4938845,-0.1752937,-9.760063000000001,0,0,41.41236,1,1,755,998
4760,34456858,1,-0.003554641,-0.001971096,0.001958692,-0.4838447,-0.167611,-9.774174,0,0,41.41236,1,1,755,998
4763,34459411,1,-0.003365947,-0.002782306,0.002415161,-0.4830663,-0.1425182,-9.791702000000001,0,0,41.41236,1,1,755,998
4766,34462122,1,-0.001315625,-0.00592708,0.003209182,-0.490942,-0.1221616,-9.796535,0,0,41.41236,1,1,755,998
4797,34464913,1,-0.001680335,-0.007434165,0.003865971,-0.4986697,-0.1016323,-9.807744,0,0,41.41277,1,1,755,998
4800,34466658,1,-0.003116125,-0.006160637,0.003332674,-0.505586,-0.09684420000000001,-9.815462999999999,0,0,41.41277,1,1,755,998
4803,34469141,1,-0.003195908,-0.002668854,0.002390315,-0.5192989,-0.09820551,-9.815728999999999,0,0,41.41277,1,1,755,998
4806,34471863,1,-0.002642135,-0.0004625371,0.001674438,-0.5140396,-0.09763278,-9.804233999999999,0,0,41.41277,1,1,755,998
4837,34475397,1,-0.0004446579,0.002819493,0.0009180093,-0.4906559,-0.09142132,-9.77675,0,0,41.41318,1,1,755,998
4840,34478268,1,0.002547224,0.006173535,-0.0002733354,-0.4728277,-0.08634588,-9.762259,0,0,41.41318,1,1,755,998
4843,34479605,1,0.003636107,0.007890467999999999,-0.0001579799,-0.4619927,-0.09145878,-9.765504,0,0,41.41318,1,1,755,998
4847,34482109,1,0.0034317,0.007131426,0.001156161,-0.4660733,-0.09777479,-9.776687000000001,0,0,41.41318,1,1,755,998
4878,34485572,1,0.003423502,0.006163245,0.002928543,-0.4847573,-0.09630378000000001,-9.791065,0,0,41.41318,1,1,755,998
4881,34487146,1,0.004190559,0.00567701,0.004100209,-0.4999348,-0.09302235,-9.802830999999999,0,0,41.41361,1,1,755,998
4884,34490148,1,0.001096887,0.007074285,0.003612971,-0.5046011,-0.1123169,-9.801869,0,0,41.41361,1,1,755,998
4888,34492143,1,-0.0002626645,0.007672623,0.0006295989,-0.5073688,-0.1315505,-9.777915999999999,0,0,41.41361,1,1,755,998
4919,34494992,1,-0.001786979,0.004398696,-0.005750592,-0.4993789,-0.1639552,-9.723895000000001,0,0,41.41361,1,1,755,998
4922,34497871,1,-0.003144141,0.0002917322,-0.008513211999999999,-0.4811588,-0.1926463,-9.69059,0,0,41.41405,1,1,755,998
4925,34499888,1,-0.004358791,-9.516443e-05,-0.007665281,-0.4489623,-0.2285137,-9.654828,0,0,41.41405,1,1,755,998
4929,34502517,1,-0.002177642,0.0003236444,-0.004383218,-0.4385305,-0.2364707,-9.654313999999999,0,0,41.41405,1,1,755,998
4960,34505639,1,-0.0009479794,0.0009434112,-0.0008907368,-0.4371295,-0.2371356,-9.66662,0,0,41.41405,1,1,755,998
4963,34507138,1,-0.0004713683,0.001518201,3.906645e-05,-0.4441473,-0.2317568,-9.676504,0,0,41.4145,1,1,755,998
4966,34510385,1,-0.0003649368,0.001877635,0.0005579792,-0.4440549,-0.2235514,-9.678941999999999,0,0,41.4145,1,1,755,998
4969,34512496,1,-0.001494342,0.001988045,0.001504597,-0.4314353,-0.2086337,-9.658505,0,0,41.4145,1,1,755,998
5000,34514809,1,-0.003588423,0.002306507,0.003124034,-0.4136727,-0.1956096,-9.621314,0,0,41.4145,1,1,755,998
5004,34517455,1,-0.003279647,0.004318543,0.00171015,-0.4060013,-0.195047,-9.615168000000001,0,0,41.4145,1,1,755,998
5007,34520637,1,-0.003682714,0.007892812000000001,9.610517e-05,-0.4000694,-0.1884615,-9.630686000000001,0,0,41.41496,1,1,755,998
5011,34522665,1,-0.003793909,0.009818545,-0.002871889,-0.4005433,-0.1796233,-9.645205000000001,0,0,41.41496,1,1,755,998
5044,34525543,1,-0.003428612,0.009149483,-0.004287441,-0.3984383,-0.1766333,-9.654696,0,0,41.41496,1,1,755,998
5047,34527668,1,-0.004207164,0.004420833,-0.002172385,-0.3873051,-0.1737185,-9.651540000000001,0,0,41.41496,1,1,755,998
5051,34530665,1,-0.004204322,0.002513751,-0.0004727038,-0.3688072,-0.1570263,-9.641339,0,0,41.41543,1,1,755,998
5054,34533127,1,-0.003889611,0.002811804,0.0001863785,-0.3655669,-0.1560695,-9.645117000000001,0,0,41.41543,1,1,755,998
5085,34535335,1,-0.002018157,0.003597748,0.00371364,-0.3819985,-0.150532,-9.663239000000001,0,0,41.41543,1,1,755,998
5088,34538238,1,-0.0004978864,0.004440759,0.00423735,-0.4125293,-0.157621,-9.68144,0,0,41.41543,1,1,755,998
5095,34540892,1,-0.0004597516,0.004277649,0.004457267,-0.4397305,-0.1663918,-9.697431,0,0,41.4159,1,1,755,998
5099,34543200,1,-0.002322,0.000187548,0.001187437,-0.4788339,-0.1753179,-9.698556,0,0,41.4159,1,1,755,998
5130,34546216,1,-0.002600501,-0.001863591,-0.001683578,-0.5037978,-0.1718562,-9.705876,0,0,41.4159,1,1,755,998
5133,34548391,1,-0.001790155,-0.002105553,-0.003114626,-0.5151384,-0.1720258,-9.711436000000001,0,0,41.4159,1,1,755,998
5136,34550863,1,-0.0002100703,-0.001862541,-0.005528363,-0.5236341,-0.1767366,-9.720193,0,0,41.4159,1,1,755,998
5139,34553132,1,-0.001983564,-0.000927484,-0.007225097,-0.5175729,-0.176185,-9.711330999999999,0,0,41.41639,1,1,755,998
5172,34555564,1,-0.004645645,-0.002120662,-0.005359262,-0.502773,-0.1637943,-9.692270000000001,0,0,41.41639,1,1,755,998
5175,34558081,1,-0.006421036,-0.001902255,-0.00155099,-0.4733085,-0.1536852,-9.643376,0,0,41.41639,1,1,755,998
5178,34560841,1,-0.006755159,-0.001460734,-0.0001150241,-0.457676,-0.1497113,-9.602729,0,0,41.41639,1,1,755,998
5182,34563319,1,-0.006678953,0.0008818729,0.00148608,-0.4382268,-0.1481132,-9.556201,0,0,41.41688,1,1,755,998
5213,34566181,1,-0.007411326,0.002364134,0.001639391,-0.4326142,-0.1472656,-9.540628999999999,0,0,41.41688,1,1,755,998
5216,34568511,1,-0.009213043000000001,0.009361641,-0.001415807,-0.439234,-0.1367583,-9.541842000000001,0,0,41.41688,1,1,755,998
5219,34570636,1,-0.007276087,0.01113529,-0.002627634,-0.447615,-0.1325435,-9.552953,0,0,41.41688,1,1,755,998
5224,34572847,1,-0.002072962,0.01095318,-0.00270346,-0.4681468,-0.1360282,-9.573134,0,0,41.41737,1,1,755,998
5255,34575624,1,0.0003040379,0.005848294,0.001549376,-0.4826036,-0.1424052,-9.584007,0,0,41.41737,1,1,755,998
5258,34578060,1,-0.0002930392,0.002915382,0.003715471,-0.4948975,-0.1507743,-9.600091000000001,0,0,41.41737,1,1,755,998
5261,34581051,1,-0.00108628,0.002485219,0.004122751,-0.4990023,-0.1491658,-9.613305,0,0,41.41737,1,1,755,998
5264,34583289,1,-0.002706207,0.002563472,0.004552042,-0.503231,-0.1344119,-9.649611999999999,0,0,41.41737,1,1,755,998
5295,34586097,1,-0.003639506,0.003243475,0.004106497,-0.514854,-0.1170501,-9.680004,0,0,41.41785,1,1,755,998
5298,34588091,1,-0.006787009,0.009051481,-0.00205211,-0.5222331,-0.0920676,-9.717318000000001,0,0,41.41785,1,1,755,998
5301,34593094,1,-0.005383721,0.01023097,-0.01093871,-0.5249918,-0.1026302,-9.704983,0,0,41.41785,1,1,755,998
5333,34597084,1,7.877213000000001e-05,0.006484786,-0.009774676,-0.520273,-0.1279825,-9.672090000000001,0,0,41.41834,1,1,755,998
5336,34598579,1,0.001330091,0.006246179,-0.007392397,-0.5247786,-0.1415791,-9.659995,0,0,41.41834,1,1,755,998
5339,34600790,1,0.003296064,0.008923512,-0.001251334,-0.524141,-0.1464794,-9.650293,0,0,41.41834,1,1,755,998
5342,34603795,1,0.003328184,0.01110561,0.003189308,-0.5211504,-0.1384088,-9.649603000000001,0,0,41.41834,1,1,755,998
5373,34606378,1,0.001860275,0.007455792,0.00354903,-0.515011,-0.1226478,-9.642185,0,0,41.41884,1,1,755,998
5376,34609792,1,0.001983794,0.002087059,0.002653619,-0.511314,-0.1044618,-9.633495999999999,0,0,41.41884,1,1,755,998
5379,34611177,1,0.002735615,0.0003190874,0.001920108,-0.5180911,-0.06966419,-9.647462000000001,0,0,41.41884,1,1,755,998
5382,34613568,1,0.003184399,0.0001268619,0.002618359,-0.5312999,-0.0508798,-9.677030999999999,0,0,41.41884,1,1,755,998
5413,34616798,1,0.003344588,0.00175778,0.002662619,-0.5446133,-0.03393826,-9.726782999999999,0,0,41.41884,1,1,755,998
5417,34618663,1,0.002551657,0.003070991,0.001970316,-0.5399938,-0.02363941,-9.761773,0,0,41.41935,1,1,755,998
5420,34621673,1,-5.791274e-05,0.004843909,-0.00118401,-0.5215432,-0.007428041,-9.774728,0,0,41.41935,1,1,755,998
5423,34623816,1,-0.0002253803,0.005420212,-0.001488418,-0.5055187,-0.00871154,-9.774773,0,0,41.41935,1,1,755,998
5454,34626097,1,-0.0004988992,0.006456895,-9.855693999999999e-05,-0.481393,-0.01271894,-9.752616,0,0,41.41935,1,1,755,998
5458,34629266,1,0.0002248673,0.007182043,0.00107643,-0.4722283,-0.016733,-9.7331,0,0,41.41984,1,1,755,998
5461,34631615,1,0.002292774,0.008516994,-8.422913000000001e-05,-0.4660704,-0.03121126,-9.712946000000001,0,0,41.41984,1,1,755,998
5464,34634102,1,0.004784319,0.008453296000000001,-0.002171307,-0.4671221,-0.04527691,-9.704669000000001,0,0,41.41984,1,1,755,998
5495,34636649,1,0.004876964,0.003522246,-0.003167283,-0.4806498,-0.08026239,-9.706225,0,0,41.41984,1,1,755,998
5499,34639566,1,0.003896357,0.002475321,-0.003069764,-0.4837017,-0.1026804,-9.720488,0,0,41.42031,1,1,755,998
5506,34642589,1,0.002369995,-0.0006284534,-0.001374567,-0.4812703,-0.1216613,-9.73019,0,0,41.42031,1,1,755,998
5509,34644796,1,0.00248906,-0.002020298,0.002024701,-0.4726346,-0.1302762,-9.731242999999999,0,0,41.42031,1,1,755,998
5540,34646929,1,0.002185323,-0.0009614294,0.004896218,-0.4708693,-0.1260958,-9.708239000000001,0,0,41.42031,1,1,755,998
5544,34649702,1,0.000921817,0.001837364,0.005014398,-0.4673131,-0.1166513,-9.672071000000001,0,0,41.42031,1,1,755,998
5547,34652550,1,0.0002061141,0.003557988,0.002401288,-0.4671887,-0.1069066,-9.620687,0,0,41.42076,1,1,755,998
5550,34655291,1,-0.0005600353,0.001816125,-0.001600564,-0.4725411,-0.1075185,-9.606913,0,0,41.42076,1,1,755,998
5581,34657888,1,-0.0005596059,0.001855595,-0.004893849,-0.4887469,-0.08532234,-9.61552,0,0,41.42076,1,1,755,998
5585,34660657,1,-0.0003950888,0.002931399,-0.005091225,-0.4971001,-0.07318974,-9.625615,0,0,41.42076,1,1,755,998
5588,34663339,1,-0.0003205685,0.004734172,-0.003487732,-0.5109321,-0.06463539,-9.643535999999999,0,0,41.42119,1,1,755,998
5591,34665328,1,-0.000635475,0.00327832,-0.0007499781,-0.5193433,-0.0643996,-9.65438,0,0,41.42119,1,1,755,998
5622,34668496,1,-0.001835232,0.001695949,0.00126238,-0.5372927,-0.06274125,-9.661149999999999,0,0,41.42119,1,1,755,998
5626,34670580,1,-0.0006448936,0.002010807,0.002595525,-0.5507458,-0.05003987,-9.672882,0,0,41.42119,1,1,755,998
5629,34673367,1,0.0007176869999999999,0.001819176,0.002851052,-0.5584728,-0.03670553,-9.676849000000001,0,0,41.42161,1,1,755,998
5632,34675659,1,-1.938947e-05,0.002102706,0.001821422,-0.5546132,-0.03484039,-9.674272999999999,0,0,41.42161,1,1,755,998
5663,34677927,1,-0.004649347,0.005617329,-0.004138763,-0.5474479,-0.03895964,-9.670446999999999,0,0,41.42161,1,1,755,998
5666,34681810,1,-0.004785911,0.006235435,-0.00603416,-0.5474972,-0.04868376,-9.661319000000001,0,0,41.42161,1,1,755,998
5669,34683054,1,-0.002400884,0.005411216,-0.008843454000000001,-0.5388106,-0.05987952,-9.653869,0,0,41.42205,1,1,755,998
5672,34688103,1,0.004861256,0.00148929,-0.009185921,-0.5074365,-0.09279625,-9.665978000000001,0,0,41.42205,1,1,755,998
5704,34691602,1,0.004220405,0.002332057,-0.00843819,-0.5022598,-0.09132988,-9.640727999999999,0,0,41.42205,1,1,755,998
5707,34693390,1,0.00329303,0.004370224,-0.008841362,-0.4984619,-0.07890026,-9.631724999999999,0,0,41.42205,1,1,755,998
5710,34695916,1,0.00146066,0.01025032,-0.009769168,-0.49074,-0.07107859,-9.637411,0,0,41.42251,1,1,755,998
5713,34698467,1,-0.001077079,0.0135048,-0.008540102000000001,-0.4833522,-0.08485755,-9.64859,0,0,41.42251,1,1,755,998
5745,34701355,1,-0.003799365,0.01237565,-0.007487824,-0.4788714,-0.09464855,-9.669845,0,0,41.42251,1,1,755,998
5748,34703798,1,-0.004956992,0.01018582,-0.007787269,-0.4800307,-0.1089498,-9.677982999999999,0,0,41.42251,1,1,755,998
5751,34705920,1,-0.005026293,0.008934378999999999,-0.008094933,-0.4836472,-0.1246871,-9.679626000000001,0,0,41.42298,1,1,755,998
5754,34708521,1,-0.003443555,0.004079828,-0.008033134000000001,-0.4914817,-0.1389997,-9.67065,0,0,41.42298,1,1,755,998
5785,34711150,1,0.001091746,-0.003846129,-0.001561342,-0.5062132,-0.124212,-9.657622,0,0,41.42298,1,1,755,998
5788,34713772,1,0.002008283,-0.004174935,0.001273008,-0.5146441,-0.1126892,-9.667135999999999,0,0,41.42298,1,1,755,998
5792,34716174,1,0.003424508,-0.002095885,0.004177514,-0.5165882000000001,-0.1075525,-9.673094000000001,0,0,41.42298,1,1,755,998
5795,34718461,1,0.002832296,-0.0003670247,0.003014375,-0.5121707,-0.0980505,-9.673909,0,0,41.42345,1,1,755,998
5826,34721253,1,0.0002966299,-0.0001529346,0.0001441814,-0.5072601,-0.107079,-9.660982000000001,0,0,41.42345,1,1,755,998
5830,34723506,1,-0.003257521,0.0008188013,-0.002421544,-0.5078104,-0.1277517,-9.664655,0,0,41.42345,1,1,755,998
5833,34725910,1,-0.003439317,0.0009363706000000001,-0.004299697,-0.5084649,-0.1437928,-9.666968000000001,0,0,41.42345,1,1,755,998
5838,34729159,1,-0.001407712,-0.0001131307,-0.008756115,-0.5094473,-0.1454608,-9.676883,0,0,41.42394,1,1,755,998
5869,34732224,1,-2.298041e-05,-0.0002311749,-0.009149529999999999,-0.5090715,-0.1162685,-9.723420000000001,0,0,41.42394,1,1,755,998
5872,34734150,1,-0.001563235,6.673783e-05,-0.006411341,-0.5081293,-0.1005848,-9.758354000000001,0,0,41.42394,1,1,755,998
5876,34736870,1,-0.003390727,0.001763188,-0.004786506,-0.5073852,-0.07987456,-9.794155,0,0,41.42394,1,1,755,998
5879,34740085,1,-0.00252895,0.002328505,-0.00127663,-0.5027581,-0.07641642999999999,-9.801002,0,0,41.42443,1,1,755,998
5910,34742913,1,-1.718519e-05,0.00166693,0.003059371,-0.4911194,-0.07259646,-9.782527,0,0,41.42443,1,1,755,998
5918,34745622,1,0.002429695,0.001194729,0.006375681,-0.4740871,-0.07455228,-9.759145,0,0,41.42443,1,1,755,998
5921,34747562,1,0.002008735,0.001322439,0.006680405,-0.4656677,-0.09105773,-9.733304,0,0,41.42443,1,1,755,998
5924,34750678,1,0.0009625567,-0.0005736221,0.005203456,-0.4448695,-0.1222582,-9.704874,0,0,41.42493,1,1,755,998
5955,34753152,1,0.001340611,-0.003405783,0.002724756,-0.4221449,-0.1470104,-9.696118999999999,0,0,41.42493,1,1,755,998
5959,34756110,1,0.0002364516,-0.006728314,0.004835679,-0.4103485,-0.1559619,-9.709815000000001,0,0,41.42493,1,1,755,998
5962,34758110,1,-0.00031342,-0.006317159,0.006654834,-0.4001517,-0.1590925,-9.739993,0,0,41.42493,1,1,755,998
5965,34761165,1,-1.160015e-05,-0.001167443,0.006586574,-0.3984002,-0.1553144,-9.753612,0,0,41.42493,1,1,755,998
5996,34764058,1,0.0008030501,0.006159641,0.00565937,-0.3955843,-0.1512657,-9.749058,0,0,41.42543,1,1,755,998
5999,34766324,1,-0.001082068,0.007565005,0.002886838,-0.3827249,-0.1687191,-9.719272999999999,0,0,41.42543,1,1,755,998
6002,34768849,1,-0.002654451,0.003374429,-0.0002024817,-0.3808798,-0.1874034,-9.689558999999999,0,0,41.42543,1,1,755,998
6005,34771333,1,-0.001872908,-0.0002707821,-0.001024357,-0.3995785,-0.2110957,-9.644708,0,0,41.42543,1,1,755,998
6036,34775154,1,-0.001703555,-0.001532328,-0.0004395143,-0.4238068,-0.1983764,-9.620262,0,0,41.42595,1,1,755,998
6039,34776551,1,-0.00167663,0.0001601418,-0.0008821234,-0.4384108,-0.1784925,-9.609201000000001,0,0,41.42595,1,1,755,998
6044,34779605,1,-0.003579224,0.002205394,-0.0005424311,-0.4641447,-0.1605894,-9.591162000000001,0,0,41.42595,1,1,755,998
6047,34781702,1,-0.004575911,0.00213681,0.001605908,-0.4769578,-0.1570908,-9.583804000000001,0,0,41.42595,1,1,755,998
6078,34784044,1,-0.002182667,0.0007739707,0.005627168,-0.4894188,-0.1484198,-9.574062,0,0,41.42646,1,1,755,998
6081,34787775,1,-0.000697738,-7.197624000000001e-05,0.006683033,-0.4946738,-0.1405986,-9.571273,0,0,41.42646,1,1,755,998
6085,34788925,1,0.0004938695,0.0005166527,0.005856087,-0.4935045,-0.1472864,-9.568292,0,0,41.42646,1,1,755,998
6088,34792867,1,0.0002408031,0.0008135505,0.005286508,-0.4947324,-0.1526584,-9.570909,0,0,41.42646,1,1,755,998
6091,34794151,1,-0.0003214759,0.0003273688,0.004910217,-0.4972799,-0.1513724,-9.578965999999999,0,0,41.42698,1,1,755,998
6122,34796700,1,0.000831912,0.001510724,0.004907189,-0.496851,-0.1520893,-9.576867,0,0,41.42698,1,1,755,998
6125,34800014,1,0.0007808229,0.001952474,0.005460076,-0.4974529,-0.1465575,-9.571873,0,0,41.42698,1,1,755,998
6128,34801892,1,-0.001702115,0.00251068,0.007066153,-0.4984179,-0.1213832,-9.573918000000001,0,0,41.42698,1,1,755,998
6131,34805293,1,-0.003920638,0.002826733,0.007529023,-0.50363,-0.1010136,-9.587413,0,0,41.42698,1,1,755,998
6162,34807605,1,-0.002257966,0.0028124,0.006657385,-0.5017412999999999,-0.08926649,-9.589051,0,0,41.42751,1,1,755,998
6166,34810525,1,-0.002135287,0.001865055,0.005818158,-0.481949,-0.08583333999999999,-9.591172,0,0,41.42751,1,1,755,998
6169,34813117,1,-0.003808619,0.0005523988,0.001997705,-0.474679,-0.08281403,-9.603918999999999,0,0,41.42751,1,1,755,998
6172,34815768,1,-0.004723219,-0.0023496,-0.002076423,-0.4686814,-0.08369928,-9.630405,0,0,41.42751,1,1,755,998
6203,34818183,1,-0.00668996,-0.003979102,-0.007373703,-0.4531166,-0.0875322,-9.680555999999999,0,0,41.42804,1,1,755,998
6206,34820813,1,-0.006436513,-0.003514188,-0.007865919000000001,-0.4477648,-0.09074498,-9.729704999999999,0,0,41.42804,1,1,755,998
6209,34823402,1,-0.003888403,-0.003834774,-0.005924424,-0.44085,-0.09341867,-9.801394999999999,0,0,41.42804,1,1,755,998
6212,34826310,1,-0.0009986636999999999,-0.005412568,-0.003138056,-0.4306994,-0.09364013,-9.840585000000001,0,0,41.42804,1,1,755,998
6243,34829504,1,-0.00209529,0.0003408159,0.000739231,-0.4132142,-0.1086468,-9.912236999999999,0,0,41.42858,1,1,755,998
6247,34831534,1,-0.003057636,0.002280723,0.001492143,-0.4069635,-0.1058706,-9.938647,0,0,41.42858,1,1,755,998
6250,34833775,1,-0.003062758,0.003381658,0.00173563,-0.4003823,-0.1020034,-9.963359000000001,0,0,41.42858,1,1,755,998
6253,34836256,1,-0.002151767,0.002903556,0.0001931241,-0.400646,-0.1005083,-9.962783,0,0,41.42858,1,1,755,998
6284,34839293,1,-0.001616693,0.001271939,-0.004128283,-0.4099649,-0.09805901,-9.946972000000001,0,0,41.42913,1,1,755,998
6287,34841802,1,-0.00101716,0.001266997,-0.005964578,-0.4249605,-0.09406138,-9.925863,0,0,41.42913,1,1,755,998
6290,34843651,1,0.0004571748,0.001402413,-0.001521075,-0.4456025,-0.08586891000000001,-9.852577999999999,0,0,41.42913,1,1,755,998
6293,34846119,1,0.001220719,0.002809517,0.001704044,-0.4506618,-0.08516741999999999,-9.797515000000001,0,0,41.42913,1,1,755,998
6328,34848933,1,0.001703652,0.005234447,0.002050417,-0.4579247,-0.09202534,-9.75596,0,0,41.42913,1,1,755,998
6334,34851997,1,0.001561312,0.005693702,0.002482329,-0.46788,-0.09034397,-9.739341,0,0,41.42968,1,1,755,998
6338,34854193,1,-0.001863537,0.004491128,0.003704308,-0.4719707,-0.09111289,-9.723667000000001,0,0,41.42968,1,1,755,998
6341,34856811,1,-0.00357836,0.003702285,0.003118986,-0.45578,-0.1072062,-9.673994,0,0,41.42968,1,1,755,998
6372,34859072,1,-0.007222304,-0.00252221,0.005222976,-0.4448262,-0.1312365,-9.622593,0,0,41.42968,1,1,755,998
6376,34862202,1,-0.006870241,-0.003581915,0.006522644,-0.4489074,-0.1373289,-9.604870999999999,0,0,41.43023,1,1,755,998
6379,34864305,1,-0.004448426,-0.003373655,0.007772818,-0.4718024,-0.1203493,-9.596071,0,0,41.43023,1,1,755,998
6382,34866855,1,-0.003181963,-0.00376389,0.006015201,-0.4800881,-0.1043305,-9.593413999999999,0,0,41.43023,1,1,755,998
6413,34869789,1,-0.003462882,-0.002696225,0.003815501,-0.4691063,-0.08019216,-9.589449999999999,0,0,41.43023,1,1,755,998
6416,34871625,1,-0.003053075,-7.776478000000001e-06,0.002948456,-0.4646286,-0.0680304,-9.589328999999999,0,0,41.43079,1,1,755,998
6419,34874822,1,-0.002900451,0.001039602,0.001797072,-0.4593753,-0.07476258,-9.587346,0,0,41.43079,1,1,755,998
6422,34876908,1,-0.00296793,0.00165016,0.0007373049999999999,-0.4464584,-0.09615567,-9.584764,0,0,41.43079,1,1,755,998
6453,34879409,1,-0.005804038,0.004432458,-0.003770866,-0.4220408,-0.1201419,-9.592684,0,0,41.43079,1,1,755,998
6457,34881897,1,-0.006818179,0.005175787,-0.006060479,-0.4053984,-0.1325096,-9.600357000000001,0,0,41.43079,1,1,755,998
6460,34884818,1,-0.00536254,0.004648456,-0.009560568,-0.3790721,-0.156423,-9.603763000000001,0,0,41.43136,1,1,755,998
6463,34889277,1,0.0004419698,0.002320839,-0.007085944,-0.3629331,-0.2218737,-9.590761000000001,0,0,41.43136,1,1,755,998
6494,34891852,1,0.001980927,0.002324118,-0.001805626,-0.3697162,-0.2454648,-9.576510000000001,0,0,41.43136,1,1,755,998
6497,34896916,1,0.000123019,0.00349512,-0.002049109,-0.3954515,-0.2515371,-9.558214,0,0,41.43193,1,1,755,998
6500,34900005,1,-0.0006984449,0.003162574,-0.00266098,-0.3987691,-0.2528055,-9.562336999999999,0,0,41.43193,1,1,755,998
6531,34902161,1,-0.0003557084,0.00123509,-0.001572241,-0.4150788,-0.23501,-9.560288,0,0,41.43193,1,1,755,998
6536,34904840,1,0.001193007,-0.003265525,0.0003089336,-0.4567209,-0.2045932,-9.56767,0,0,41.4325,1,1,755,998
6539,34907791,1,0.002141563,-0.006525367,0.002348979,-0.483009,-0.1815312,-9.579890000000001,0,0,41.4325,1,1,755,998
6542,34910491,1,0.002708232,-0.005660947,0.003508686,-0.5150083,-0.1681404,-9.612804000000001,0,0,41.4325,1,1,755,998
6573,34912599,1,0.003360643,0.0004066699,0.00381664,-0.5231337,-0.1630351,-9.655559999999999,0,0,41.4325,1,1,755,998
6577,34915192,1,0.002649362,0.008413373,0.003072548,-0.512413,-0.1566821,-9.669667,0,0,41.43307,1,1,755,998
6580,34918221,1,0.002871291,0.01188331,0.001959404,-0.489704,-0.1518643,-9.682404,0,0,41.43307,1,1,755,998
6583,34920802,1,0.002192708,0.01108612,0.001435337,-0.475692,-0.1612603,-9.700625,0,0,41.43307,1,1,755,998
6614,34923553,1,0.000533697,0.01006236,3.017088e-05,-0.4592762,-0.1759791,-9.699265,0,0,41.43307,1,1,755,998
6617,34926298,1,-0.0006557064,0.009371724,-0.0007643473,-0.4490078,-0.1857803,-9.674749,0,0,41.43307,1,1,755,998
6620,34928343,1,-0.004158603,0.006424185,-0.004307394,-0.4254439,-0.1910411,-9.632626999999999,0,0,41.43362,1,1,755,998
6623,34930703,1,-0.004093703,0.005752209,-0.004635985,-0.4101295,-0.1933514,-9.600642000000001,0,0,41.43362,1,1,755,998
6654,34933372,1,-0.002370394,0.003770604,-0.002657726,-0.3947591,-0.191993,-9.568871,0,0,41.43362,1,1,755,998
6658,34936236,1,-0.0002439785,0.003894752,-0.0005857390000000001,-0.3899028,-0.179932,-9.563942000000001,0,0,41.43362,1,1,755,998
6663,34939169,1,0.0007402736,0.001742467,-0.001127062,-0.3935173,-0.1619702,-9.579324,0,0,41.43415,1,1,755,998
6666,34940647,1,-0.001379325,-0.002177795,-0.002695249,-0.4031306,-0.1553731,-9.588778,0,0,41.43415,1,1,755,998
6697,34943485,1,-0.0006626362,-0.0003158232,-0.005611135,-0.4034794,-0.145004,-9.597303999999999,0,0,41.43415,1,1,755,998
6700,34945825,1,0.0007500117,0.001764645,-0.006011856,-0.4013549,-0.1431241,-9.613524,0,0,41.43415,1,1,755,998
6704,34948656,1,0.00263316,0.006997236,-0.002761097,-0.401409,-0.1551289,-9.643686000000001,0,0,41.43466,1,1,755,998
6712,34951293,1,0.002130757,0.007010463,-0.001352571,-0.3968331,-0.1599,-9.660596999999999,0,0,41.43466,1,1,755,998
6743,34954117,1,0.0002840869,0.003225994,0.0001255806,-0.3757466,-0.1504808,-9.666537999999999,0,0,41.43466,1,1,755,998
6747,34956277,1,0.0003050724,0.002668201,0.001003474,-0.3752012,-0.1430051,-9.667249999999999,0,0,41.43466,1,1,755,998
6750,34959369,1,0.0007270257,0.001342342,0.001564026,-0.3860641,-0.1283582,-9.676913000000001,0,0,41.43466,1,1,755,998
6753,34961492,1,0.001273781,-0.0006113111,0.00322654,-0.4138948,-0.09496391,-9.690503,0,0,41.43516,1,1,755,998
6784,34964389,1,-0.0007166887,-0.001036155,0.005086623,-0.446899,-0.06412807,-9.695565,0,0,41.43516,1,1,755,998
6787,34966261,1,-0.001906472,0.0002087053,0.005660314,-0.4668624,-0.04614015,-9.702774,0,0,41.43516,1,1,755,998
6790,34968611,1,-0.002998546,0.003866374,0.005519489,-0.4869778,-0.02974941,-9.708081,0,0,41.43516,1,1,755,998
6793,34971789,1,-0.003248155,0.004268311,0.003085855,-0.5036392,-0.02380055,-9.697253999999999,0,0,41.43565,1,1,755,998
6824,34974131,1,-0.0025781,0.004247992,0.0008976652,-0.5092448000000001,-0.03019065,-9.692156000000001,0,0,41.43565,1,1,755,998
6828,34977089,1,-0.003398448,0.005344263,0.001099896,-0.5079942,-0.05039332,-9.705951000000001,0,0,41.43565,1,1,755,998
6831,34979138,1,-0.004904374,0.004093983,0.0007447045,-0.5027489000000001,-0.07374757999999999,-9.718596,0,0,41.43565,1,1,755,998
6834,34982804,1,-0.00289073,0.001865532,-0.001818786,-0.4952716,-0.08975857,-9.719325,0,0,41.4361,1,1,755,998
6837,34984285,1,-0.0002853398,-0.0006298181,-0.00132758,-0.4968451,-0.1171339,-9.729938000000001,0,0,41.4361,1,1,755,998
6868,34987497,1,0.0001196572,-0.0006518611,-0.0005900481,-0.5050895,-0.1447012,-9.742322,0,0,41.4361,1,1,755,998
6872,34989349,1,-0.0007107831,0.003082571,-0.0002633194,-0.5137343,-0.161208,-9.744389,0,0,41.4361,1,1,755,998
6875,34991629,1,-0.0009370849,0.005121927,0.0001210956,-0.5191557999999999,-0.1722236,-9.739463000000001,0,0,41.4361,1,1,755,998
6878,34994843,1,-0.001550371,0.004406174,-0.00334933,-0.5245461,-0.1866288,-9.718228999999999,0,0,41.43654,1,1,755,998
6909,34997184,1,-0.0009980111000000001,0.0005983521000000001,-0.003897911,-0.5188305,-0.1863322,-9.688503000000001,0,0,41.43654,1,1,755,998
6912,35002196,1,0.0030084,-0.0005702214,4.210288e-05,-0.5038722,-0.1590395,-9.676978999999999,0,0,41.43654,1,1,755,998
6916,35005292,1,0.003992522,-0.0007217638,0.0001815107,-0.4960711,-0.1520218,-9.678181,0,0,41.43696,1,1,755,998
6947,35007467,1,0.003265836,-0.00196657,-0.0001381337,-0.4919495,-0.1439095,-9.676261,0,0,41.43696,1,1,755,998
6950,35010577,1,0.00162388,-0.002330659,0.001407331,-0.4786336,-0.1482983,-9.685596,0,0,41.43696,1,1,755,998
6953,35013064,1,0.002085791,-0.00129893,0.001064506,-0.461684,-0.1539715,-9.695398000000001,0,0,41.43696,1,1,755,998
6956,35015222,1,0.002867784,0.001648547,0.0006430487,-0.4479065,-0.1643341,-9.684438,0,0,41.43737,1,1,755,998
6987,35018123,1,0.001280884,0.003557816,-0.004124396,-0.4228922,-0.1549147,-9.681571,0,0,41.43737,1,1,755,998
6990,35020336,1,-0.0005186478,0.00345773,-0.00644323,-0.408184,-0.1359842,-9.673365,0,0,41.43737,1,1,755,998
6993,35022915,1,-0.001664375,0.00426735,-0.009116915,-0.3979806,-0.1119066,-9.654203000000001,0,0,41.43737,1,1,755,998
6996,35025411,1,0.0001969911,0.004717669,-0.008412930000000001,-0.4041559,-0.07712169000000001,-9.635153000000001,0,0,41.43776,1,1,755,998
7027,35027767,1,0.001029183,0.002925712,-0.007055491,-0.429554,-0.05932461,-9.628138999999999,0,0,41.43776,1,1,755,998
7032,35030628,1,0.00278994,0.001147189,-0.004745613,-0.4508561,-0.06567605999999999,-9.631178999999999,0,0,41.43776,1,1,755,998
7035,35032874,1,0.003459618,0.0005709141,-0.003786977,-0.4670177,-0.08231473,-9.647999,0,0,41.43776,1,1,755,998
7038,35035834,1,0.0003156784,0.002252195,-0.002219975,-0.4770574,-0.1006427,-9.683123999999999,0,0,41.43776,1,1,755,998
7069,35038296,1,-0.00373758,0.003107386,-0.005745055,-0.4726875,-0.1087113,-9.68854,0,0,41.43813,1,1,755,998
7073,35041312,1,-0.00404504,0.002700441,-0.008147694,-0.45565,-0.1206443,-9.656191,0,0,41.43813,1,1,755,998
7076,35043282,1,-0.001507339,0.001985275,-0.007624941,-0.4473717,-0.1347329,-9.628151000000001,0,0,41.43813,1,1,755,998
7079,35046327,1,0.0009469286,-0.001924705,-0.003973724,-0.4399644,-0.1492953,-9.599068000000001,0,0,41.43813,1,1,755,998
7112,35048674,1,0.001772395,-0.003929532,0.001673582,-0.4361375,-0.1654284,-9.555771,0,0,41.4385,1,1,755,998
7116,35051464,1,0.003983156,-0.0002774987,0.004679977,-0.4398879,-0.1783739,-9.553141,0,0,41.4385,1,1,755,998
7123,35054520,1,0.007487146,0.003577246,0.005289012,-0.4512945,-0.1906339,-9.567441000000001,0,0,41.4385,1,1,755,998
7126,35056921,1,0.007647646,0.004603838,0.00506061,-0.4542035,-0.1877075,-9.588257,0,0,41.4385,1,1,755,998
7157,35059779,1,0.001688778,0.006886933,0.00323697,-0.4541601,-0.1739284,-9.625638,0,0,41.43888,1,1,755,998
7161,35061688,1,-0.004420274,0.007612315,0.0008556343,-0.4559958,-0.1587908,-9.652403,0,0,41.43888,1,1,755,998
7164,35064480,1,-0.005417952,0.00777434,-0.0002890444,-0.4550513,-0.1506972,-9.673272000000001,0,0,41.43888,1,1,755,998
7167,35067138,1,-0.002465132,0.007249468,-0.001908288,-0.4625988,-0.141663,-9.699047,0,0,41.43888,1,1,755,998
7198,35070144,1,-0.0002863682,0.005829084,-0.003173003,-0.4932578,-0.1281183,-9.714850999999999,0,0,41.43927,1,1,755,998
7201,35072161,1,0.000665871,0.005291777,-0.003617352,-0.5206606,-0.1210196,-9.725837,0,0,41.43927,1,1,755,998
7204,35074998,1,0.00410378,0.002262664,-0.001086352,-0.5579174,-0.1336034,-9.726134999999999,0,0,41.43927,1,1,755,998
7207,35077691,1,0.005152581,-0.0005247358,0.0008395577999999999,-0.5735538999999999,-0.1371112,-9.702797,0,0,41.43927,1,1,755,998
7238,35080585,1,0.004672248,-0.004041059,0.004676303,-0.5744483,-0.1428835,-9.668500999999999,0,0,41.43967,1,1,755,998
7242,35083145,1,0.0042453,-0.003039801,0.006355131,-0.5629693,-0.1507326,-9.645484,0,0,41.43967,1,1,755,998
7245,35085474,1,0.00315685,-0.001271916,0.009011404000000001,-0.5401714,-0.1430312,-9.63219,0,0,41.43967,1,1,755,998
7249,35087893,1,0.001625601,-0.002068746,0.009318358000000001,-0.5151189,-0.1234135,-9.645267,0,0,41.43967,1,1,755,998
7280,35090574,1,2.882695e-05,-0.00295047,0.007518353,-0.470725,-0.09072363,-9.690530000000001,0,0,41.43967,1,1,755,998
7283,35097932,1,0.001825781,-0.002191156,0.001745238,-0.4364745,-0.1039612,-9.761136,0,0,41.44008,1,1,755,998
7314,35100852,1,0.002611111,-0.003479128,0.001820959,-0.4462218,-0.1334102,-9.80129,0,0,41.44008,1,1,755,998
7318,35102923,1,0.00271627,-0.005630697,0.002839778,-0.4575193,-0.143735,-9.830377,0,0,41.44049,1,1,755,998
7321,35106076,1,0.002562229,-0.005354923,0.00419256,-0.4665161,-0.1540676,-9.856634,0,0,41.44049,1,1,755,998
7324,35108514,1,0.002205372,0.0004759565,0.003472608,-0.4688573,-0.1740122,-9.864077999999999,0,0,41.44049,1,1,755,998
7355,35110889,1,0.003468981,0.004293419,0.0008754467,-0.4846362,-0.1791957,-9.845605000000001,0,0,41.44049,1,1,755,998
7359,35113413,1,0.002882888,0.004850734,-0.0002533777,-0.4977485,-0.1751875,-9.830845,0,0,41.44091,1,1,755,998
7362,35116080,1,0.001614127,0.002771427,-0.000743781,-0.5134872,-0.1657139,-9.799602999999999,0,0,41.44091,1,1,755,998
7365,35119071,1,0.001821791,0.002725767,-0.001210554,-0.5111154,-0.1609343,-9.785130000000001,0,0,41.44091,1,1,755,998
7396,35122040,1,0.003470531,0.005594572,-0.002704829,-0.5035878,-0.1583512,-9.772617,0,0,41.44091,1,1,755,998
7399,35124231,1,0.003111924,0.005402042,0.0009168975,-0.5073517,-0.1595606,-9.749833000000001,0,0,41.44133,1,1,755,998
7404,35127102,1,0.00226462,0.00447741,0.002820991,-0.5179036,-0.1589044,-9.737328,0,0,41.44133,1,1,755,998
7408,35129776,1,-0.002721958,0.001975557,-0.0005779021,-0.5280795,-0.1644214,-9.722723,0,0,41.44133,1,1,755,998
7439,35132135,1,-0.005131461,0.001254211,-0.005051993,-0.5232913,-0.1685448,-9.720643000000001,0,0,41.44133,1,1,755,998
7443,35135191,1,-0.005119908,0.002824344,-0.006188722,-0.5184245,-0.1729841,-9.719141,0,0,41.44133,1,1,755,998
7446,35137457,1,-0.003013263,0.007606683,-0.006583441,-0.5020711,-0.1726245,-9.720374,0,0,41.44176,1,1,755,998
7449,35140024,1,-0.003320155,0.008137326,-0.006255858,-0.4959405,-0.1627255,-9.721807,0,0,41.44176,1,1,755,998
7480,35142779,1,-0.006411597,0.008799049,-0.005261172,-0.4901448,-0.1526671,-9.72963,0,0,41.44176,1,1,755,998
7484,35144929,1,-0.01069245,0.008443714999999999,-0.005294932,-0.4785887,-0.1547248,-9.739428999999999,0,0,41.44176,1,1,755,998
7488,35148060,1,-0.0133027,0.008901216,-0.006306768,-0.4560142,-0.1651221,-9.768126000000001,0,0,41.44219,1,1,755,998
7491,35149684,1,-0.01137894,0.007425169,-0.005999419,-0.45452,-0.171893,-9.770066,0,0,41.44219,1,1,755,998
7524,35152121,1,-0.01036246,0.002736529,-0.003975829,-0.4545408,-0.1756167,-9.760422,0,0,41.44219,1,1,755,998
7528,35155199,1,-0.009064288,-0.003329978,0.0007599536,-0.4481202,-0.1855827,-9.753944000000001,0,0,41.44219,1,1,755,998
7535,35157615,1,-0.006511253,-0.007237584,0.007030556,-0.43638,-0.2033162,-9.742105,0,0,41.44262,1,1,755,998
7539,35160316,1,-0.005281027,-0.007641446,0.009253534000000001,-0.4329523,-0.2105883,-9.736694,0,0,41.44262,1,1,755,998
7570,35162648,1,-0.00598708,-0.004310715,0.01120245,-0.437733,-0.2021378,-9.736853,0,0,41.44262,1,1,755,998
7573,35165279,1,-0.007163449,0.0006878047,0.00794593,-0.4415136,-0.1975258,-9.739967,0,0,41.44262,1,1,755,998
7576,35168580,1,-0.007563139,0.003980879,0.00500293,-0.4474047,-0.199648,-9.732384,0,0,41.44262,1,1,755,998
7579,35170662,1,-0.005419813,0.004085656,0.003405398,-0.4562893,-0.1965524,-9.706711,0,0,41.44306,1,1,755,998
7610,35173339,1,-0.001781013,0.004099451,0.002274975,-0.4684248,-0.184791,-9.670203000000001,0,0,41.44306,1,1,755,998
7614,35175312,1,-0.0003514581,0.00379932,0.002036501,-0.4682047,-0.1757741,-9.627549999999999,0,0,41.44306,1,1,755,998
7617,35177828,1,-0.001561677,0.002152004,0.0004730939,-0.4635355,-0.1720375,-9.574166999999999,0,0,41.44306,1,1,755,998
7620,35180823,1,-0.003176715,0.00218239,-0.001078301,-0.4395291,-0.1774787,-9.540101999999999,0,0,41.44351,1,1,755,998
7651,35183533,1,-0.005061594,-0.0001505044,-0.005391037,-0.4285977,-0.1724909,-9.547753999999999,0,0,41.44351,1,1,755,998
7655,35186073,1,-0.006147471,-0.003126257,-0.008020258000000001,-0.4317948,-0.1634949,-9.560059000000001,0,0,41.44351,1,1,755,998
7659,35188156,1,-0.006104266,-0.003809646,-0.008138818000000001,-0.4405997,-0.1496834,-9.576122,0,0,41.44351,1,1,755,998
7662,35190743,1,-0.004831381,-0.001573161,-0.005204972,-0.4479731,-0.1466853,-9.582787,0,0,41.44395,1,1,755,998
7693,35193486,1,-0.003007688,0.002291263,2.068461e-05,-0.4600859,-0.1387251,-9.585222999999999,0,0,41.44395,1,1,755,998
7696,35201138,1,0.003205736,0.003524091,0.0009211665,-0.4723726,-0.08036222,-9.626505,0,0,41.4444,1,1,755,998
7727,35203701,1,0.004140031,0.001935275,-0.0002744062,-0.4699022,-0.06806163,-9.644138999999999,0,0,41.4444,1,1,755,998
7731,35206131,1,0.003006495,0.003242985,-8.152661999999999e-05,-0.4674813,-0.08158034,-9.656162,0,0,41.4444,1,1,755,998
7734,35209597,1,0.002038605,0.003908724,-0.0008384306999999999,-0.4686274,-0.107428,-9.678023,0,0,41.4444,1,1,755,998
7737,35211498,1,-0.00311286,0.003720213,-0.003038589,-0.4808522,-0.1434243,-9.73245,0,0,41.4444,1,1,755,998
7768,35214576,1,-0.00384134,0.003264836,-0.001687115,-0.4747431,-0.1529532,-9.775816000000001,0,0,41.44486,1,1,755,998
7771,35216301,1,-0.003188481,0.003311333,-8.430067e-05,-0.4705214,-0.1524862,-9.788549,0,0,41.44486,1,1,755,998
7774,35218661,1,-0.001581624,0.00352566,0.003341467,-0.4639423,-0.1534548,-9.773870000000001,0,0,41.44486,1,1,755,998
7777,35221785,1,-0.001378643,0.004418141,0.004578387,-0.4616598,-0.1461822,-9.732735,0,0,41.44486,1,1,755,998
7808,35223914,1,-0.001970186,0.007992866,0.006163944,-0.459879,-0.1358439,-9.685637,0,0,41.44532,1,1,755,998
7812,35227036,1,-0.001105753,0.01111969,0.007407738,-0.4615083,-0.1312437,-9.66539,0,0,41.44532,1,1,755,998
7815,35229304,1,0.001815941,0.009676156,0.005229651,-0.4709054,-0.1446069,-9.644844000000001,0,0,41.44532,1,1,755,998
7818,35232119,1,0.004506455,0.005424284,0.002604753,-0.4789285,-0.1578931,-9.638218,0,0,41.44532,1,1,755,998
7849,35234652,1,0.004905871,-0.0005068166,0.001389814,-0.4799375,-0.138337,-9.663493000000001,0,0,41.44578,1,1,755,998
7852,35237287,1,0.004161718,-0.003952214,0.0001018358,-0.4910029,-0.1098609,-9.700003000000001,0,0,41.44578,1,1,755,998
7855,35239840,1,0.00364584,-0.004987872,-0.0005426158,-0.4939058,-0.09924832,-9.707224999999999,0,0,41.44578,1,1,755,998
7858,35242569,1,0.003360422,-0.007261523,-4.262524e-05,-0.4903182,-0.09522506,-9.704340999999999,0,0,41.44578,1,1,755,998
7889,35245574,1,0.004168033,-0.007636969,0.001801176,-0.4797328,-0.09737221,-9.694699999999999,0,0,41.44624,1,1,755,998
7893,35247558,1,0.003446983,-0.00306872,0.003310121,-0.4738013,-0.09663529999999999,-9.687177,0,0,41.44624,1,1,755,998
7897,35250166,1,0.001172746,0.005266822,0.003719557,-0.4698373,-0.09898234,-9.668416000000001,0,0,41.44624,1,1,755,998
7900,35252291,1,-0.002179736,0.01211111,0.001895755,-0.4666249,-0.1033054,-9.644952,0,0,41.44624,1,1,755,998
7931,35255146,1,-0.001847673,0.01214644,-0.001757546,-0.4511396,-0.1188627,-9.633723,0,0,41.44624,1,1,755,998
7935,35258128,1,-0.0006140501,0.009763786,-0.003126778,-0.4335751,-0.1298991,-9.639879000000001,0,0,41.44671,1,1,755,998
7942,35260628,1,-0.002161578,0.003146034,2.07282e-05,-0.4116679,-0.1531936,-9.656609,0,0,41.44671,1,1,755,998
7945,35262924,1,-0.002604831,0.002199422,0.001647934,-0.4067588,-0.1696658,-9.659283,0,0,41.44671,1,1,755,998
7976,35265275,1,-0.001288734,0.001498897,0.00307879,-0.4181537,-0.1898637,-9.664144,0,0,41.44671,1,1,755,998
7980,35268168,1,0.001113791,0.001963281,0.004228686,-0.4293638,-0.1962873,-9.67266,0,0,41.44719,1,1,755,998
7983,35270617,1,0.001703895,0.002290094,0.00317548,-0.4342927,-0.1915758,-9.680892,0,0,41.44719,1,1,755,998
7986,35272699,1,0.001649985,0.004742736,0.0004574737,-0.4442924,-0.1741975,-9.702975,0,0,41.44719,1,1,755,998
8017,35275614,1,0.0001326384,0.006465227,0.0007657598,-0.4531412,-0.1567957,-9.707967,0,0,41.44719,1,1,755,998
8021,35278193,1,8.645256e-05,0.007063617,9.626786e-05,-0.4699779,-0.1598464,-9.710763,0,0,41.44768,1,1,755,998
8024,35280866,1,0.0007525182,0.006173032,0.0003426896,-0.477246,-0.1625359,-9.720371,0,0,41.44768,1,1,755,998
8027,35283167,1,0.001790286,0.003337199,0.001236479,-0.4863378,-0.152978,-9.732768,0,0,41.44768,1,1,755,998
8058,35285520,1,0.002801567,0.001513086,0.002486737,-0.4906813,-0.1464056,-9.738045,0,0,41.44768,1,1,755,998
8061,35287903,1,0.003179565,0.001477711,0.003222662,-0.4921848,-0.1361955,-9.732275,0,0,41.44768,1,1,755,998
8065,35291091,1,0.003419353,0.001781438,0.00328441,-0.4920459,-0.1314922,-9.712683999999999,0,0,41.44819,1,1,755,998
8068,35293856,1,0.002790235,0.005283283,0.003620358,-0.4830858,-0.1297536,-9.690185,0,0,41.44819,1,1,755,998
8071,35295339,1,0.001769822,0.006313344,0.003173943,-0.4766657,-0.1241556,-9.691368000000001,0,0,41.44819,1,1,755,998
8103,35298118,1,0.001814013,0.007954071,0.0003275771,-0.4787711,-0.1236757,-9.692682,0,0,41.44819,1,1,755,998
8106,35300464,1,0.003448497,0.007123498,-0.003006383,-0.4850854,-0.1256391,-9.701029,0,0,41.44872,1,1,755,998
8109,35303404,1,0.00321554,0.00367526,-0.004360749,-0.4880074,-0.1196909,-9.704381,0,0,41.44872,1,1,755,998
8112,35306294,1,0.00146447,0.002267103,-0.002855561,-0.481632,-0.1147688,-9.698558,0,0,41.44872,1,1,755,998
8143,35308549,1,0.001016926,0.005137023,0.001740513,-0.4342006,-0.101239,-9.675224999999999,0,0,41.44872,1,1,755,998
8149,35311814,1,0.001466807,0.006764797,0.002701383,-0.4193306,-0.08879998,-9.667127000000001,0,0,41.44872,1,1,755,998
8152,35313799,1,0.002671934,0.008563021000000001,0.003917883,-0.402874,-0.08461981,-9.644755999999999,0,0,41.44923,1,1,755,998
8155,35316768,1,0.002563855,0.009496498000000001,0.004225238,-0.3876367,-0.08510396000000001,-9.620722000000001,0,0,41.44923,1,1,755,998
8186,35321926,1,-0.004940009,0.009018573,0.000717779,-0.3853431,-0.1230166,-9.594250000000001,0,0,41.44923,1,1,755,998
8189,35324449,1,-0.00573079,0.005762338,3.758672e-05,-0.3969446,-0.1398444,-9.603045,0,0,41.4497,1,1,755,998
8192,35327179,1,-0.003903041,0.004062006,0.001064104,-0.4194355,-0.1507215,-9.608233,0,0,41.4497,1,1,755,998
8223,35330154,1,0.001447794,0.002549173,0.002846484,-0.437661,-0.1606073,-9.613244999999999,0,0,41.4497,1,1,755,998
8228,35333144,1,0.002967577,0.002330934,0.002799049,-0.4450952,-0.1619691,-9.622009,0,0,41.4497,1,1,755,998
8232,35335139,1,0.004798853,0.002530342,0.001115341,-0.4510598,-0.1719023,-9.65794,0,0,41.45015,1,1,755,998
8235,35337343,1,0.003817049,0.002471967,-0.003504934,-0.4549553,-0.1774999,-9.694129999999999,0,0,41.45015,1,1,755,998
8266,35339859,1,0.00301623,0.0001594921,-0.007570471,-0.4572166,-0.1785365,-9.728294999999999,0,0,41.45015,1,1,755,998
8269,35342686,1,0.002589444,0.0001151614,-0.01011637,-0.4587082,-0.1821982,-9.742296,0,0,41.45015,1,1,755,998
8274,35345245,1,0.002489204,0.005845933,-0.00801699,-0.4590546,-0.1760207,-9.750571000000001,0,0,41.45058,1,1,755,998
8277,35347314,1,0.00216374,0.008867055,-0.006019243,-0.4572287,-0.1732729,-9.733200999999999,0,0,41.45058,1,1,755,998
8308,35350009,1,0.002054431,0.01198322,-0.002497819,-0.4494505,-0.1744155,-9.691933000000001,0,0,41.45058,1,1,755,998
8311,35352500,1,0.002301305,0.01080399,-0.00195197,-0.4431651,-0.1759241,-9.669775,0,0,41.45058,1,1,755,998
8314,35355336,1,0.003080969,0.007512693,-0.001107121,-0.4376076,-0.1909945,-9.666135000000001,0,0,41.45058,1,1,755,998
8317,35357916,1,0.003384179,0.005075725,-0.002698088,-0.4393342,-0.1947649,-9.679957999999999,0,0,41.45097,1,1,755,998
8348,35360339,1,0.003096808,0.004358412,-0.00333059,-0.4586226,-0.1859732,-9.711048,0,0,41.45097,1,1,755,998
8355,35363186,1,0.002123527,-0.00181082,0.002150867,-0.4704203,-0.1774566,-9.727448000000001,0,0,41.45097,1,1,755,998
8361,35365293,1,0.0006753567,-0.00455421,0.003645682,-0.4775335,-0.1575346,-9.74324,0,0,41.45097,1,1,755,998
8364,35368387,1,-0.002343145,-0.006599574,0.003407014,-0.4738996,-0.1372929,-9.732623999999999,0,0,41.45135,1,1,755,998
8395,35371385,1,-0.001402827,0.002054568,-0.001556664,-0.4632595,-0.1314267,-9.723363000000001,0,0,41.45135,1,1,755,998
8398,35373585,1,3.010502e-05,0.006754963,-0.002735228,-0.4624619,-0.1194815,-9.732086000000001,0,0,41.45135,1,1,755,998
8401,35375908,1,0.00184262,0.01114078,-0.00239772,-0.4655339,-0.109179,-9.736706,0,0,41.45135,1,1,755,998
8404,35378579,1,0.002523541,0.008737988,-0.000785293,-0.467058,-0.1162212,-9.727898,0,0,41.45171,1,1,755,998
8435,35381566,1,0.004064491,0.002865405,0.0007821661,-0.4821613,-0.131569,-9.726756,0,0,41.45171,1,1,755,998
8438,35383799,1,0.004799606,0.0004923051,0.0003826705,-0.4960541,-0.1397413,-9.716294,0,0,41.45171,1,1,755,998
8442,35386089,1,0.004074604,0.001185404,0.0003726366,-0.5188163,-0.1532686,-9.685090000000001,0,0,41.45171,1,1,755,998
8446,35388580,1,0.003728626,0.001236053,0.0006752498,-0.528191,-0.1619397,-9.647944000000001,0,0,41.45171,1,1,755,998
8477,35391080,1,0.00474736,-0.003125758,-0.001029548,-0.5364292000000001,-0.1636081,-9.603592000000001,0,0,41.45208,1,1,755,998
8480,35393789,1,0.005027675,-0.006328917,-0.001368142,-0.5431743999999999,-0.1587891,-9.587503,0,0,41.45208,1,1,755,998
8483,35396600,1,0.003877691,-0.009191687,0.0005598787,-0.5653565,-0.1367858,-9.578124000000001,0,0,41.45208,1,1,755,998
8486,35398863,1,0.002762109,-0.006565899,0.002652077,-0.5768577,-0.1116989,-9.600171,0,0,41.45208,1,1,755,998
8517,35401631,1,0.002028971,-0.003623498,0.003529163,-0.5928661,-0.09380391,-9.636735,0,0,41.45248,1,1,755,998
8520,35403802,1,0.002387409,-0.002625827,0.003526748,-0.6049778,-0.08572781,-9.683446999999999,0,0,41.45248,1,1,755,998
8524,35406189,1,0.00166346,-0.003957422,0.002645406,-0.6012312,-0.08013421,-9.715714,0,0,41.45248,1,1,755,998
8527,35412891,1,-0.002244776,-0.0005704135,-0.003070951,-0.5766591,-0.07634536,-9.797345999999999,0,0,41.45288,1,1,755,998
8530,35414285,1,-0.001515215,0.002148493,-0.00386474,-0.5455695,-0.08481107,-9.800903,0,0,41.45288,1,1,755,998
8562,35417181,1,-0.0008391228,0.0005626404999999999,-0.002458788,-0.514506,-0.09021574,-9.792704000000001,0,0,41.45288,1,1,755,998
8566,35419913,1,-0.0005820638,0.001164696,0.0009792227000000001,-0.4923232,-0.09689116,-9.768214,0,0,41.45288,1,1,755,998
8569,35422678,1,-0.001149283,0.002076245,0.003736986,-0.4625537,-0.1043208,-9.719367999999999,0,0,41.45329,1,1,755,998
8572,35424176,1,-0.001875968,0.001631597,0.005707727,-0.4476389,-0.1119821,-9.704834,0,0,41.45329,1,1,755,998
8603,35426664,1,-0.001613339,0.0005288994,0.005550422,-0.4531987,-0.1389431,-9.685457,0,0,41.45329,1,1,755,998
8606,35429498,1,-0.000536277,0.0001171462,0.004747783,-0.4584563,-0.147565,-9.679626000000001,0,0,41.45329,1,1,755,998
8609,35432233,1,0.003260752,0.002088926,0.001630253,-0.4498101,-0.1650379,-9.684843000000001,0,0,41.45329,1,1,755,998
8612,35434863,1,0.003821758,0.002819206,0.00161349,-0.4434881,-0.1789573,-9.673572999999999,0,0,41.4537,1,1,755,998
8644,35437431,1,0.003249906,0.002153621,0.002853716,-0.4321464,-0.1854881,-9.644619,0,0,41.4537,1,1,755,998
8647,35440089,1,-0.001425401,0.001494544,0.0009819262,-0.4354384,-0.1937383,-9.617889999999999,0,0,41.4537,1,1,755,998
8650,35442189,1,-0.003588803,0.001701124,-0.001686805,-0.4433263,-0.194845,-9.611624000000001,0,0,41.4537,1,1,755,998
8653,35445303,1,-0.006616224,0.003406294,-0.008800977,-0.4530131,-0.1911034,-9.602197,0,0,41.45411,1,1,755,998
8684,35448099,1,-0.004890819,0.007880061000000001,-0.01236219,-0.4536662,-0.1756653,-9.613569,0,0,41.45411,1,1,755,998
8687,35450504,1,-0.003391914,0.008923903,-0.01110458,-0.4559422,-0.1593044,-9.635125,0,0,41.45411,1,1,755,998
8690,35452814,1,-0.002179594,0.006464117,-0.001482736,-0.4537866,-0.1349763,-9.657128,0,0,41.45411,1,1,755,998
8693,35455911,1,-0.001466652,0.00408149,0.002057669,-0.4495255,-0.1264272,-9.673496,0,0,41.45453,1,1,755,998
8724,35458267,1,-0.0001964255,-0.0003075135,0.006297156,-0.4360085,-0.1074243,-9.697049,0,0,41.45453,1,1,755,998
8729,35461117,1,0.001098503,-0.001699011,0.008382773,-0.4174242,-0.08373809,-9.721714,0,0,41.45453,1,1,755,998
8732,35463905,1,0.001389053,-0.0001452117,0.008057464,-0.4058196,-0.06707473999999999,-9.715968999999999,0,0,41.45453,1,1,755,998
8739,35466794,1,0.0004432263,0.002794943,0.007093611,-0.3960178,-0.05587057,-9.693851,0,0,41.45495,1,1,755,998
8770,35469138,1,-0.002129413,0.0007738115,0.003614484,-0.3892682,-0.05479314,-9.696014999999999,0,0,41.45495,1,1,755,998
8773,35471646,1,-0.001533628,0.0005483016,0.002167755,-0.3849595,-0.06778097,-9.694686000000001,0,0,41.45495,1,1,755,998
8776,35474202,1,0.0002797679,0.001636448,0.0006963734000000001,-0.3953306,-0.09694339,-9.690198000000001,0,0,41.45495,1,1,755,998
8779,35477256,1,0.001926823,0.003313233,-0.001503162,-0.4083775,-0.1159015,-9.685663999999999,0,0,41.45495,1,1,755,998
8810,35480324,1,0.00459768,0.003317577,-0.003077612,-0.43379,-0.1496996,-9.64141,0,0,41.45536,1,1,755,998
8814,35482560,1,0.005396838,0.002772362,-0.003150972,-0.4366423,-0.1550423,-9.623972,0,0,41.45536,1,1,755,998
8817,35484865,1,0.006937975,0.001810568,-0.0035578,-0.4412338,-0.1544807,-9.606133,0,0,41.45536,1,1,755,998
8820,35487573,1,0.006697208,0.001074124,-0.002656622,-0.4436601,-0.1475187,-9.598762000000001,0,0,41.45536,1,1,755,998
8851,35490598,1,0.004139037,0.001645269,0.001353002,-0.4482759,-0.1232268,-9.609553999999999,0,0,41.4558,1,1,755,998
8855,35492663,1,0.003351577,0.002444963,0.003279726,-0.4526159,-0.1097771,-9.625469000000001,0,0,41.4558,1,1,755,998
8859,35494863,1,0.002242202,0.001870006,0.004786114,-0.4648363,-0.09741377,-9.629738,0,0,41.4558,1,1,755,998
8862,35497490,1,0.0003185979,0.0006488402,0.002767654,-0.4727026,-0.10327,-9.629566000000001,0,0,41.4558,1,1,755,998
8893,35500098,1,-0.002729768,0.001636822,0.001246473,-0.4906587,-0.120235,-9.627686000000001,0,0,41.45624,1,1,755,998
8896,35503541,1,-0.004867748,0.003667344,0.0004282531,-0.4964479,-0.1271988,-9.627297,0,0,41.45624,1,1,755,998
8899,35505614,1,-0.006232248,0.006532795,6.535071e-05,-0.4941067,-0.1266537,-9.628768000000001,0,0,41.45624,1,1,755,998
8902,35507340,1,-0.006452241,0.007108712,0.0003433413,-0.4879234,-0.1290962,-9.618983,0,0,41.45624,1,1,755,998
8933,35509671,1,-0.006154852,0.004085657,-0.0007656884,-0.480537,-0.1244207,-9.607919000000001,0,0,41.45667,1,1,755,998
8937,35512326,1,-0.005612016,0.002975019,-0.00164943,-0.4811755,-0.1173278,-9.611660000000001,0,0,41.45667,1,1,755,998
8940,35515644,1,-0.004049063,0.001330343,-0.00309318,-0.4868551,-0.09606182000000001,-9.624914,0,0,41.45667,1,1,755,998
8943,35518357,1,-0.001919801,0.0006497279,-0.003656958,-0.4884247,-0.08757392999999999,-9.635770000000001,0,0,41.45667,1,1,755,998
8946,35519924,1,-0.002362287,-0.001359163,-0.005761852,-0.4858418,-0.09238686,-9.636979,0,0,41.45667,1,1,755,998
8977,35522677,1,-0.005590939,-0.002817184,-0.006660882,-0.4792714,-0.108874,-9.633241999999999,0,0,41.45707,1,1,755,998
8980,35524827,1,-0.006495039,-0.0008806071,-0.004604673,-0.4787327,-0.1303541,-9.648076,0,0,41.45707,1,1,755,998
8983,35527836,1,-0.004454135,0.001180339,-0.001527501,-0.4823347,-0.1511774,-9.674462999999999,0,0,41.45707,1,1,755,998
8986,35530820,1,-0.002138995,0.002996756,0.001905097,-0.4936562,-0.1740456,-9.711064,0,0,41.45707,1,1,755,998
9017,35533119,1,-0.0003052925,0.004032052,0.003802879,-0.4967633,-0.1711331,-9.732175,0,0,41.45744,1,1,755,998
9022,35535633,1,-0.0004817419,0.007355155,0.004608692,-0.5028276,-0.1499678,-9.741495,0,0,41.45744,1,1,755,998
9027,35538875,1,-0.002136636,0.008775678,0.003576191,-0.51464,-0.1145497,-9.722046000000001,0,0,41.45744,1,1,755,998
9030,35540676,1,-0.00300096,0.007934721,0.002322299,-0.5225168,-0.1065544,-9.702064,0,0,41.45744,1,1,755,998
9063,35543784,1,-0.002032695,0.002706991,-0.002682822,-0.5245535,-0.1104681,-9.679493000000001,0,0,41.45781,1,1,755,998
9066,35545693,1,-0.0009239597,0.00150126,-0.004361495,-0.5256094,-0.1035897,-9.675791,0,0,41.45781,1,1,755,998
9069,35548144,1,0.001554222,0.00248001,-0.0049899,-0.5203223,-0.09326474,-9.664607,0,0,41.45781,1,1,755,998
9072,35551182,1,0.002737878,0.00177897,-0.002112929,-0.5168214,-0.08490127,-9.658064,0,0,41.45781,1,1,755,998
9103,35553626,1,0.002280346,0.0006121453999999999,0.001379994,-0.4970747,-0.06679056,-9.656371,0,0,41.45781,1,1,755,998
9107,35556635,1,0.002232843,0.0006785258,0.002524069,-0.4736285,-0.05418975,-9.624938999999999,0,0,41.45819,1,1,755,998
9110,35558868,1,0.001021477,0.003470174,0.002592796,-0.45605,-0.04519854,-9.594764,0,0,41.45819,1,1,755,998
9113,35561186,1,-0.0008057239,0.005552182,0.00221186,-0.4418602,-0.05277174,-9.541072,0,0,41.45819,1,1,755,998
9144,35564045,1,-0.001859309,0.005851724,0.003259997,-0.4325972,-0.0575882,-9.515347999999999,0,0,41.45819,1,1,755,998
9148,35566226,1,-0.002807388,0.005221192,0.006224961,-0.4256706,-0.06136798,-9.515299000000001,0,0,41.45857,1,1,755,998
9155,35568868,1,-0.003227737,0.004663457,0.007276256,-0.4240571,-0.06442419000000001,-9.538503,0,0,41.45857,1,1,755,998
9158,35571114,1,-0.003089893,0.003610785,0.008753667,-0.4263569,-0.06252339,-9.577418,0,0,41.45857,1,1,755,998
9189,35574237,1,-0.002554163,0.003119228,0.008383453000000001,-0.427285,-0.06183269,-9.618594999999999,0,0,41.45857,1,1,755,998
9192,35576799,1,-0.001692972,0.001938937,0.005245249,-0.433948,-0.09157527,-9.685091,0,0,41.45895,1,1,755,998
9195,35578642,1,-0.002324519,0.001154438,0.003216363,-0.4461161,-0.1170144,-9.721234000000001,0,0,41.45895,1,1,755,998
9198,35581050,1,-0.00227649,0.001576635,-0.001509788,-0.4790888,-0.1527166,-9.775919999999999,0,0,41.45895,1,1,755,998
9229,35583888,1,-0.0005789516,0.007170567,-0.004381528,-0.5100445,-0.167833,-9.79583,0,0,41.45895,1,1,755,998
9233,35586040,1,0.0003224358,0.01004593,-0.003310656,-0.5420734,-0.1802963,-9.793122,0,0,41.45895,1,1,755,998
9236,35588907,1,0.00114168,0.007711088,2.400718e-05,-0.5503597,-0.1835155,-9.783865,0,0,41.45934,1,1,755,998
9240,35591166,1,0.003079929,0.003277561,0.002835026,-0.5392131999999999,-0.1843419,-9.762577,0,0,41.45934,1,1,755,998
9271,35593579,1,0.004044285,0.001783704,0.0038423,-0.5299233,-0.1749526,-9.751795,0,0,41.45934,1,1,755,998
9274,35596811,1,0.004613152,0.001591383,0.003823951,-0.5095229,-0.1672,-9.731712999999999,0,0,41.45934,1,1,755,998
9277,35598821,1,0.003457202,0.0006204245,0.003401279,-0.5009589,-0.1771635,-9.71008,0,0,41.45971,1,1,755,998
9280,35601553,1,0.0004532103,-0.0004898496,0.002529149,-0.5001962,-0.1784241,-9.673257,0,0,41.45971,1,1,755,998
9311,35603696,1,-0.00218354,-0.0001917925,0.003538981,-0.5121246,-0.1630227,-9.664778999999999,0,0,41.45971,1,1,755,998
9315,35606179,1,-0.002359399,-0.0006796217,0.004905966,-0.5265715,-0.1531576,-9.669325000000001,0,0,41.45971,1,1,755,998
9318,35609191,1,-0.001625108,-0.001107336,0.006395054,-0.540246,-0.1396242,-9.68174,0,0,41.46006,1,1,755,998
9321,35612604,1,-0.0008838783,-0.00242884,0.005710776,-0.5523314,-0.1246131,-9.677966,0,0,41.46006,1,1,755,998
9324,35617082,1,0.003140941,-0.0007693351,0.005081515,-0.5613115,-0.06950990999999999,-9.71228,0,0,41.46006,1,1,755,998
9356,35619872,1,0.001494039,0.001453391,0.004026439,-0.5421603,-0.07578465,-9.716949,0,0,41.46038,1,1,755,998
9359,35622033,1,0.0001840313,0.001857883,0.003714094,-0.5241595999999999,-0.09398349,-9.716004,0,0,41.46038,1,1,755,998
9362,35624417,1,-0.0006970572,0.002513518,0.004800687,-0.5105588,-0.1192674,-9.709512999999999,0,0,41.46038,1,1,755,998
9365,35627054,1,8.080344e-05,0.003954333,0.006723281,-0.4923758,-0.1566731,-9.690948000000001,0,0,41.46038,1,1,755,998
9396,35629923,1,-0.0001709503,0.006855744,0.006355889,-0.4804415,-0.1695856,-9.673410000000001,0,0,41.46038,1,1,755,998
9399,35632689,1,0.0003294508,0.008285491000000001,0.006257156,-0.4729284,-0.1745108,-9.654767,0,0,41.46067,1,1,755,998
9402,35634342,1,0.0006829859,0.00908161,0.00625458,-0.474963,-0.1764255,-9.653701999999999,0,0,41.46067,1,1,755,998
9405,35637061,1,0.001619723,0.009860844000000001,0.005029489,-0.4780421,-0.1832962,-9.649668,0,0,41.46067,1,1,755,998
9437,35639813,1,0.002055294,0.009496086000000001,0.004774593,-0.4844037,-0.1960517,-9.656551,0,0,41.46067,1,1,755,998
9440,35642563,1,0.002028763,0.008093052999999999,0.001598403,-0.4933759,-0.1953668,-9.684809,0,0,41.46093,1,1,755,998
9443,35645029,1,0.000549907,0.004822123,-0.003048794,-0.4970658,-0.1806976,-9.698627999999999,0,0,41.46093,1,1,755,998
9446,35647049,1,-0.0005498658,0.001055326,-0.007001716,-0.4908247,-0.1629255,-9.727316,0,0,41.46093,1,1,755,998
9478,35649600,1,-0.001601315,0.001148356,-0.008698431,-0.4799219,-0.1656413,-9.741459000000001,0,0,41.46093,1,1,755,998
9481,35651893,1,-0.002940655,0.002277255,-0.007944869,-0.4718062,-0.1754948,-9.74183,0,0,41.46093,1,1,755,998
9484,35654863,1,-0.002356492,0.002805967,-0.003164968,-0.4763232,-0.1797452,-9.738116,0,0,41.46117,1,1,755,998
9487,35657337,1,-0.00058893,0.004117987,0.002379423,-0.4806796,-0.1746127,-9.737256,0,0,41.46117,1,1,755,998
9518,35660098,1,0.001725947,0.004743071,0.003649834,-0.4823938,-0.1689959,-9.72828,0,0,41.46117,1,1,755,998
9521,35662900,1,0.002456848,0.004760826,0.003125206,-0.4878434,-0.1745441,-9.725376000000001,0,0,41.46117,1,1,755,998
9524,35665486,1,0.004335748,-0.001394639,-0.0001478505,-0.4904115,-0.1828776,-9.730838,0,0,41.46141,1,1,755,998
9528,35667303,1,0.005319275,-0.004443309,-0.0009395569,-0.491069,-0.1810991,-9.733067999999999,0,0,41.46141,1,1,755,998
9564,35669999,1,0.005196084,-0.00556642,0.002768666,-0.4940624,-0.1624343,-9.720299000000001,0,0,41.46141,1,1,755,998
9567,35672767,1,0.004266077,-0.004337265,0.004100731,-0.5028741,-0.1414504,-9.722873999999999,0,0,41.46141,1,1,755,998
9570,35674760,1,0.001637166,-0.0004286835,0.001939854,-0.51222,-0.1284554,-9.753843,0,0,41.46166,1,1,755,998
9573,35677838,1,-2.23166e-05,0.004133537,-0.001651667,-0.5004581,-0.1345362,-9.768826000000001,0,0,41.46166,1,1,755,998
9604,35680393,1,0.001389085,0.006155593,-0.001874671,-0.4763435,-0.1487365,-9.751894,0,0,41.46166,1,1,755,998
9607,35682588,1,0.001920631,0.006472706,-0.001053586,-0.4667027,-0.1445431,-9.733409,0,0,41.46166,1,1,755,998
9610,35685878,1,0.001214497,0.003519126,-0.0009754857,-0.4486948,-0.1314442,-9.70504,0,0,41.46166,1,1,755,998
9613,35688119,1,0.002409303,0.001460274,-0.002067169,-0.4352845,-0.1376917,-9.687715000000001,0,0,41.4619,1,1,755,998
9644,35690557,1,0.004470393,0.002171605,-0.003330289,-0.4263735,-0.1554945,-9.670619,0,0,41.4619,1,1,755,998
9648,35693132,1,0.004911707,0.003562227,-0.004593261,-0.4339771,-0.1733976,-9.633193,0,0,41.4619,1,1,755,998
9651,35695686,1,0.004422479,0.004685251,-0.004300658,-0.4352512,-0.1739323,-9.605183,0,0,41.4619,1,1,755,998
9654,35698174,1,0.001085379,0.00683805,0.0005858419,-0.4403348,-0.1509227,-9.606823,0,0,41.46215,1,1,755,998
9685,35701240,1,-0.001380518,0.004427786,0.001425242,-0.449843,-0.1296888,-9.634493000000001,0,0,41.46215,1,1,755,998
9688,35703528,1,-0.001731217,0.002344658,0.0009269132,-0.4547026,-0.1100348,-9.655991,0,0,41.46215,1,1,755,998
9692,35706089,1,-0.001582396,-0.0009486319,0.0006210038,-0.458137,-0.09540266999999999,-9.674329,0,0,41.46215,1,1,755,998
9695,35708441,1,-0.001826267,-0.001583302,0.0001372571,-0.4624829,-0.09120525,-9.701921,0,0,41.46237,1,1,755,998
9726,35711114,1,-0.003028382,-0.001755517,-0.001371217,-0.4687229,-0.09260101,-9.735431999999999,0,0,41.46237,1,1,755,998
9730,35715124,1,-0.00214498,-0.001969853,-0.001199925,-0.4691558,-0.09420943,-9.753648,0,0,41.46237,1,1,755,998
9733,35716601,1,0.001210029,-0.002102785,0.001135047,-0.4733152,-0.09350765,-9.773759999999999,0,0,41.46237,1,1,755,998
9736,35719139,1,0.00592426,0.0001033652,0.003655514,-0.4921712,-0.1066618,-9.793036000000001,0,0,41.46257,1,1,755,998
9769,35722476,1,0.005967828,0.002077617,0.004645106,-0.5189003,-0.1361262,-9.798693,0,0,41.46257,1,1,755,998
9773,35724317,1,0.005280644,0.002875042,0.005255726,-0.531819,-0.1515531,-9.795246000000001,0,0,41.46257,1,1,755,998
9776,35727099,1,0.002188726,0.005634867,0.002269328,-0.5312173,-0.1716214,-9.779692000000001,0,0,41.46257,1,1,755,998
9780,35729696,1,0.00100638,0.006273569,0.0007472686,-0.5266714,-0.1789412,-9.762941,0,0,41.46257,1,1,755,998
9811,35732056,1,-0.001850128,0.006043418,-0.002091169,-0.5056921,-0.1916982,-9.730036999999999,0,0,41.46274,1,1,755,998
9814,35738065,1,-0.004865632,0.01405547,-0.005935524,-0.4558571,-0.2345397,-9.636236999999999,0,0,41.46274,1,1,755,998
9817,35740329,1,-0.00375633,0.01340401,-0.004953933,-0.4411547,-0.2362409,-9.616426000000001,0,0,41.46274,1,1,755,998
9848,35742838,1,-0.001955766,0.01198548,-0.001178744,-0.4300765,-0.2285425,-9.60524,0,0,41.46288,1,1,755,998
9852,35745246,1,0.0007835160000000001,0.009625834,0.003383764,-0.4253474,-0.2043639,-9.612806000000001,0,0,41.46288,1,1,755,998
9855,35747904,1,0.002786327,0.007935331,0.007593221,-0.425601,-0.1811149,-9.624639999999999,0,0,41.46288,1,1,755,998
9858,35750777,1,0.003825575,0.007213192,0.009920595000000001,-0.4312661,-0.1418354,-9.660368,0,0,41.46288,1,1,755,998
9889,35753190,1,0.005104028,0.0058187,0.008814887,-0.43927,-0.1108416,-9.689303000000001,0,0,41.46301,1,1,755,998
9892,35755897,1,0.005287935,0.004191888,0.005212032,-0.4498806,-0.100377,-9.691525,0,0,41.46301,1,1,755,998
9895,35758175,1,0.004038452,0.001239131,0.001430883,-0.4775519,-0.09408395,-9.665024000000001,0,0,41.46301,1,1,755,998
9898,35761102,1,0.001084191,-0.002393171,-0.002671746,-0.4910713,-0.09356405,-9.637637,0,0,41.46301,1,1,755,998
9929,35763923,1,-0.001165279,-0.001892779,-0.002986254,-0.505244,-0.110553,-9.596628000000001,0,0,41.4631,1,1,755,998
9933,35766266,1,-0.0003209933,0.001222467,0.0007068385,-0.5080637,-0.1293626,-9.563711,0,0,41.4631,1,1,755,998
9936,35769155,1,0.001646114,0.003485658,0.00265824,-0.5028929,-0.1395002,-9.544854000000001,0,0,41.4631,1,1,755,998
9939,35771190,1,0.001631725,0.004383728,0.002263624,-0.4936798,-0.1486125,-9.540689,0,0,41.4631,1,1,755,998
9974,35774295,1,0.0004034226,0.006337104,0.001473363,-0.4836712,-0.1724282,-9.554588000000001,0,0,41.46318,1,1,755,998
9977,35776230,1,-0.001239547,0.007878714,0.0005664856,-0.467325,-0.1821389,-9.558847999999999,0,0,41.46318,1,1,755,998
9980,35778680,1,-0.002280536,0.007187955,0.000520077,-0.4530948,-0.1816983,-9.564590000000001,0,0,41.46318,1,1,755,998
9983,35781611,1,-0.004016181,0.005616771,0.002325386,-0.4494593,-0.1734992,-9.578533999999999,0,0,41.46318,1,1,755,998
10014,35783920,1,-0.003396859,0.005669582,0.005886907,-0.4591108,-0.1479985,-9.588345,0,0,41.46318,1,1,755,998
10018,35786895,1,-0.00199796,0.005812068,0.005059837,-0.4641932,-0.1397268,-9.589933,0,0,41.46324,1,1,755,998
10021,35789116,1,0.001309221,0.005901529,0.001082576,-0.4608535,-0.1443383,-9.604450999999999,0,0,41.46324,1,1,755,998
10024,35791873,1,0.001061112,0.005197633,0.0005821296,-0.4602913,-0.1518773,-9.612240999999999,0,0,41.46324,1,1,755,998
10055,35794089,1,-0.0004881858,0.004212037,-0.001271018,-0.4507432,-0.1649928,-9.630958,0,0,41.46324,1,1,755,998
10059,35797268,1,-0.0006808679,0.00383686,0.0003369592,-0.4406652,-0.1925859,-9.652647999999999,0,0,41.46327,1,1,755,998
10062,35799570,1,-0.0001381193,0.00361165,0.001109946,-0.4382003,-0.2037082,-9.655875999999999,0,0,41.46327,1,1,755,998
10065,35801683,1,0.001499138,0.001726425,0.001617591,-0.4323838,-0.1875428,-9.661072000000001,0,0,41.46327,1,1,755,998
10096,35804727,1,0.002942205,-0.001091741,0.001856121,-0.4297354,-0.1647112,-9.666579,0,0,41.46327,1,1,755,998
10099,35806838,1,0.003281791,-0.001001041,0.0002797116,-0.4188234,-0.1324725,-9.68693,0,0,41.46328,1,1,755,998
10103,35810658,1,0.003719445,0.001437252,-0.000957491,-0.4087223,-0.11238,-9.701909000000001,0,0,41.46328,1,1,755,998
10106,35811864,1,0.003445576,0.003043542,-0.0007026643,-0.4022007,-0.09413121000000001,-9.716875,0,0,41.46328,1,1,755,998
10137,35814558,1,0.003486218,0.003496828,-0.0009273387,-0.400126,-0.08730102000000001,-9.732651000000001,0,0,41.46328,1,1,755,998
10140,35817013,1,0.004854594,0.003380241,-0.002361264,-0.3971573,-0.08519443,-9.740406,0,0,41.46328,1,1,755,998
10143,35819817,1,0.005231186,0.003580937,-0.002892666,-0.3982664,-0.09468016999999999,-9.718508,0,0,41.46329,1,1,755,998
10146,35822608,1,0.004980166,0.004799441,-0.002472629,-0.4140393,-0.1006633,-9.669477000000001,0,0,41.46329,1,1,755,998
10177,35825227,1,0.001611282,0.005169084,-0.001326622,-0.4287816,-0.1088199,-9.64653,0,0,41.46329,1,1,755,998
10180,35827775,1,0.001011269,0.005280895,-0.001627187,-0.435429,-0.1118048,-9.642346,0,0,41.46329,1,1,755,998
10183,35830335,1,0.001196412,0.006972944,-0.001228105,-0.4388344,-0.108623,-9.647047000000001,0,0,41.46331,1,1,755,998
10186,35832896,1,0.002301123,0.008077824000000001,-0.001102569,-0.437562,-0.1066038,-9.648868,0,0,41.46331,1,1,755,998
10217,35836838,1,0.004376034,0.009303636000000001,-0.002495074,-0.4556122,-0.09684854,-9.650957,0,0,41.46331,1,1,755,998
10220,35838056,1,0.002961674,0.003486903,-0.004969076,-0.4822386,-0.08965602,-9.656503000000001,0,0,41.46331,1,1,755,998
10223,35841061,1,-0.0003217053,0.002410562,-0.006402586,-0.4840496,-0.09725861,-9.689442,0,0,41.46337,1,1,755,998
10226,35843519,1,-0.002111186,0.002944723,-0.006593434,-0.4789799,-0.09388049,-9.706258999999999,0,0,41.46337,1,1,755,998
10257,35846552,1,-0.005535681,0.00061517,-0.006457645,-0.4639165,-0.08939332999999999,-9.708807999999999,0,0,41.46337,1,1,755,998
10260,35848828,1,-0.005856781,-0.001112283,-0.005318198,-0.4532543,-0.08783766,-9.717523999999999,0,0,41.46337,1,1,755,998
10264,35850811,1,-0.005100735,-0.00198835,-0.001424162,-0.4291739,-0.08902127,-9.733121000000001,0,0,41.46346,1,1,755,998
10267,35853225,1,-0.002891767,-0.0006954334,0.002185186,-0.4157936,-0.09570495,-9.734591,0,0,41.46346,1,1,755,998
10298,35855670,1,-0.0006271118,0.0009534844,0.001225356,-0.3913403,-0.09444994,-9.712265,0,0,41.46346,1,1,755,998
10302,35858850,1,-0.0003050533,0.0033966,0.0001268045,-0.374248,-0.09590703,-9.689475,0,0,41.46346,1,1,755,998
10305,35861305,1,-0.001275438,0.006770604,0.00113419,-0.3586921,-0.1121636,-9.643852000000001,0,0,41.46346,1,1,755,998
10308,35863831,1,-0.001449918,0.008117551000000001,0.00136767,-0.3572665,-0.1263672,-9.619337,0,0,41.46358,1,1,755,998
10339,35866473,1,-0.0006849089,0.006138618,0.0008178118,-0.3607816,-0.1416215,-9.580348000000001,0,0,41.46358,1,1,755,998
10342,35869619,1,-0.002683431,0.001750664,0.0004272178,-0.3773754,-0.1370236,-9.551437999999999,0,0,41.46358,1,1,755,998
10346,35871303,1,-0.003831564,-0.002589719,-0.0005247434,-0.3963375,-0.1157454,-9.547034999999999,0,0,41.46358,1,1,755,998
10349,35874311,1,-0.003251973,-0.002715835,0.002147769,-0.4235678,-0.08684465,-9.552984,0,0,41.46372,1,1,755,998
10384,35877067,1,-0.001514903,0.0005400236,0.004529962,-0.4565131,-0.07898444,-9.565517,0,0,41.46372,1,1,755,998
10387,35879323,1,-0.0002571927,0.003437909,0.002458376,-0.4796551,-0.09130239,-9.571095,0,0,41.46372,1,1,755,998
10390,35882249,1,0.001400717,0.004891084,0.002319202,-0.5160763,-0.09943713,-9.597763,0,0,41.46372,1,1,755,998
10393,35884634,1,0.002513158,0.00529333,0.003299105,-0.5323268,-0.1032419,-9.613611000000001,0,0,41.46386,1,1,755,998
10424,35887330,1,0.004241144,0.006778687,0.004105198,-0.5391561,-0.1150733,-9.627257,0,0,41.46386,1,1,755,998
10427,35889607,1,0.003916233,0.006430888,0.003520388,-0.5404117000000001,-0.1184297,-9.621397999999999,0,0,41.46386,1,1,755,998
10431,35891814,1,0.003303757,0.005054387,0.001266644,-0.5231284,-0.1306835,-9.607605,0,0,41.46386,1,1,755,998
10434,35894857,1,0.002665822,0.005654837,-0.001569189,-0.5012915,-0.1347922,-9.601265,0,0,41.46386,1,1,755,998
10465,35897294,1,0.00309707,0.004508324,-0.002082495,-0.4700132,-0.1478028,-9.590092,0,0,41.46398,1,1,755,998
10468,35900033,1,0.004146698,0.002392957,-0.001234293,-0.4535338,-0.1575332,-9.603631,0,0,41.46398,1,1,755,998
10471,35902604,1,0.003000474,0.001573313,-0.001572112,-0.4543999,-0.1574163,-9.606849,0,0,41.46398,1,1,755,998
10474,35905303,1,0.001129202,0.002112699,-0.001811304,-0.4586668,-0.1476838,-9.602320000000001,0,0,41.46398,1,1,755,998
10505,35907658,1,-0.0006984402,0.003183821,-0.001066923,-0.4620418,-0.1464314,-9.599024,0,0,41.46413,1,1,755,998
10508,35910639,1,-0.001480978,0.003656069,-0.0006125984,-0.4705976,-0.1366855,-9.606177000000001,0,0,41.46413,1,1,755,998
10512,35912900,1,-0.003998745,0.005479341,-0.0005143376,-0.4678333,-0.1310921,-9.619748,0,0,41.46413,1,1,755,998
10515,35915594,1,-0.008475846,0.009722764,-0.002674048,-0.4625808,-0.1216647,-9.616116999999999,0,0,41.46413,1,1,755,998
10546,35921555,1,-0.006089905,0.007617857,-0.007271387,-0.4389621,-0.08537585,-9.6137,0,0,41.46431,1,1,755,998
10550,35923342,1,-0.001124295,0.004951162,-0.005900785,-0.4345137,-0.07931197,-9.614331999999999,0,0,41.46431,1,1,755,998
10553,35925850,1,-6.214283999999999e-05,0.005032965,-0.00310493,-0.4334773,-0.07989478999999999,-9.600327999999999,0,0,41.46431,1,1,755,998
10587,35929314,1,0.0007206712000000001,0.003804643,-0.002502854,-0.423312,-0.08353615,-9.584091000000001,0,0,41.46453,1,1,755,998
10590,35932334,1,0.001118852,0.002167978,-0.003411458,-0.406763,-0.101854,-9.550380000000001,0,0,41.46453,1,1,755,998
10593,35933888,1,0.0004008625,0.002450077,-0.001681246,-0.4002952,-0.1216171,-9.533443999999999,0,0,41.46453,1,1,755,998
10596,35936116,1,-0.0007099456,0.002916539,0.001913375,-0.4002991,-0.125765,-9.53614,0,0,41.46453,1,1,755,998
10627,35938829,1,-0.001054355,0.004018098,0.004266482,-0.4135983,-0.1312225,-9.526274000000001,0,0,41.46479,1,1,755,998
10630,35941775,1,-0.001483953,0.004554535,0.004170635,-0.4282675,-0.1239457,-9.514554,0,0,41.46479,1,1,755,998
10633,35944657,1,-0.003542308,0.004113377,-0.001433029,-0.4461405,-0.09641973,-9.522107999999999,0,0,41.46479,1,1,755,998
10636,35946122,1,-0.003485425,0.00482486,-0.003491258,-0.4406323,-0.08373851,-9.525611,0,0,41.46479,1,1,755,998
10655,35971565,1,0.0002103108,0.0006720424,0.004590728,-0.478163,-0.1511611,-9.791293,0,0,41.46532,1,1,755,998
10660,35973870,1,-0.0002144214,0.002082254,0.001906392,-0.4860908,-0.1293843,-9.77618,0,0,41.46555,1,1,755,998
10663,35976260,1,-0.001946808,0.004868989,-0.0007122903,-0.4910027,-0.1250133,-9.775734999999999,0,0,41.46555,1,1,755,998
10698,35979648,1,-0.003314273,0.006089415,-0.000423693,-0.498272,-0.1348766,-9.768478,0,0,41.46555,1,1,755,998
10701,35981888,1,-0.00198936,0.005722669,0.00395903,-0.5037847,-0.1461249,-9.756475999999999,0,0,41.46555,1,1,755,998
10704,35983907,1,-0.001083462,0.003666964,0.007138219,-0.5134736,-0.1360356,-9.749374,0,0,41.46574,1,1,755,998
10707,35986154,1,-0.0006256344,0.003259612,0.006726168,-0.5131274,-0.1315742,-9.746938999999999,0,0,41.46574,1,1,755,998
10738,35988770,1,0.0007172425000000001,0.003103034,0.006301615,-0.5114244999999999,-0.1341841,-9.736848,0,0,41.46574,1,1,755,998
10741,35991840,1,8.315570999999999e-06,0.003002627,0.007379611,-0.5051779,-0.1377291,-9.733413000000001,0,0,41.46574,1,1,755,998
10745,35994159,1,-0.001862787,0.004917696,0.008988068,-0.4880596,-0.1477547,-9.730513,0,0,41.46593,1,1,755,998
10748,35996166,1,-0.003161055,0.005354563,0.008737785,-0.4803758,-0.1481779,-9.725012,0,0,41.46593,1,1,755,998
10779,35999179,1,-0.00426737,0.003755119,0.006522838,-0.474159,-0.1439169,-9.725407000000001,0,0,41.46593,1,1,755,998
10782,36001546,1,-0.001336725,0.00218458,0.004139952,-0.4768239,-0.140128,-9.735804999999999,0,0,41.46593,1,1,755,998
10785,36004359,1,0.001744519,0.002997571,0.003319566,-0.4869764,-0.138555,-9.721071999999999,0,0,41.46593,1,1,755,998
10788,36006809,1,0.00453749,0.002421348,0.002709018,-0.4911495,-0.133979,-9.708926999999999,0,0,41.46612,1,1,755,998
10819,36009132,1,0.006284778,0.001227544,0.003024684,-0.4951988,-0.1287894,-9.709977,0,0,41.46612,1,1,755,998
10822,36011339,1,0.006650833,0.0009686945,0.003047545,-0.5062348,-0.1252266,-9.720236999999999,0,0,41.46612,1,1,755,998
10826,36013772,1,0.003206495,0.00183736,0.001086007,-0.5117375,-0.130834,-9.731608,0,0,41.46612,1,1,755,998
10829,36017790,1,0.001840056,0.00235031,0.000710256,-0.5046089,-0.1449842,-9.730005,0,0,41.46631,1,1,755,998
10832,36022118,1,-0.004696832,0.003218401,0.004431971,-0.482114,-0.1802398,-9.715712999999999,0,0,41.46631,1,1,755,998
10863,36024863,1,-0.005428875,0.001607298,0.0055539,-0.4762388,-0.1941752,-9.710571,0,0,41.46631,1,1,755,998
10867,36028085,1,-0.005233369,-0.001591694,0.00554826,-0.4663859,-0.2086128,-9.698414,0,0,41.46651,1,1,755,998
10870,36029887,1,-0.004235236,-0.002073495,0.004361155,-0.4567796,-0.2078976,-9.689259,0,0,41.46651,1,1,755,998
10873,36032107,1,-0.002071111,-0.001059807,0.003754144,-0.4476819,-0.1843652,-9.698771000000001,0,0,41.46651,1,1,755,998
10907,36034560,1,5.258188e-05,0.001149995,0.004274983,-0.4464791,-0.1697104,-9.724904,0,0,41.46651,1,1,755,998
10910,36037232,1,0.001011639,0.003687243,0.003888027,-0.4411411,-0.1508815,-9.752291,0,0,41.46651,1,1,755,998
10913,36039854,1,0.0008741516,0.004133489,0.003528066,-0.4361028,-0.1372452,-9.767274,0,0,41.46672,1,1,755,998
10916,36042492,1,3.735789e-05,-0.0003618825,0.004679455,-0.4205494,-0.1341835,-9.778387,0,0,41.46672,1,1,755,998
10947,36045391,1,0.0002549051,-0.005382659,0.005129302,-0.400529,-0.1200313,-9.780901999999999,0,0,41.46672,1,1,755,998
10951,36047367,1,0.0009799041,-0.001786466,0.002031496,-0.3925654,-0.1118627,-9.800727999999999,0,0,41.46672,1,1,755,998
10954,36049916,1,0.0009283951,0.003211333,-0.0002020418,-0.3812568,-0.123502,-9.831633,0,0,41.46696,1,1,755,998
10957,36052193,1,6.170532e-05,0.005195964,-0.001102017,-0.3686599,-0.1365262,-9.832989,0,0,41.46696,1,1,755,998
10988,36055179,1,-0.001642109,0.007486911,0.0009019483,-0.3541532,-0.165288,-9.811590000000001,0,0,41.46696,1,1,755,998
10991,36057632,1,-0.0009189158,0.006591527,0.001641413,-0.342152,-0.1848876,-9.797810999999999,0,0,41.46696,1,1,755,998
10994,36060209,1,0.001468366,0.005496217,0.0003461944,-0.3502593,-0.1890835,-9.797952,0,0,41.46724,1,1,755,998
10997,36062644,1,0.001513392,0.004905781,4.424546e-05,-0.3712082,-0.1904591,-9.801435,0,0,41.46724,1,1,755,998
11028,36065041,1,-0.000733287,0.001085757,-0.000482819,-0.4005729,-0.1894403,-9.825307,0,0,41.46724,1,1,755,998
11033,36068129,1,-0.003399996,-0.001042265,-0.003435118,-0.4156347,-0.1855707,-9.846685000000001,0,0,41.46724,1,1,755,998
11036,36070230,1,-0.005846339,0.000742952,-0.004717012,-0.4487238,-0.1802687,-9.842302999999999,0,0,41.46724,1,1,755,998
11040,36072527,1,-0.006253158,0.001771448,-0.004752329,-0.4765827,-0.1653869,-9.818089000000001,0,0,41.46753,1,1,755,998
11071,36075214,1,-0.006889746,0.002735861,-0.005346202,-0.5061451,-0.1448438,-9.771756999999999,0,0,41.46753,1,1,755,998
11074,36077624,1,-0.006150436,0.002320818,-0.005116724,-0.5166628,-0.1385342,-9.737690000000001,0,0,41.46753,1,1,755,998
11081,36080856,1,-0.00226797,0.002386591,-0.004427908,-0.518365,-0.1318185,-9.684578999999999,0,0,41.46753,1,1,755,998
11084,36082289,1,-0.001504737,0.00270414,-0.003161409,-0.5199754,-0.1400262,-9.656784,0,0,41.46782,1,1,755,998
11115,36085127,1,-0.0002208525,0.005190318,0.0008641499,-0.5176972,-0.1640063,-9.644716000000001,0,0,41.46782,1,1,755,998
11119,36087779,1,0.001408,0.007037222,0.001942119,-0.5079072,-0.1837829,-9.656046999999999,0,0,41.46782,1,1,755,998
11122,36090324,1,0.001384941,0.005106784,-0.0006562527,-0.4998704,-0.2098637,-9.675246,0,0,41.46782,1,1,755,998
11125,36092828,1,-0.0001740003,0.003200406,-0.001979848,-0.4928084,-0.2289857,-9.673721,0,0,41.46782,1,1,755,998
11156,36095189,1,0.001082517,0.002744286,-0.001868444,-0.4808183,-0.2445661,-9.646485999999999,0,0,41.46812,1,1,755,998
11159,36098265,1,0.003465255,0.002715774,-0.0007601106,-0.4737133,-0.2589278,-9.631686999999999,0,0,41.46812,1,1,755,998
11162,36100368,1,0.007312237,0.002164822,0.0009659281,-0.4713883,-0.2621575,-9.637197,0,0,41.46812,1,1,755,998
11165,36103229,1,0.008813537,0.002687995,0.003456443,-0.4695346,-0.2517557,-9.660468,0,0,41.46812,1,1,755,998
11196,36105600,1,0.007672339,0.003708732,0.004596469,-0.4642299,-0.2344887,-9.670887,0,0,41.46842,1,1,755,998
11200,36107684,1,0.0001869251,0.004700408,0.00334802,-0.4600837,-0.2036464,-9.666717,0,0,41.46842,1,1,755,998
11203,36111087,1,-0.001570557,0.004915232,0.002258667,-0.4666125,-0.1855984,-9.658412999999999,0,0,41.46842,1,1,755,998
11206,36113088,1,-0.003170614,0.005489627,0.0005215394,-0.4722437,-0.1536552,-9.650226999999999,0,0,41.46842,1,1,755,998
11237,36116836,1,-0.003870804,0.003140022,0.0006988447,-0.4688898,-0.1371957,-9.661626999999999,0,0,41.46873,1,1,755,998
11241,36118383,1,-0.004738354,-0.002779966,0.0005397447,-0.4592043,-0.1186967,-9.704335,0,0,41.46873,1,1,755,998
11245,36121099,1,-0.006270401,-0.008309008999999999,-0.0009700209999999999,-0.4404499,-0.09765061,-9.735163999999999,0,0,41.46873,1,1,755,998
11248,36124626,1,-0.00547104,-0.01147197,-0.001655747,-0.4374073,-0.07208096,-9.752732999999999,0,0,41.46873,1,1,755,998
11251,36126777,1,-0.001812873,-0.006693055,-0.001049787,-0.4380559,-0.04403814,-9.765033000000001,0,0,41.46906,1,1,755,998
11282,36128959,1,0.002549413,0.004358616,0.001029497,-0.4418053,-0.04137756,-9.769669,0,0,41.46906,1,1,755,998
11287,36132270,1,0.003094071,0.005974668,0.001232489,-0.4538599,-0.04819737,-9.77871,0,0,41.46906,1,1,755,998
11290,36134610,1,0.002338317,0.007468582,0.001453912,-0.4686917,-0.06315152,-9.788468,0,0,41.46906,1,1,755,998
11293,36137171,1,0.001980975,0.009227098,-0.002015144,-0.4766781,-0.08039195,-9.785342999999999,0,0,41.46906,1,1,755,998
11324,36140581,1,0.002043671,0.01075293,-0.003670484,-0.4776002,-0.1156053,-9.753325999999999,0,0,41.46939,1,1,755,998
11328,36142161,1,0.002057157,0.009389112999999999,-0.003582743,-0.4741285,-0.1230854,-9.731552000000001,0,0,41.46939,1,1,755,998
11331,36144726,1,0.002523592,0.001236982,-0.001427502,-0.4865758,-0.1206681,-9.699434999999999,0,0,41.46939,1,1,755,998
11334,36147323,1,0.00261613,-0.0001918585,-9.34811e-05,-0.4951098,-0.1225104,-9.686242999999999,0,0,41.46939,1,1,755,998
11366,36150529,1,0.001914311,-0.002146636,0.000606822,-0.4973873,-0.1319787,-9.677603,0,0,41.46973,1,1,755,998
11369,36152692,1,-0.000209066,-0.003603893,0.001057849,-0.4914383,-0.1412788,-9.674248,0,0,41.46973,1,1,755,998
11372,36155020,1,-0.002733792,-0.003949766,0.004219885,-0.4775743,-0.155715,-9.669617000000001,0,0,41.46973,1,1,755,998
11375,36157513,1,-0.004097162,-0.003080802,0.005849256,-0.4744482,-0.1637747,-9.663638000000001,0,0,41.46973,1,1,755,998
11406,36160152,1,-0.003971456,-0.001647684,0.004754299,-0.4673431,-0.1537021,-9.661519,0,0,41.47008,1,1,755,998
11410,36162667,1,-0.003030036,-0.001209648,0.004225499,-0.4630913,-0.145074,-9.664705,0,0,41.47008,1,1,755,998
11413,36165262,1,-0.0001570419,0.0002354522,0.004831154,-0.4570122,-0.1295399,-9.680018,0,0,41.47008,1,1,755,998
11416,36167351,1,-0.0002949163,0.0007906226,0.005328175,-0.4456005,-0.1173298,-9.682683000000001,0,0,41.47008,1,1,755,998
11447,36169807,1,-0.002696346,0.0008149145,0.003314177,-0.4305806,-0.1011844,-9.687347000000001,0,0,41.47042,1,1,755,998
11452,36172609,1,-0.002023654,0.0008893768,0.001270294,-0.423445,-0.09609054,-9.692987,0,0,41.47042,1,1,755,998
11457,36175261,1,0.0008656967999999999,0.001881217,-0.003851418,-0.4254707,-0.102765,-9.691839999999999,0,0,41.47042,1,1,755,998
11460,36177608,1,0.001258619,0.002904,-0.006664238,-0.4190254,-0.1100354,-9.673203000000001,0,0,41.47042,1,1,755,998
11491,36180541,1,0.0001168395,0.003093514,-0.006605384,-0.4126574,-0.1156759,-9.643228000000001,0,0,41.47042,1,1,755,998
11498,36182850,1,-0.003239014,0.001037331,-0.00616648,-0.4129294,-0.1165251,-9.618344,0,0,41.47072,1,1,755,998
11501,36185115,1,-0.007604288,-0.001633309,-0.008920498000000001,-0.4130179,-0.1211417,-9.597377,0,0,41.47072,1,1,755,998
11504,36187758,1,-0.009177202000000001,-0.001851603,-0.01048527,-0.4225434,-0.1226278,-9.58422,0,0,41.47072,1,1,755,998
11535,36190183,1,-0.01169775,0.0003900653,-0.01131959,-0.4401657,-0.1285392,-9.583439,0,0,41.47072,1,1,755,998
11539,36193292,1,-0.01089268,0.0009961324,-0.01047492,-0.4504634,-0.1282511,-9.583392999999999,0,0,41.47101,1,1,755,998
11542,36195304,1,-0.007339776,0.002242042,-0.008383109,-0.4576551,-0.1322075,-9.567671000000001,0,0,41.47101,1,1,755,998
11545,36197793,1,-0.003619643,0.00468304,-0.006554811,-0.4624225,-0.1350238,-9.552267000000001,0,0,41.47101,1,1,755,998
11576,36200887,1,-0.0003135049,0.007567196,-0.003071824,-0.4836437,-0.1331579,-9.549032,0,0,41.47101,1,1,755,998
11579,36202829,1,0.0003742994,0.008427986,-0.002382237,-0.4981206,-0.1292362,-9.549901,0,0,41.47101,1,1,755,998
11582,36205653,1,-0.001312252,0.008833779999999999,-0.001469872,-0.5051873,-0.1341165,-9.557176,0,0,41.4713,1,1,755,998
11585,36207804,1,-0.002100483,0.008467247000000001,0.0001287563,-0.5126598,-0.1444983,-9.570247,0,0,41.4713,1,1,755,998
11616,36210157,1,-0.004563536,0.005383872,0.003278066,-0.52003,-0.17705,-9.608256000000001,0,0,41.4713,1,1,755,998
11620,36213187,1,-0.004726116,0.004542936,0.003366311,-0.5202529,-0.1946482,-9.638642000000001,0,0,41.4713,1,1,755,998
11623,36215508,1,-0.004454832,0.002847364,0.00452977,-0.5275126999999999,-0.1977898,-9.667449,0,0,41.47158,1,1,755,998
11626,36217780,1,-0.005038113,0.003674063,0.004548301,-0.5294305,-0.1923763,-9.677775,0,0,41.47158,1,1,755,998
11657,36220701,1,-0.006412752,0.005569353,0.005493427,-0.522289,-0.1914452,-9.696939,0,0,41.47158,1,1,755,998
11660,36222858,1,-0.00887683,0.004452682,0.005046216,-0.5121547,-0.1931453,-9.725006,0,0,41.47158,1,1,755,998
11663,36228098,1,-0.01049767,0.003402305,-0.006041524,-0.481253,-0.156674,-9.773054,0,0,41.47186,1,1,755,998
11694,36231856,1,-0.006765374,0.00695319,-0.008524332000000001,-0.4828129,-0.1362855,-9.778779,0,0,41.47186,1,1,755,998
11698,36233496,1,-0.006279754,0.00733163,-0.008341321,-0.4802026,-0.12617,-9.785140999999999,0,0,41.47186,1,1,755,998
11701,36236313,1,-0.007010097,0.006230928,-0.007848544000000001,-0.4802159,-0.1132344,-9.783853000000001,0,0,41.47213,1,1,755,998
11704,36238880,1,-0.007424009,0.004694268,-0.008390902,-0.4747247,-0.1021624,-9.776244999999999,0,0,41.47213,1,1,755,998
11735,36241492,1,-0.007870913,0.001813147,-0.007453662,-0.4694582,-0.07728594,-9.755075,0,0,41.47213,1,1,755,998
11739,36244170,1,-0.007511124,0.001572484,-0.005381254,-0.4636788,-0.04932813,-9.740225000000001,0,0,41.47213,1,1,755,998
11742,36247268,1,-0.006469565,0.004614465,-0.004301879,-0.4620774,-0.04061978,-9.729161,0,0,41.47213,1,1,755,998
11745,36249381,1,-0.003756111,0.0062088,-0.005373884,-0.4657226,-0.0360761,-9.697312,0,0,41.47242,1,1,755,998
11776,36251783,1,-0.001568852,0.006192101,-0.006662096,-0.4614836,-0.03690561,-9.677555,0,0,41.47242,1,1,755,998
11780,36254631,1,-0.0007790207,0.004210646,-0.006617615,-0.4581486,-0.04867849,-9.669822,0,0,41.47242,1,1,755,998
11783,36257135,1,0.001262224,0.001822223,-0.005733112,-0.453306,-0.06608198,-9.658187,0,0,41.47242,1,1,755,998
11786,36259699,1,0.003191613,-0.0009258878,-0.004323054,-0.455975,-0.08075562,-9.646252,0,0,41.47272,1,1,755,998
11817,36262536,1,0.003706329,-0.004011135,-0.0006992418,-0.4681385,-0.09114686,-9.651057,0,0,41.47272,1,1,755,998
11821,36264848,1,0.003019629,-0.005984282,0.00104267,-0.4694667,-0.1000011,-9.675485999999999,0,0,41.47272,1,1,755,998
11824,36267102,1,0.001438156,-0.003559469,-0.0004609288,-0.4731329,-0.1179009,-9.72916,0,0,41.47272,1,1,755,998
11827,36269690,1,0.0007582688,-0.0008295992000000001,-0.001443136,-0.4798223,-0.1189705,-9.762245999999999,0,0,41.47303,1,1,755,998
11858,36271896,1,0.001925244,0.004330726,-0.002730755,-0.4834755,-0.1048002,-9.787941999999999,0,0,41.47303,1,1,755,998
11861,36275060,1,0.001645359,0.004977541,-0.001780297,-0.4763301,-0.09164663000000001,-9.783196999999999,0,0,41.47303,1,1,755,998
11864,36277658,1,0.0001395668,0.005341697,0.001848373,-0.4706658,-0.08365364,-9.76388,0,0,41.47303,1,1,755,998
11868,36279604,1,-0.00264713,0.005368257,0.004080934,-0.4750823,-0.09186176,-9.752136999999999,0,0,41.47303,1,1,755,998
11899,36282058,1,-0.004767238,0.00517734,0.003283923,-0.4786896,-0.1032258,-9.729374999999999,0,0,41.47334,1,1,755,998
11907,36284704,1,-0.00534445,0.0039481,0.003101496,-0.4787079,-0.1170151,-9.706395000000001,0,0,41.47334,1,1,755,998
11910,36287276,1,-0.004298557,0.002803185,0.004223941,-0.4701122,-0.1390032,-9.681445,0,0,41.47334,1,1,755,998
11914,36290229,1,-0.003392319,0.002771373,0.00362827,-0.4716497,-0.1619714,-9.676292,0,0,41.47334,1,1,755,998
11945,36293107,1,0.0009050419,0.003248312,-0.001736406,-0.4826472,-0.1977639,-9.681312,0,0,41.47364,1,1,755,998
11948,36295446,1,0.001965284,0.002349783,-0.004739281,-0.4926941,-0.2226379,-9.683678,0,0,41.47364,1,1,755,998
11951,36297798,1,0.002069271,0.001805731,-0.005007758,-0.494842,-0.2343938,-9.674454000000001,0,0,41.47364,1,1,755,998
11954,36300600,1,0.001510788,0.0001949613,-0.004196995,-0.4971012,-0.2457332,-9.648438000000001,0,0,41.47364,1,1,755,998
11985,36303364,1,-0.0002966949,-0.002282378,-0.001837892,-0.4886031,-0.22399,-9.632652,0,0,41.47394,1,1,755,998
11989,36305340,1,-0.001777637,-0.003300767,-0.0004224858,-0.4798431,-0.2123715,-9.641665,0,0,41.47394,1,1,755,998
11992,36308077,1,-0.00214169,-0.001112199,-0.001027669,-0.4708381,-0.1809199,-9.680482,0,0,41.47394,1,1,755,998
11995,36310646,1,-0.002296712,0.001172682,-0.001726231,-0.4714032,-0.1544019,-9.714968000000001,0,0,41.47394,1,1,755,998
12026,36313622,1,0.0003711931,0.008388993000000001,-0.004173858,-0.4775231,-0.1301778,-9.748094999999999,0,0,41.47424,1,1,755,998
12030,36315674,1,0.001818004,0.009285832000000001,-0.003642983,-0.4816952,-0.1261774,-9.748336999999999,0,0,41.47424,1,1,755,998
12033,36318037,1,0.00361782,0.008433341,-0.001590221,-0.4867658,-0.1259193,-9.733632999999999,0,0,41.47424,1,1,755,998
12036,36320524,1,0.003007337,0.005696495,0.000139889,-0.4831387,-0.1178683,-9.733787,0,0,41.47424,1,1,755,998
12067,36323349,1,0.002011375,0.006208172,0.0007333704,-0.4796184,-0.1123036,-9.744172000000001,0,0,41.47424,1,1,755,998
12070,36325626,1,0.0003239358,0.00896513,0.00132412,-0.4774045,-0.1225283,-9.754656000000001,0,0,41.47453,1,1,755,998
12073,36328162,1,-0.002467522,0.01097526,0.001007485,-0.4742982,-0.1286004,-9.763798,0,0,41.47453,1,1,755,998
12076,36333131,1,0.001475965,0.00401267,0.001432374,-0.4898027,-0.1126612,-9.755406000000001,0,0,41.47453,1,1,755,998
12110,36339362,1,0.003390629,-0.001675533,0.0037846,-0.4670823,-0.07210438,-9.740800999999999,0,0,41.47481,1,1,755,998
12113,36341881,1,0.0003673318,-0.001198867,0.002043042,-0.4591243,-0.06199133,-9.735692,0,0,41.47481,1,1,755,998
12116,36344151,1,-0.003534399,0.001065307,-0.00134154,-0.4586246,-0.06263452999999999,-9.741974000000001,0,0,41.47481,1,1,755,998
