LineNo,TimeUS,I,GyrX,GyrY,GyrZ,AccX,AccY,AccZ,EG,EA,T,GH,AH,GHz,AHz
182,33256349,0,-0.002215127,-0.0002059412,-0.002096142,-0.3773156,-0.09004355999999999,-9.713393999999999,0,0,40.74245,1,1,8010,4005
213,33259140,0,-0.002347859,-0.0007848943,-0.00245316,-0.3730536,-0.09267317999999999,-9.71471,0,0,40.74252,1,1,8010,4005
289,33285681,0,-0.003183575,-0.001900355,-0.0002787595,-0.3702298,-0.08121099,-9.738111,0,0,40.74319,1,1,8010,4005
405,33309404,0,-0.00135014,-0.0006950307,0.001235409,-0.3994962,-0.08490397,-9.756392999999999,0,0,40.7438,1,1,8010,4005
520,33334855,0,0.00264626,-0.001519442,0.00122686,-0.3871023,-0.08744948,-9.757593999999999,0,0,40.74464,1,1,8010,4005
551,33337667,0,0.002123516,-0.001788431,0.0008595601999999999,-0.3882886,-0.08664751,-9.760450000000001,0,0,40.74472,1,1,8010,4005
631,33358133,0,0.001435281,-0.0008575912,0.0004538852,-0.4218714,-0.08809367999999999,-9.728035999999999,0,0,40.74524,1,1,8010,4005
747,33384900,0,0.003596501,0.0003055037,0.001004146,-0.4126882,-0.1021787,-9.743714000000001,0,0,40.74599,1,1,8010,4005
862,33405910,0,-0.0003145686,-0.0004251307,-0.0008184216,-0.4137263,-0.1023878,-9.758362,0,0,40.74664,1,1,8010,4005
978,33436545,0,-0.002374303,0.0006302143,-0.001030635,-0.4065803,-0.07610872,-9.745905,0,0,40.74782,1,1,8010,4005
1009,33439609,0,-0.002497212,0.000293105,-0.001575025,-0.4022954,-0.07919034,-9.740216,0,0,40.74785,1,1,8010,4005
1089,33476225,0,-0.001554516,-9.24132e-05,-0.0004126687,-0.3844642,-0.08067414000000001,-9.721771,0,0,40.74849,1,1,8010,4005
1204,33569561,0,-0.001789951,-0.001016803,-0.0003874763,-0.4167056,-0.1016188,-9.723757000000001,0,0,40.75208,1,1,8010,4005
1296,33614185,0,-0.001326207,0.0005535466,0.0004439806,-0.4422199,-0.08997149,-9.742357999999999,0,0,40.7539,1,1,8010,4005
1327,33617187,0,0.00125086,0.0007813385,0.001473879,-0.4370467,-0.08486719,-9.745851999999999,0,0,40.75409,1,1,8010,4005
1388,33633490,0,0.001383345,0.00151582,0.001279764,-0.4209406,-0.09081520999999999,-9.768867999999999,0,0,40.75478,1,1,8010,4005
1481,33648343,0,0.0009586043,-0.001334888,0.00289634,-0.414883,-0.1055138,-9.728745999999999,0,0,40.75523,1,1,8010,4005
1566,33653495,0,0.002322038,-0.0006209532,0.001838892,-0.4161767,-0.1024082,-9.713678,0,0,40.75539,1,1,8010,4005
1569,33656296,0,0.002751925,-0.0004758906,0.002990116,-0.4183025,-0.1022835,-9.711155,0,0,40.75549,1,1,8010,4005
1570,33660692,0,0.001389614,0.000147102,0.002886004,-0.4234875,-0.09884782,-9.714885000000001,0,0,40.75572,1,1,8010,4005
1604,33663202,0,0.001274339,0.0006786953,0.002594779,-0.426216,-0.09586699,-9.715956,0,0,40.7558,1,1,8010,4005
1607,33666092,0,0.001095842,0.001487373,0.002863789,-0.428103,-0.0940043,-9.715668000000001,0,0,40.75592,1,1,8010,4005
1611,33668580,0,0.0006653218999999999,0.001448888,0.003494705,-0.4275891,-0.09425037999999999,-9.713511,0,0,40.75599,1,1,8010,4005
1616,33670677,0,0.0006767686,0.0007162303,0.003690663,-0.4259503,-0.09538505,-9.707789999999999,0,0,40.75611,1,1,8010,4005
1647,33673388,0,0.001172924,0.0002488674,0.00345722,-0.4228137,-0.09575614,-9.705587,0,0,40.75618,1,1,8010,4005
1650,33675790,0,0.001529904,-0.0005361033,0.003074972,-0.4154893,-0.09447601,-9.705373,0,0,40.75631,1,1,8010,4005
1654,33679635,0,0.001155925,-4.242701e-05,0.002477619,-0.4097652,-0.09349022999999999,-9.706595999999999,0,0,40.75637,1,1,8010,4005
1657,33682560,0,0.0009810769000000001,0.0005286459,0.002219466,-0.4015202,-0.09317214,-9.711463999999999,0,0,40.7565,1,1,8010,4005
1660,33684093,0,0.0009458663,0.0001418963,0.001833865,-0.3949486,-0.09376729,-9.717537,0,0,40.7566,1,1,8010,4005
1691,33686552,0,0.001014764,0.0006780159,0.0005857466,-0.3904022,-0.09411406999999999,-9.722251,0,0,40.75671,1,1,8010,4005
1694,33690092,0,0.001287783,0.001022369,-0.0006249215,-0.3874673,-0.09583179999999999,-9.724798,0,0,40.75676,1,1,8010,4005
1697,33691828,0,0.001756016,0.001274247,-0.0009210768,-0.3852032,-0.09969341,-9.727912999999999,0,0,40.75686,1,1,8010,4005
1700,33694775,0,0.001756759,0.001729477,-0.0006554992,-0.3838251,-0.1012787,-9.728923,0,0,40.75697,1,1,8010,4005
1731,33697134,0,0.001907693,0.002152996,-0.0007410979,-0.3827326,-0.09978518,-9.731601,0,0,40.75706,1,1,8010,4005
1735,33700395,0,0.0009663733,0.00211497,-0.001007236,-0.3823668,-0.09623746,-9.732675,0,0,40.75716,1,1,8010,4005
1738,33702312,0,0.0004253348,0.001374708,-0.0009708153,-0.3824962,-0.09441711999999999,-9.733477000000001,0,0,40.75724,1,1,8010,4005
1741,33704868,0,-3.77125e-05,5.361372e-06,-0.0008234247,-0.3818231,-0.09277665,-9.734628000000001,0,0,40.75731,1,1,8010,4005
1772,33707622,0,-6.854099000000001e-05,-0.0008004114,-0.0006073856,-0.3820573,-0.0924415,-9.737472,0,0,40.75734,1,1,8010,4005
1775,33709795,0,3.383986e-05,-0.001054223,-0.0004455745,-0.3836661,-0.09207068,-9.743218000000001,0,0,40.75738,1,1,8010,4005
1778,33712606,0,-0.0004367746,-0.0001828744,-0.0001690878,-0.3845904,-0.09314263,-9.745682,0,0,40.75741,1,1,8010,4005
1781,33714889,0,-0.002184791,0.001050921,-9.904816e-05,-0.3849539,-0.09515229,-9.750378,0,0,40.75751,1,1,8010,4005
1812,33717202,0,-0.003323477,0.0006504068,-0.0004521284,-0.3842175,-0.09705912999999999,-9.754412,0,0,40.7576,1,1,8010,4005
1816,33719728,0,-0.003571217,-0.0004659371,-0.0008054778,-0.3846945,-0.1010601,-9.759444999999999,0,0,40.75769,1,1,8010,4005
1823,33722816,0,-0.003419981,-0.0009543779,-0.001156594,-0.3871124,-0.1029676,-9.76139,0,0,40.75778,1,1,8010,4005
1828,33725834,0,-0.003718243,-0.0003904623,-0.001834539,-0.3918504,-0.1018785,-9.760429,0,0,40.75788,1,1,8010,4005
1859,33728784,0,-0.003563725,0.0002865629,-0.001306124,-0.3953124,-0.09828629,-9.756985999999999,0,0,40.75793,1,1,8010,4005
1862,33730684,0,-0.003490925,0.001394743,-0.0004992751,-0.3981234,-0.09489603000000001,-9.74919,0,0,40.75802,1,1,8010,4005
1865,33733210,0,-0.003567158,0.00185739,-0.001565331,-0.399257,-0.09194281,-9.742989,0,0,40.75806,1,1,8010,4005
1868,33736125,0,-0.002207546,0.002085121,-0.001882165,-0.4002122,-0.08592439,-9.735014,0,0,40.75813,1,1,8010,4005
1899,33738613,0,-0.001552692,0.002419912,-0.001948754,-0.3993404,-0.08109381,-9.732734000000001,0,0,40.75821,1,1,8010,4005
1903,33741152,0,-0.001326973,0.001804473,-0.002726075,-0.39835,-0.07833408,-9.73273,0,0,40.75827,1,1,8010,4005
1906,33743892,0,-0.0009322903,0.0008370033,-0.003027357,-0.3964536,-0.07474788,-9.732295000000001,0,0,40.75835,1,1,8010,4005
1909,33746497,0,-0.0005696295000000001,0.001050046,-0.002506777,-0.3932773,-0.07448167999999999,-9.733533,0,0,40.7584,1,1,8010,4005
1940,33749116,0,-0.0006641888,0.0007182489,-0.001899227,-0.3874298,-0.07725541,-9.735519,0,0,40.75847,1,1,8010,4005
1943,33751801,0,-0.001305249,0.0005034871,-0.001815527,-0.3834193,-0.07996509,-9.734743,0,0,40.75852,1,1,8010,4005
1947,33753598,0,-0.00273111,0.0005629797,-0.001848496,-0.3786014,-0.0832582,-9.734038999999999,0,0,40.75861,1,1,8010,4005
1950,33755900,0,-0.002793872,0.0003614464,-0.001624147,-0.3772611,-0.08501064999999999,-9.733691,0,0,40.75866,1,1,8010,4005
1981,33758356,0,-0.002426256,0.0001147433,-0.001761831,-0.3754385,-0.08809214999999999,-9.733535,0,0,40.75874,1,1,8010,4005
1985,33764650,0,-0.000178864,-0.001918334,-0.001540384,-0.3783886,-0.08934404999999999,-9.728085,0,0,40.75885,1,1,8010,4005
1988,33766844,0,0.0002782836,-0.002335276,-0.0009186937,-0.3838355,-0.08890031,-9.726125,0,0,40.75891,1,1,8010,4005
2019,33769084,0,0.001048382,-0.001639342,-0.0004112708,-0.386774,-0.08928147,-9.724847,0,0,40.75896,1,1,8010,4005
2023,33772094,0,0.00113032,-0.0003329085,-0.0003658572,-0.3901826,-0.08959011,-9.722761,0,0,40.75903,1,1,8010,4005
2026,33774200,0,0.0002233986,-0.0006192447,-0.0004631154,-0.3921649,-0.09067438,-9.722041000000001,0,0,40.75909,1,1,8010,4005
2029,33776920,0,-0.0004449809,-0.001208536,0.0003410529,-0.3945884,-0.09305865000000001,-9.720094,0,0,40.75922,1,1,8010,4005
2060,33779903,0,-0.0004756552,-0.001496862,0.0009644278,-0.3956638,-0.09378549,-9.717364,0,0,40.75928,1,1,8010,4005
2063,33781579,0,-0.0002141567,-0.001911703,0.001545741,-0.3968006,-0.09187074000000001,-9.716951999999999,0,0,40.75939,1,1,8010,4005
2066,33784690,0,-2.206696e-05,-0.001417444,0.001536108,-0.3968272,-0.08982749,-9.719174000000001,0,0,40.75947,1,1,8010,4005
2069,33786662,0,0.0005211452000000001,-0.0003218978,0.001135253,-0.3977845,-0.08798586999999999,-9.721938,0,0,40.75964,1,1,8010,4005
2100,33789346,0,0.0006659831,4.3612e-05,0.001598193,-0.3993372,-0.08721801999999999,-9.722908,0,0,40.75974,1,1,8010,4005
2104,33793128,0,0.001069249,-0.001061278,0.001789737,-0.4017271,-0.08425821,-9.722173,0,0,40.75993,1,1,8010,4005
2107,33795056,0,0.001196313,-0.002005628,0.001065937,-0.4042792,-0.08215865,-9.717354,0,0,40.76009,1,1,8010,4005
2110,33797208,0,0.0006786546,-0.001633726,0.001235507,-0.405631,-0.08221613999999999,-9.717286,0,0,40.7602,1,1,8010,4005
2141,33799538,0,0.0006256569999999999,-0.0009897113,0.001674921,-0.4052773,-0.0829054,-9.716568000000001,0,0,40.76044,1,1,8010,4005
2144,33802115,0,0.001173623,-0.00011106,0.002290568,-0.4052269,-0.08286659,-9.714363000000001,0,0,40.76057,1,1,8010,4005
2148,33805099,0,0.002376163,0.0001415479,0.002961542,-0.4056109,-0.08291679,-9.712503999999999,0,0,40.76073,1,1,8010,4005
2151,33807579,0,0.003271936,-0.0005346842,0.002235622,-0.403613,-0.08431481,-9.714752000000001,0,0,40.76089,1,1,8010,4005
2182,33810095,0,0.002329609,-0.001252027,0.001835336,-0.401376,-0.08529312,-9.723036,0,0,40.76104,1,1,8010,4005
2186,33812652,0,0.001407009,-0.001095942,0.002200881,-0.4007923,-0.08465988000000001,-9.731362000000001,0,0,40.76114,1,1,8010,4005
2189,33815146,0,0.001387111,-0.00138166,0.001709217,-0.4000852,-0.08403333,-9.744694000000001,0,0,40.76129,1,1,8010,4005
2192,33817663,0,0.002119961,-0.00197992,0.001475441,-0.3993826,-0.08498505000000001,-9.75123,0,0,40.76142,1,1,8010,4005
2223,33820663,0,0.002554036,-0.001504696,0.001644218,-0.3984489,-0.08921634000000001,-9.756732,0,0,40.76155,1,1,8010,4005
2226,33822793,0,0.002355007,-0.001251063,0.001903027,-0.398068,-0.09269141,-9.758824000000001,0,0,40.76163,1,1,8010,4005
2233,33825357,0,0.002067314,-0.0007431366999999999,0.002069703,-0.3970979,-0.09758828,-9.76074,0,0,40.76176,1,1,8010,4005
2236,33827629,0,0.002117932,0.0002453599,0.002187665,-0.3966175,-0.09935112,-9.761123,0,0,40.76191,1,1,8010,4005
2267,33830647,0,0.0008938187999999999,-7.513358e-05,0.001388484,-0.397357,-0.09962056,-9.762465000000001,0,0,40.76209,1,1,8010,4005
2271,33832900,0,0.0005913751,-0.0007550973,0.0007457146,-0.4004964,-0.1007083,-9.763857,0,0,40.76223,1,1,8010,4005
2274,33835694,0,0.0007612597,-0.001508484,0.0002292951,-0.404331,-0.1023924,-9.763712999999999,0,0,40.76239,1,1,8010,4005
2277,33837598,0,0.0006884857,-0.001926292,0.0001961956,-0.4086729,-0.1049572,-9.763285,0,0,40.76258,1,1,8010,4005
2308,33840022,0,-0.0001512309,-0.001621066,0.001021251,-0.4154136,-0.1072172,-9.759709000000001,0,0,40.76278,1,1,8010,4005
2315,33842915,0,-0.0007916504,-0.0008129325,0.001556354,-0.4190169,-0.1072105,-9.757130999999999,0,0,40.76292,1,1,8010,4005
2318,33845370,0,-0.001930379,-3.478684e-05,0.00120103,-0.4195025,-0.1072415,-9.755485999999999,0,0,40.76315,1,1,8010,4005
2322,33847380,0,-0.002816549,0.0003231467,0.001499559,-0.418985,-0.1069368,-9.752342000000001,0,0,40.76329,1,1,8010,4005
2353,33850212,0,-0.003925576,0.001477157,0.0009806831,-0.4183401,-0.1043134,-9.747235,0,0,40.7635,1,1,8010,4005
2356,33852333,0,-0.003322557,0.001498904,0.0003837289,-0.4174216,-0.1017135,-9.744267000000001,0,0,40.76364,1,1,8010,4005
2359,33855171,0,-0.001051216,0.001298664,-0.0002973065,-0.4153809,-0.09953142,-9.740572,0,0,40.76382,1,1,8010,4005
2362,33858845,0,-0.0002074046,0.001308871,-0.000147547,-0.4135672,-0.1001054,-9.738630000000001,0,0,40.76395,1,1,8010,4005
2365,33860873,0,-0.0008742155,0.001439911,8.960485e-05,-0.4109659,-0.1008933,-9.735801,0,0,40.7642,1,1,8010,4005
2397,33863185,0,7.369870000000001e-05,0.001196766,0.0001753164,-0.4079615,-0.09813178,-9.731735,0,0,40.76439,1,1,8010,4005
2400,33865888,0,1.542229e-05,0.0008808178,-7.388194e-05,-0.408107,-0.09315792000000001,-9.729193,0,0,40.76458,1,1,8010,4005
2403,33869278,0,-0.0001185471,0.0009992261,-0.0003833182,-0.408743,-0.0907385,-9.727411999999999,0,0,40.76471,1,1,8010,4005
2406,33872155,0,3.051262e-05,0.001262675,-0.0007086843,-0.4101093,-0.08854774,-9.724465,0,0,40.76491,1,1,8010,4005
2437,33874506,0,-0.0007440179,0.001095494,-0.0004316927,-0.4121026,-0.08776004,-9.723189,0,0,40.76518,1,1,8010,4005
2441,33877287,0,-0.001594327,0.0009911426,-0.0009135901,-0.4138332,-0.08578980999999999,-9.722572,0,0,40.76532,1,1,8010,4005
2444,33880285,0,-0.001843852,0.0008374943,-0.001192357,-0.4145104,-0.0840027,-9.723471999999999,0,0,40.76546,1,1,8010,4005
2447,33882205,0,-0.001449917,0.0006499236,-0.0008457023,-0.4138719,-0.08364697,-9.724375,0,0,40.76565,1,1,8010,4005
2478,33885566,0,-0.001563545,-9.503507000000001e-05,-0.000978851,-0.4132678,-0.08382754000000001,-9.722747999999999,0,0,40.76583,1,1,8010,4005
2481,33887081,0,-0.002000965,-0.0007087688,-0.001184451,-0.4129539,-0.08428752,-9.722265999999999,0,0,40.76595,1,1,8010,4005
2484,33890282,0,-0.001657236,-0.001144139,-0.001263564,-0.4100007,-0.08444665,-9.724411999999999,0,0,40.76609,1,1,8010,4005
2487,33891833,0,-0.001541961,-0.0007273185,-0.00114947,-0.4079394,-0.08428325,-9.726483999999999,0,0,40.7663,1,1,8010,4005
2518,33894792,0,-0.001034074,1.545353e-05,-0.0006593417000000001,-0.4067709,-0.08513012,-9.728490000000001,0,0,40.76644,1,1,8010,4005
2524,33897101,0,-0.0006402986,0.0005070996,0.0004514842,-0.4067046,-0.08763385999999999,-9.734812,0,0,40.76666,1,1,8010,4005
2527,33899843,0,-0.0001536611,0.000135597,0.0005408279,-0.405986,-0.08976484999999999,-9.740513,0,0,40.7668,1,1,8010,4005
2530,33902637,0,0.0002588952,-0.0006837518,0.0004140978,-0.4052598,-0.09374362,-9.74667,0,0,40.76702,1,1,8010,4005
2561,33905497,0,-0.001867255,-0.0009475964,-2.517462e-05,-0.4039326,-0.09761918,-9.747449,0,0,40.76729,1,1,8010,4005
2564,33907581,0,-0.002512484,-0.001383864,-0.0002255803,-0.4041032,-0.09869314999999999,-9.747111,0,0,40.76742,1,1,8010,4005
2567,33910240,0,-0.002724471,-0.001195911,-0.0007001373,-0.4048138,-0.1012229,-9.746796,0,0,40.76762,1,1,8010,4005
2570,33912343,0,-0.00275407,-0.00109106,-0.0002338127,-0.4043039,-0.1047705,-9.747776999999999,0,0,40.76782,1,1,8010,4005
2601,33915662,0,-0.003748967,-0.001084995,-0.0002138369,-0.4031012,-0.1062212,-9.748535,0,0,40.768,1,1,8010,4005
2605,33917868,0,-0.004089297,-0.001062043,-0.0004818884,-0.4020459,-0.1064808,-9.750299,0,0,40.76818,1,1,8010,4005
2608,33920272,0,-0.002941984,0.0004511883,-0.0009708146,-0.4023824,-0.1062104,-9.751096,0,0,40.76838,1,1,8010,4005
2611,33922634,0,-0.001791441,0.000930656,-0.0008057191,-0.4041835,-0.1036669,-9.753356999999999,0,0,40.76859,1,1,8010,4005
2642,33925095,0,-0.0006474194,0.001374815,-0.0006184555999999999,-0.4044472,-0.1009973,-9.753740000000001,0,0,40.7688,1,1,8010,4005
2649,33928533,0,-0.0001395689,0.001983746,-0.0004460016,-0.404398,-0.09848336000000001,-9.751467,0,0,40.76902,1,1,8010,4005
2654,33930635,0,0.0003787892,0.001771835,-0.0004332117,-0.4045116,-0.09536944,-9.74549,0,0,40.76931,1,1,8010,4005
2657,33932547,0,7.864504999999999e-05,0.001442861,-0.0004383248,-0.4017031,-0.09186794,-9.739849,0,0,40.76955,1,1,8010,4005
2688,33935789,0,0.000279154,0.001332578,0.0001332109,-0.4001865,-0.08953311999999999,-9.736967,0,0,40.76987,1,1,8010,4005
2691,33937849,0,0.001155634,0.001200088,0.0005529586,-0.4004653,-0.08831035,-9.73502,0,0,40.77004,1,1,8010,4005
2694,33940223,0,0.001143635,0.0008634302,0.001694042,-0.4028361,-0.08673219,-9.734939000000001,0,0,40.7704,1,1,8010,4005
2697,33943143,0,0.001447045,0.0007815518,0.001645505,-0.4044442,-0.08540618,-9.733299000000001,0,0,40.77068,1,1,8010,4005
2728,33945755,0,0.0004026263,0.0002972544,0.001055937,-0.4021353,-0.08936862,-9.728026,0,0,40.77106,1,1,8010,4005
2732,33948118,0,0.0005693393,0.0001498841,0.001259402,-0.3991087,-0.09116454,-9.727244000000001,0,0,40.77125,1,1,8010,4005
2735,33950761,0,0.0009026939,0.001344677,0.001941198,-0.3932091,-0.09431115,-9.730745000000001,0,0,40.77153,1,1,8010,4005
2738,33953479,0,0.0009552633,0.001485657,0.002154524,-0.3890695,-0.09664343,-9.735085,0,0,40.77171,1,1,8010,4005
2769,33956180,0,0.001426499,0.0009439209,0.00293165,-0.3858275,-0.09791621,-9.743912999999999,0,0,40.77198,1,1,8010,4005
2773,33958541,0,0.0007741417999999999,0.001137818,0.00346302,-0.3855631,-0.09778211000000001,-9.747444,0,0,40.77216,1,1,8010,4005
2776,33960801,0,-0.0003975642,0.0001598617,0.004158925,-0.386649,-0.09696220999999999,-9.745877,0,0,40.77243,1,1,8010,4005
2779,33963321,0,-0.0005319177,-0.001253745,0.003918625,-0.3875519,-0.09596159,-9.741270999999999,0,0,40.7726,1,1,8010,4005
2810,33966904,0,-0.0002988124,-0.001275291,0.003456593,-0.3888865,-0.09490395,-9.735545,0,0,40.77285,1,1,8010,4005
2814,33969178,0,-0.0001525411,-0.0003737568,0.002149067,-0.3907913,-0.09287437,-9.734083,0,0,40.77312,1,1,8010,4005
2817,33971191,0,-0.0002198598,0.0006720039,0.001656646,-0.3915055,-0.09101673,-9.731328,0,0,40.77329,1,1,8010,4005
2820,33973287,0,-0.0002260474,0.001692335,0.001117844,-0.3900245,-0.08947571,-9.726107000000001,0,0,40.77346,1,1,8010,4005
2851,33975856,0,-0.0003048766,0.00165215,0.0003478016,-0.3842987,-0.08735002,-9.721901000000001,0,0,40.77372,1,1,8010,4005
2854,33979273,0,-0.0002890313,0.001445097,0.0004791083,-0.3814379,-0.08722402,-9.721462000000001,0,0,40.77389,1,1,8010,4005
2857,33981336,0,5.78785e-05,0.0006138794,0.0007991589,-0.3818879,-0.08722532,-9.723822999999999,0,0,40.77417,1,1,8010,4005
2860,33983532,0,0.0008727865999999999,5.21674e-05,0.0004424485,-0.3827904,-0.08760353,-9.726673999999999,0,0,40.77435,1,1,8010,4005
2891,33985839,0,0.00168548,-0.0008960685,0.0004512865,-0.3832578,-0.08805548000000001,-9.732594000000001,0,0,40.77464,1,1,8010,4005
2895,33988497,0,0.001779186,-0.001197853,0.0006619192,-0.3835988,-0.08780101999999999,-9.735847,0,0,40.77482,1,1,8010,4005
2898,33991771,0,0.001569323,-0.0005196022,0.00111162,-0.3845568,-0.08633979999999999,-9.740277000000001,0,0,40.7751,1,1,8010,4005
2901,33996113,0,-0.0008596728,-9.98299e-05,0.002223069,-0.3844124,-0.08933787,-9.743278999999999,0,0,40.77565,1,1,8010,4005
2932,33998601,0,0.0005315761,-0.000370296,0.002111917,-0.3825106,-0.09256958999999999,-9.744301999999999,0,0,40.77592,1,1,8010,4005
2935,34001183,0,0.001414495,0.0004769539,0.00212686,-0.3804351,-0.09501813000000001,-9.748354000000001,0,0,40.7761,1,1,8010,4005
2938,34004304,0,0.002674053,0.0004428683,0.001941365,-0.378416,-0.09912677,-9.755653000000001,0,0,40.77637,1,1,8010,4005
2943,34006634,0,0.00209674,-0.0003346631,0.001374573,-0.3777344,-0.1007036,-9.759709000000001,0,0,40.77663,1,1,8010,4005
2975,34008884,0,0.0005597362,-0.001252831,1.327773e-06,-0.3793725,-0.1002639,-9.761533,0,0,40.77694,1,1,8010,4005
2978,34011352,0,-0.0002626268,-0.001240452,-0.0008697861,-0.3816609,-0.09916878,-9.76163,0,0,40.77709,1,1,8010,4005
2981,34013907,0,-0.00131133,-9.606494000000001e-05,-0.00127708,-0.3852553,-0.09935569,-9.760802999999999,0,0,40.77731,1,1,8010,4005
2984,34016874,0,-0.001197312,0.0007057995,-0.0008644195,-0.3865247,-0.1005707,-9.759553,0,0,40.77751,1,1,8010,4005
3015,34019629,0,-0.0007679549,6.089533e-05,-0.0009384317,-0.388696,-0.1017426,-9.754231000000001,0,0,40.77779,1,1,8010,4005
3019,34021881,0,-0.001528559,-0.0009531431,-0.0008946196999999999,-0.3913193,-0.1040284,-9.746388,0,0,40.77798,1,1,8010,4005
3022,34024237,0,-0.001686029,-0.001766875,-0.0003159364,-0.3941865,-0.1071981,-9.741997,0,0,40.77818,1,1,8010,4005
3025,34027103,0,-0.002031305,-0.003510752,0.000552631,-0.398802,-0.1109641,-9.739439000000001,0,0,40.77837,1,1,8010,4005
3060,34029927,0,-0.001778509,-0.003433103,6.41343e-06,-0.4025607,-0.1142126,-9.737671000000001,0,0,40.77863,1,1,8010,4005
3063,34032567,0,-0.001311768,-0.002900474,-0.0008111438,-0.4044704,-0.1151542,-9.738476,0,0,40.77875,1,1,8010,4005
3066,34034256,0,-0.001278723,-0.002439003,-0.001340179,-0.4061718,-0.1143422,-9.741298,0,0,40.77895,1,1,8010,4005
3069,34037111,0,-0.001077789,-0.001236333,-0.001641558,-0.4065447,-0.1127535,-9.745177,0,0,40.77914,1,1,8010,4005
3100,34040253,0,-0.0007216808,-0.0005799851,-0.0012211,-0.4028628,-0.1101165,-9.745309000000001,0,0,40.77932,1,1,8010,4005
3104,34042504,0,-0.001068535,-0.0002457147,-0.001395106,-0.4003661,-0.1064839,-9.743811000000001,0,0,40.77948,1,1,8010,4005
3107,34044567,0,-0.001597711,0.0002139297,-0.001032324,-0.3994602,-0.102006,-9.742634000000001,0,0,40.77958,1,1,8010,4005
3110,34046699,0,-0.001986021,0.0002444029,-0.00108254,-0.3986809,-0.09464216,-9.738884000000001,0,0,40.77973,1,1,8010,4005
3141,34049348,0,-0.001620257,6.905486e-06,-0.001521435,-0.3980395,-0.09058198000000001,-9.734728,0,0,40.77982,1,1,8010,4005
3144,34052200,0,-0.001172392,0.0001321181,-0.001754345,-0.3978895,-0.0846021,-9.729486,0,0,40.77995,1,1,8010,4005
3147,34054795,0,-0.001534466,0.0007228263,-0.001292107,-0.3982689,-0.08252097,-9.728396999999999,0,0,40.78004,1,1,8010,4005
3150,34056915,0,-0.001023953,0.001255922,-0.001301039,-0.3996235,-0.08214758,-9.730931,0,0,40.78016,1,1,8010,4005
3183,34059649,0,-0.0003277618,0.001066341,-0.001408913,-0.4005217,-0.08298178,-9.734892,0,0,40.78023,1,1,8010,4005
3187,34061841,0,-0.0005806894,0.0009669155,-0.0007770454,-0.4002818,-0.08654331,-9.738201,0,0,40.78036,1,1,8010,4005
3190,34065623,0,-0.001034783,0.001494791,0.0002377558,-0.4004526,-0.08814136,-9.736155999999999,0,0,40.78044,1,1,8010,4005
3193,34068382,0,-0.001951948,0.001363017,0.0006196043,-0.4009788,-0.08972898999999999,-9.730394,0,0,40.78057,1,1,8010,4005
3196,34070006,0,-0.002521746,-0.0004674164,0.0006669845,-0.4020457,-0.08987976,-9.726246,0,0,40.78068,1,1,8010,4005
3227,34072554,0,-0.002194301,-0.0007000029,0.0006730589,-0.405234,-0.09194107,-9.725906,0,0,40.78078,1,1,8010,4005
3230,34075731,0,-0.00104713,-0.001066544,0.000331025,-0.4083619,-0.09441140000000001,-9.726162,0,0,40.78085,1,1,8010,4005
3233,34077363,0,-0.0002212779,-0.001148185,0.0003089164,-0.4114816,-0.09789823,-9.725481,0,0,40.78095,1,1,8010,4005
3236,34080321,0,-0.0004026877,-0.001170571,0.0009901673,-0.4141264,-0.1047017,-9.726380000000001,0,0,40.78105,1,1,8010,4005
3267,34082904,0,-0.000835722,-0.0009037851,0.001027315,-0.4136857,-0.1100251,-9.729651,0,0,40.78117,1,1,8010,4005
3272,34085553,0,-0.0003742374,-0.0002140623,0.001330507,-0.4129541,-0.1129604,-9.732177,0,0,40.78125,1,1,8010,4005
3275,34088125,0,-0.0003650017,3.590881e-05,0.001205651,-0.4124447,-0.1131895,-9.735785999999999,0,0,40.78137,1,1,8010,4005
3278,34090605,0,-1.258946e-05,0.0002698726,0.001331288,-0.413415,-0.1097002,-9.738322999999999,0,0,40.78144,1,1,8010,4005
3312,34093728,0,0.0005399101,0.0003673916,0.0009008381,-0.4146428,-0.1007286,-9.742864000000001,0,0,40.78156,1,1,8010,4005
3316,34095522,0,0.0009186793,0.0005721289,0.0004061794,-0.4152051,-0.09580009,-9.744897,0,0,40.78164,1,1,8010,4005
3319,34097787,0,0.0009931346000000001,0.0006092695,-3.221414e-05,-0.4157626,-0.09138043999999999,-9.746247,0,0,40.78175,1,1,8010,4005
3323,34100834,0,0.000111606,0.0007254494,0.0004296517,-0.4155277,-0.08903382999999999,-9.748278000000001,0,0,40.78182,1,1,8010,4005
3354,34103668,0,-8.653404e-05,4.27723e-05,0.0008154392,-0.4169323,-0.08519442000000001,-9.752793,0,0,40.78192,1,1,8010,4005
3357,34105844,0,0.001408736,-0.0001377184,0.0003607786,-0.4200804,-0.08330803000000001,-9.755295,0,0,40.78202,1,1,8010,4005
3360,34108327,0,0.001623991,-7.606525e-05,0.0007242163,-0.4216909,-0.08237994999999999,-9.754336,0,0,40.78209,1,1,8010,4005
3363,34111203,0,0.0007790056,0.0003248336,0.001755095,-0.4231075,-0.08097482,-9.753843,0,0,40.78221,1,1,8010,4005
3394,34113474,0,0.0009910284000000001,0.000885313,0.002102309,-0.4197488,-0.08037572,-9.756069999999999,0,0,40.78233,1,1,8010,4005
3398,34116628,0,0.00100837,0.0005746938,0.00246194,-0.4145207,-0.08064321000000001,-9.757094,0,0,40.78239,1,1,8010,4005
3401,34118813,0,0.0006458081,0.0007702411,0.002297633,-0.4090007,-0.08195321999999999,-9.757419000000001,0,0,40.78252,1,1,8010,4005
3404,34121332,0,0.0001763287,0.001158583,0.001783126,-0.4056745,-0.08338594000000001,-9.757201999999999,0,0,40.78258,1,1,8010,4005
3435,34124196,0,-0.0004488279,0.0003553892,0.001520675,-0.4015115,-0.08594699,-9.751932999999999,0,0,40.78271,1,1,8010,4005
3438,34126247,0,-0.001126105,-0.0005092323,0.001534132,-0.399464,-0.08765043,-9.748205,0,0,40.78281,1,1,8010,4005
3441,34128774,0,-0.001474441,-0.001043754,0.001568772,-0.3967592,-0.09073777,-9.743949000000001,0,0,40.78296,1,1,8010,4005
3448,34131689,0,-0.001213344,-0.001355041,0.001532136,-0.3944685,-0.09268281,-9.743701,0,0,40.78306,1,1,8010,4005
3481,34134815,0,-0.000206663,-0.001636976,0.001190552,-0.3914378,-0.09560158000000001,-9.747862,0,0,40.7832,1,1,8010,4005
3485,34137214,0,0.000509372,-0.001776045,0.001617011,-0.3912019,-0.0978219,-9.752912,0,0,40.78328,1,1,8010,4005
3488,34139150,0,1.79665e-05,-0.0007699658,0.001543063,-0.3935049,-0.09934102,-9.755385,0,0,40.78337,1,1,8010,4005
3492,34141624,0,-0.001176753,-0.0003026633,0.001018055,-0.3966258,-0.09938039,-9.755805000000001,0,0,40.78344,1,1,8010,4005
3523,34144314,0,-0.001572314,-0.000503526,0.0006232273,-0.3980747,-0.09775241,-9.755001999999999,0,0,40.78348,1,1,8010,4005
3528,34147506,0,-0.001463934,-0.0005104343,4.461683e-05,-0.400182,-0.09356686,-9.754192,0,0,40.78354,1,1,8010,4005
3531,34149526,0,-0.0009988782,-0.0005960044,-0.0005380798,-0.4009706,-0.09006053999999999,-9.752414,0,0,40.78358,1,1,8010,4005
3534,34151858,0,-0.0007778539,-7.337114e-06,-0.0005492964,-0.4031318,-0.08540973,-9.749043,0,0,40.78364,1,1,8010,4005
3565,34154099,0,-0.001441289,0.0002605188,-0.0004277303,-0.4057551,-0.08219361,-9.744581,0,0,40.78368,1,1,8010,4005
3568,34156861,0,-0.002964115,-0.0003309793,8.552072e-05,-0.4086282,-0.07944403999999999,-9.736166000000001,0,0,40.78376,1,1,8010,4005
3571,34159609,0,-0.003767842,-0.0006782987000000001,-0.0001146953,-0.4089403,-0.07851234,-9.730195999999999,0,0,40.78381,1,1,8010,4005
3574,34161915,0,-0.003403858,0.0001758747,-0.0001963167,-0.4072872,-0.07846366,-9.722397000000001,0,0,40.78389,1,1,8010,4005
3605,34164170,0,-0.002784362,0.0005226946,-0.0001451249,-0.4057528,-0.07964255000000001,-9.720578,0,0,40.78397,1,1,8010,4005
3609,34166600,0,-0.001143512,0.0005525709,0.0001287731,-0.4025471,-0.0806349,-9.718455000000001,0,0,40.78406,1,1,8010,4005
3612,34170550,0,-0.0005011404,0.0004292922,-0.0002082689,-0.400757,-0.08066734,-9.717757000000001,0,0,40.78412,1,1,8010,4005
3615,34171694,0,-0.001081137,0.0007099714999999999,-0.0005821139,-0.3990256,-0.08100177,-9.718146000000001,0,0,40.78424,1,1,8010,4005
3646,34177594,0,-0.0007977879,0.0003738035,0.0004526555,-0.3932399,-0.08045782999999999,-9.723217999999999,0,0,40.7844,1,1,8010,4005
3649,34180768,0,-0.0006137246,0.0002359379,0.000654009,-0.3911967,-0.08033278000000001,-9.724174,0,0,40.78448,1,1,8010,4005
3652,34182142,0,-0.0008902017,0.0005343479,0.001099369,-0.3909146,-0.08051393,-9.724698,0,0,40.78455,1,1,8010,4005
3683,34185286,0,-0.001706071,0.0007437415,0.001769037,-0.3886507,-0.079915,-9.727346000000001,0,0,40.78461,1,1,8010,4005
3686,34187423,0,-0.001783886,4.219972e-05,0.001619444,-0.3871847,-0.08055624,-9.730584,0,0,40.78466,1,1,8010,4005
3690,34189807,0,-0.001806953,-0.0002999512,0.00021296,-0.3851142,-0.08210416,-9.736072,0,0,40.78475,1,1,8010,4005
3693,34192775,0,-0.001578394,0.0002316022,-0.0005307095,-0.3825139,-0.08390502,-9.737679,0,0,40.78481,1,1,8010,4005
3724,34195248,0,-0.0007448585,0.001051269,-0.00156138,-0.3797517,-0.08743157999999999,-9.736336,0,0,40.78489,1,1,8010,4005
3727,34198176,0,-0.0004160934,0.001434838,-0.002580797,-0.3790876,-0.08879912,-9.733912999999999,0,0,40.78494,1,1,8010,4005
3731,34200282,0,-0.0007701833,0.0009170322,-0.002113395,-0.3783138,-0.09071761,-9.729137,0,0,40.78505,1,1,8010,4005
3734,34202806,0,-0.0004718062,0.0006251406,-0.0008359422,-0.3790958,-0.09147321,-9.726993,0,0,40.7851,1,1,8010,4005
3765,34205119,0,0.0002706785,-0.0003028662,-0.000102275,-0.3805627,-0.09028047,-9.726407,0,0,40.78517,1,1,8010,4005
3769,34208020,0,0.001056587,-0.001172983,-0.00010543,-0.3831842,-0.08743653999999999,-9.730492999999999,0,0,40.78525,1,1,8010,4005
3772,34210591,0,0.000657288,-0.001758546,-0.0013027,-0.3855025,-0.08598818,-9.732961,0,0,40.78531,1,1,8010,4005
3775,34212827,0,-0.0006206781,-0.001988044,-0.002356316,-0.389644,-0.08501375,-9.734715,0,0,40.7854,1,1,8010,4005
3806,34215587,0,-0.001388343,-0.002084292,-0.002421503,-0.3918385,-0.08500609000000001,-9.73732,0,0,40.78545,1,1,8010,4005
3809,34217777,0,-0.001279361,-0.001805288,-0.002383747,-0.3922361,-0.08549901,-9.743587,0,0,40.78552,1,1,8010,4005
3813,34220681,0,-0.0009746632,-0.001799881,-0.001911252,-0.3913731,-0.08723104,-9.747574,0,0,40.78557,1,1,8010,4005
3816,34223135,0,-0.000464268,-0.002028683,-0.000821311,-0.3906156,-0.09058566,-9.753088,0,0,40.78566,1,1,8010,4005
3847,34225537,0,-0.0008531227,-0.001490792,-0.0003698314,-0.3905605,-0.09331854000000001,-9.757296,0,0,40.78572,1,1,8010,4005
3850,34228603,0,-0.001068274,-0.0002130624,0.000101099,-0.391189,-0.09334940999999999,-9.760106,0,0,40.78576,1,1,8010,4005
3853,34230845,0,-0.001279157,0.001495527,-0.0003122793,-0.3932878,-0.09007692,-9.761225,0,0,40.78581,1,1,8010,4005
3860,34233372,0,-0.001148203,0.002182004,-0.0004265699,-0.3956207,-0.08670973,-9.758672000000001,0,0,40.78583,1,1,8010,4005
3891,34236203,0,-0.001460827,0.001936636,0.0004508171,-0.3998714,-0.08327751999999999,-9.755921000000001,0,0,40.78584,1,1,8010,4005
3894,34238575,0,-0.001400056,0.001168553,0.001482521,-0.4026226,-0.08162469,-9.755281,0,0,40.78584,1,1,8010,4005
3898,34241190,0,-0.0004794931,0.0001405519,0.002606776,-0.4051164,-0.08226969000000001,-9.752304000000001,0,0,40.78583,1,1,8010,4005
3901,34243877,0,0.0002616554,-0.0001163607,0.002411092,-0.4063172,-0.08354593,-9.750909,0,0,40.78582,1,1,8010,4005
3932,34246613,0,0.0003582559,-0.0001620831,0.0004361081,-0.4085307,-0.08488885,-9.750152,0,0,40.78583,1,1,8010,4005
3935,34249359,0,-0.0008034799,0.000214298,-0.000499897,-0.4099303,-0.08347976,-9.747059999999999,0,0,40.78581,1,1,8010,4005
3938,34251626,0,-0.0008834496,0.0006320567,-0.000166145,-0.4103528,-0.08190852,-9.742858,0,0,40.7858,1,1,8010,4005
3941,34254303,0,0.0002010348,0.001196378,0.0006440231,-0.4103816,-0.07995285000000001,-9.73747,0,0,40.7858,1,1,8010,4005
3972,34256809,0,0.001103413,0.001432515,0.001072201,-0.4088227,-0.07870236,-9.734173999999999,0,0,40.78579,1,1,8010,4005
3976,34259544,0,0.001107722,0.001128824,0.001928418,-0.4055845,-0.07941937,-9.734654000000001,0,0,40.78579,1,1,8010,4005
3980,34262250,0,0.001531709,0.0007895832,0.002678094,-0.3995686,-0.08301225,-9.733618999999999,0,0,40.7858,1,1,8010,4005
3983,34264599,0,0.002093273,0.0001215346,0.003313122,-0.395514,-0.08572769,-9.732015000000001,0,0,40.78582,1,1,8010,4005
4014,34268152,0,0.002433911,-0.0004988243,0.003071234,-0.3916137,-0.08838522,-9.730789,0,0,40.78584,1,1,8010,4005
4017,34269796,0,0.002508362,-0.0009257339,0.001285516,-0.3907259,-0.09122556,-9.730926999999999,0,0,40.78586,1,1,8010,4005
4020,34272105,0,0.002095693,-0.001525138,-2.172629e-05,-0.3928308,-0.09254533,-9.731094000000001,0,0,40.78588,1,1,8010,4005
4023,34277329,0,-0.0004418688,-0.001014333,-0.00143933,-0.4001936,-0.09270361000000001,-9.733997,0,0,40.78592,1,1,8010,4005
4054,34280799,0,-0.001302189,-0.0005916976,-0.001883337,-0.4020069,-0.09213451,-9.734413999999999,0,0,40.78591,1,1,8010,4005
4058,34282579,0,-0.001500861,-0.0008839692,-0.002494982,-0.4046084,-0.09233783,-9.734439999999999,0,0,40.7859,1,1,8010,4005
4061,34284836,0,-0.001028848,-0.0006847602,-0.001781604,-0.4088157,-0.09422904999999999,-9.735169000000001,0,0,40.7859,1,1,8010,4005
4064,34287794,0,-0.0002869744,-0.0002105128,-0.001182154,-0.4107813,-0.09557174,-9.737183,0,0,40.78589,1,1,8010,4005
4095,34290674,0,0.0008395528,0.0005268877,-0.0004993305,-0.4117032,-0.09530368,-9.738956,0,0,40.78589,1,1,8010,4005
4099,34292867,0,0.001441473,0.000341246,-0.0002837472,-0.411449,-0.09449396,-9.738313,0,0,40.7859,1,1,8010,4005
4102,34295110,0,0.000151774,0.0002835431,0.0001318207,-0.4105765,-0.09585951,-9.735852,0,0,40.7859,1,1,8010,4005
4105,34297869,0,-0.001212873,0.0003272306,0.0005298966,-0.4079582,-0.09833861000000001,-9.737348000000001,0,0,40.78589,1,1,8010,4005
4136,34300496,0,-0.001715825,0.000484764,0.0009679211,-0.4030273,-0.1012165,-9.740905,0,0,40.78589,1,1,8010,4005
4140,34303239,0,-0.001677406,0.0008075532,0.001186443,-0.3985175,-0.1035881,-9.743562000000001,0,0,40.7859,1,1,8010,4005
4143,34305455,0,-0.000548835,0.0007778557,0.001411652,-0.395643,-0.1057568,-9.745343999999999,0,0,40.7859,1,1,8010,4005
4146,34308094,0,0.0001344753,0.001103767,0.002047624,-0.393356,-0.1074943,-9.750469000000001,0,0,40.78589,1,1,8010,4005
4177,34310802,0,0.000311699,0.0008973806,0.00169121,-0.3927372,-0.1057304,-9.753695,0,0,40.78588,1,1,8010,4005
4181,34313265,0,0.0002336344,0.0006874347,0.0009876832999999999,-0.3932824,-0.1030313,-9.753118000000001,0,0,40.78588,1,1,8010,4005
4184,34316103,0,0.0007361038000000001,0.0002874958,0.000162177,-0.3964193,-0.101166,-9.747978,0,0,40.78587,1,1,8010,4005
4187,34318292,0,0.0007211283,0.0002331374,-0.0001625596,-0.3998925,-0.1010953,-9.746629,0,0,40.78587,1,1,8010,4005
4220,34321558,0,-0.0002380339,0.0002754182,-0.0002255364,-0.4057062,-0.1012632,-9.748155000000001,0,0,40.78587,1,1,8010,4005
4223,34323322,0,-0.0007371728,-8.36136e-05,7.42581e-05,-0.4086382,-0.1010515,-9.747624,0,0,40.78588,1,1,8010,4005
4226,34325670,0,-0.001898062,-0.0007725276000000001,0.000606029,-0.4105156,-0.1000289,-9.742903,0,0,40.78588,1,1,8010,4005
4229,34328650,0,-0.001773484,-0.0009458738,0.0009065992,-0.4098555,-0.09901799,-9.739088000000001,0,0,40.78589,1,1,8010,4005
4260,34330925,0,-0.0007811431,-0.001402603,0.0006486883,-0.408609,-0.09681951,-9.730309,0,0,40.7859,1,1,8010,4005
4264,34334167,0,-0.001081759,-0.002098883,-9.11695e-05,-0.4083468,-0.09664708,-9.724135,0,0,40.7859,1,1,8010,4005
4271,34336637,0,-0.002522098,-0.002280842,-0.0004890941,-0.408067,-0.09807836,-9.721041,0,0,40.78587,1,1,8010,4005
4277,34338915,0,-0.003174428,-0.001616159,-0.0008084314,-0.4063766,-0.101433,-9.718394999999999,0,0,40.78582,1,1,8010,4005
4308,34341536,0,-0.002703598,-0.001965569,-0.0007719182,-0.4046619,-0.101995,-9.717597,0,0,40.78579,1,1,8010,4005
4313,34344239,0,-0.002360568,-0.002469848,-0.0009377771,-0.4050602,-0.1023611,-9.717988,0,0,40.78576,1,1,8010,4005
4316,34346864,0,-0.002268196,-0.002412307,-0.0008279246000000001,-0.4046893,-0.1016658,-9.719697999999999,0,0,40.78574,1,1,8010,4005
4319,34349159,0,-0.002391276,-0.001324162,-0.0002651781,-0.4034338,-0.09972926,-9.721926,0,0,40.78569,1,1,8010,4005
4350,34351910,0,-0.001613089,-0.0004394508,-0.000189695,-0.4026681,-0.09877076,-9.722714,0,0,40.78565,1,1,8010,4005
4353,34354131,0,-0.001490996,-0.0001352406,-0.0006269419,-0.4028792,-0.09881280000000001,-9.72311,0,0,40.78563,1,1,8010,4005
4356,34356914,0,-0.001609204,0.000476145,-0.0008481213,-0.403845,-0.09880123,-9.723672000000001,0,0,40.78562,1,1,8010,4005
4359,34359574,0,-0.001563839,0.001897671,-0.0008682457,-0.4058349,-0.09839512,-9.721729,0,0,40.78561,1,1,8010,4005
4390,34361810,0,-0.001144524,0.002033635,-0.001190335,-0.4068832,-0.09660638000000001,-9.719249,0,0,40.7856,1,1,8010,4005
4394,34364892,0,-0.0006501255,0.00191052,-0.0009410813,-0.4061463,-0.09507810999999999,-9.717508,0,0,40.78559,1,1,8010,4005
4397,34367094,0,-0.000625954,0.001395415,-0.000575375,-0.4058118,-0.09228306999999999,-9.713126000000001,0,0,40.78558,1,1,8010,4005
4400,34369577,0,-0.0007335292,0.001246993,-0.0009924819,-0.4064579,-0.09073057,-9.711273,0,0,40.78557,1,1,8010,4005
4431,34372049,0,-0.0001303211,0.001186546,-0.001483366,-0.4068111,-0.08933631,-9.711582999999999,0,0,40.78556,1,1,8010,4005
4434,34375038,0,6.418182e-05,0.001298565,-0.001095089,-0.4057725,-0.08677027,-9.713729000000001,0,0,40.78555,1,1,8010,4005
4437,34379885,0,0.0008520782,0.001167413,-0.001093964,-0.3974018,-0.082499,-9.715728,0,0,40.78553,1,1,8010,4005
4468,34382478,0,0.002144291,0.001287983,-0.001387236,-0.3916301,-0.08111983,-9.718838,0,0,40.78553,1,1,8010,4005
4472,34387905,0,0.001443685,0.0001644064,-3.84787e-05,-0.3865917,-0.08148629,-9.725925999999999,0,0,40.78554,1,1,8010,4005
4475,34390458,0,0.001085042,2.931139e-05,-0.0001203257,-0.3878187,-0.08317826,-9.729939,0,0,40.78556,1,1,8010,4005
4506,34392691,0,0.001007242,0.0009630214,0.0001271551,-0.3899041,-0.08457665,-9.733165,0,0,40.7856,1,1,8010,4005
4510,34395497,0,0.001004637,0.0009987481000000001,-4.570117e-05,-0.3901032,-0.0841465,-9.734173,0,0,40.78563,1,1,8010,4005
4513,34397819,0,0.001741805,0.001139987,0.0002896668,-0.3893411,-0.08427308999999999,-9.734097999999999,0,0,40.78565,1,1,8010,4005
4516,34400879,0,0.001715733,0.001882808,0.00064442,-0.3885587,-0.08543869,-9.734904,0,0,40.78565,1,1,8010,4005
4547,34403855,0,0.001886374,0.002935086,0.0007913298,-0.3876088,-0.08801679,-9.73922,0,0,40.78566,1,1,8010,4005
4551,34406151,0,0.001753798,0.001935517,-1.798513e-05,-0.3856296,-0.09162592,-9.742125,0,0,40.78564,1,1,8010,4005
4555,34408492,0,0.00192096,0.001226655,-0.0008260502,-0.384844,-0.09378771,-9.744695,0,0,40.78563,1,1,8010,4005
4558,34411451,0,0.001896041,0.0001451325,-0.001500876,-0.3850919,-0.09436888,-9.749517000000001,0,0,40.78561,1,1,8010,4005
4589,34414148,0,0.0009918997999999999,-9.290797e-05,-0.001664052,-0.3846759,-0.09224908,-9.750902999999999,0,0,40.78554,1,1,8010,4005
4593,34416356,0,0.0005684171,0.0002822798,-0.001178158,-0.3854798,-0.09165152,-9.751223,0,0,40.78552,1,1,8010,4005
4596,34418726,0,0.0004016174,0.00119656,-9.263590999999999e-06,-0.3880865,-0.09163853,-9.750895999999999,0,0,40.78548,1,1,8010,4005
4599,34421317,0,0.0003078898,0.001201011,0.0007019285000000001,-0.389297,-0.09002069,-9.752435999999999,0,0,40.78545,1,1,8010,4005
4630,34424151,0,0.0004213396,0.0008825941,0.0004018849,-0.3902439,-0.08648504999999999,-9.753102,0,0,40.78542,1,1,8010,4005
4633,34426864,0,0.00136011,0.0006972727,0.0002554512,-0.3914217,-0.08559637,-9.75098,0,0,40.78542,1,1,8010,4005
4636,34428810,0,0.002224292,0.001029528,-8.942734999999999e-05,-0.3929046,-0.08447915,-9.748352000000001,0,0,40.7854,1,1,8010,4005
4639,34431297,0,0.001833152,0.00118296,-1.005307e-05,-0.3925616,-0.08360565,-9.747814,0,0,40.78542,1,1,8010,4005
4670,34433666,0,0.0008031568,0.001272182,0.001205924,-0.3891978,-0.08345221999999999,-9.750947999999999,0,0,40.78547,1,1,8010,4005
4674,34436769,0,0.000692516,0.0009014641,0.001972043,-0.3873324,-0.08480839,-9.752068,0,0,40.78551,1,1,8010,4005
4681,34439671,0,0.000746638,2.340154e-06,0.002555715,-0.3850155,-0.08846991999999999,-9.752245,0,0,40.78563,1,1,8010,4005
4684,34441463,0,0.0008775965,-3.333363e-05,0.002514442,-0.3843068,-0.0908677,-9.750408,0,0,40.78569,1,1,8010,4005
4715,34443882,0,0.001082419,-0.0003029116,0.001927209,-0.3837425,-0.09484031,-9.743738,0,0,40.78582,1,1,8010,4005
4718,34446332,0,0.001280388,-0.0004900372,0.001755931,-0.3830195,-0.09699228,-9.739914000000001,0,0,40.78589,1,1,8010,4005
4721,34449516,0,0.001249259,-8.083133e-05,0.002306322,-0.3819313,-0.1006908,-9.738378000000001,0,0,40.78603,1,1,8010,4005
4724,34451874,0,0.001587267,-0.0005486255,0.002786338,-0.3812069,-0.1020978,-9.737114,0,0,40.78616,1,1,8010,4005
4755,34454067,0,0.001849211,-0.001722209,0.002637331,-0.3802633,-0.1033406,-9.734750999999999,0,0,40.78632,1,1,8010,4005
4759,34456858,0,0.0009319372,-0.001831547,0.002139577,-0.3800885,-0.1054507,-9.731702,0,0,40.78645,1,1,8010,4005
4762,34459411,0,-0.000202071,-0.001950364,0.001970896,-0.3812539,-0.1056297,-9.730620999999999,0,0,40.78653,1,1,8010,4005
4765,34462122,0,-0.0006519842000000001,-0.002535235,0.002281361,-0.3836604,-0.1033771,-9.728795,0,0,40.7867,1,1,8010,4005
4796,34464913,0,1.830179e-05,-0.00286301,0.001927438,-0.3850338,-0.101909,-9.729419999999999,0,0,40.78679,1,1,8010,4005
4799,34466658,0,-0.0008122242999999999,-0.003397122,0.002403295,-0.387588,-0.09826621000000001,-9.727923000000001,0,0,40.78691,1,1,8010,4005
4802,34469141,0,-0.001400744,-0.00351908,0.002539086,-0.3894615,-0.09636090999999999,-9.724478,0,0,40.78699,1,1,8010,4005
4805,34471863,0,-0.001497022,-0.003233082,0.00253407,-0.3917893,-0.09574354,-9.721142,0,0,40.78718,1,1,8010,4005
4836,34475397,0,-0.00130581,-0.002913146,0.002501834,-0.3923041,-0.09607699,-9.721902999999999,0,0,40.78727,1,1,8010,4005
4839,34478268,0,-0.001627896,-0.002134891,0.002748407,-0.3931032,-0.09587004,-9.723948,0,0,40.78739,1,1,8010,4005
4842,34479605,0,-0.001806585,-0.001858798,0.002135469,-0.3940019,-0.09685866,-9.726423,0,0,40.78752,1,1,8010,4005
4846,34482109,0,-0.002047431,-0.001887252,0.001500295,-0.3941104,-0.09709696,-9.726447,0,0,40.78761,1,1,8010,4005
4877,34485572,0,-0.001876707,-0.001412482,0.00127999,-0.3947656,-0.0971094,-9.726141,0,0,40.78773,1,1,8010,4005
4880,34487146,0,-0.001964122,-0.0008711436,0.0006495676,-0.3957947,-0.09601716,-9.727712,0,0,40.78781,1,1,8010,4005
4883,34490148,0,-0.002407361,0.0001172695,0.0006148263,-0.3973058,-0.0932953,-9.730715,0,0,40.78792,1,1,8010,4005
4887,34492143,0,-0.002038778,5.014608e-05,0.00111619,-0.3984969,-0.09173363,-9.730843,0,0,40.788,1,1,8010,4005
4918,34494992,0,-0.001487525,-9.97384e-05,0.001173317,-0.398818,-0.08835957,-9.731223,0,0,40.78812,1,1,8010,4005
4921,34497871,0,-0.001532236,-0.0009564543,0.000233371,-0.3990701,-0.08543533,-9.733123000000001,0,0,40.78819,1,1,8010,4005
4924,34499888,0,-0.00146683,-0.00209573,-0.0007798016,-0.4002617,-0.08233388,-9.736457,0,0,40.78832,1,1,8010,4005
4928,34502517,0,-0.001380847,-0.002382554,-0.0009354242,-0.4004178,-0.08220845,-9.737126999999999,0,0,40.78846,1,1,8010,4005
4959,34505639,0,-0.0007063808,-0.002072916,-0.001040023,-0.3992628,-0.08281634,-9.734344,0,0,40.78859,1,1,8010,4005
4962,34507138,0,2.647329e-05,-0.002053159,-0.0008565425999999999,-0.3977832,-0.08502071999999999,-9.733388,0,0,40.78873,1,1,8010,4005
4965,34510385,0,-8.657416e-06,-0.001896734,-0.0002544142,-0.3956241,-0.09125532,-9.73598,0,0,40.78888,1,1,8010,4005
4968,34512496,0,-0.0004397761,-0.001356137,-9.701352e-05,-0.3945983,-0.09614768999999999,-9.738268,0,0,40.78904,1,1,8010,4005
4999,34514809,0,-0.0007673767,0.0005058087,0.000673424,-0.3934054,-0.1015727,-9.741929000000001,0,0,40.7892,1,1,8010,4005
5003,34517455,0,-0.0003904581,0.001055567,0.001277845,-0.3919626,-0.1028867,-9.744070000000001,0,0,40.7893,1,1,8010,4005
5006,34520637,0,-0.0002766791,6.798917e-06,0.0006617701,-0.3883868,-0.1032765,-9.747438000000001,0,0,40.78952,1,1,8010,4005
5010,34522665,0,-0.0001986598,-0.000202856,0.0008380805,-0.3870363,-0.1032406,-9.749574000000001,0,0,40.78971,1,1,8010,4005
5043,34525543,0,-0.001105123,6.536688e-05,0.0007848319,-0.3872108,-0.1034387,-9.749331,0,0,40.79,1,1,8010,4005
5046,34527668,0,-0.002551612,0.0001678864,-0.0001801825,-0.3868722,-0.1041493,-9.746751,0,0,40.79022,1,1,8010,4005
5050,34530665,0,-0.002760897,-0.0003870796,-0.000691304,-0.3866844,-0.1044704,-9.745614,0,0,40.79036,1,1,8010,4005
5053,34533127,0,-0.002171645,-0.0004454661,0.0005942925,-0.3871793,-0.1032235,-9.741626999999999,0,0,40.79065,1,1,8010,4005
5084,34535335,0,-0.002710169,-0.0001010682,0.001348794,-0.3880384,-0.1025127,-9.739243,0,0,40.79081,1,1,8010,4005
5087,34538238,0,-0.003339775,-0.0004967238,0.0007476676,-0.3906135,-0.1017778,-9.738219000000001,0,0,40.79111,1,1,8010,4005
5094,34540892,0,-0.003568086,-0.001057478,-0.0001688303,-0.3927738,-0.1005457,-9.738975999999999,0,0,40.79125,1,1,8010,4005
5098,34543200,0,-0.003394423,-0.0003546696,-0.0006226235000000001,-0.3972815,-0.09606031,-9.740513999999999,0,0,40.79147,1,1,8010,4005
5129,34546216,0,-0.002731903,0.0009731496,-0.0002903072,-0.4017391,-0.08974846,-9.742345,0,0,40.79176,1,1,8010,4005
5132,34548391,0,-0.002580168,0.0008637674,-0.0003684007,-0.4040892,-0.08578947000000001,-9.74344,0,0,40.79192,1,1,8010,4005
5135,34550863,0,-0.002905586,0.000779662,-0.0004545548,-0.4043407,-0.08184046,-9.741612,0,0,40.79214,1,1,8010,4005
5138,34553132,0,-0.002592541,0.001246655,-0.00066208,-0.4044663,-0.07667606,-9.734722,0,0,40.79244,1,1,8010,4005
5171,34555564,0,-0.002306784,0.001654521,-7.623577e-05,-0.4049186,-0.0729862,-9.728305000000001,0,0,40.79264,1,1,8010,4005
5174,34558081,0,-0.002150182,0.001093085,-6.447021e-06,-0.4052757,-0.07086387,-9.724644,0,0,40.79276,1,1,8010,4005
5177,34560841,0,-0.002116244,0.0003266692,-0.0003265039,-0.4060018,-0.06870211,-9.72151,0,0,40.79288,1,1,8010,4005
5181,34563319,0,-0.001101275,-0.0003281987,-0.001951882,-0.4061889,-0.06665906000000001,-9.717192000000001,0,0,40.79308,1,1,8010,4005
5212,34566181,0,-0.0006539148,-0.0004821926,-0.002541768,-0.4036306,-0.06679153,-9.717655000000001,0,0,40.79326,1,1,8010,4005
5215,34568511,0,-0.0007492539000000001,-0.0002623748,-0.001513656,-0.4022957,-0.06724325,-9.720566,0,0,40.79338,1,1,8010,4005
5218,34570636,0,-0.0007949002,0.0002387532,-0.0003246581,-0.4024287,-0.06786438,-9.723853999999999,0,0,40.7935,1,1,8010,4005
5223,34572847,0,-0.0006485507,0.0005179954,-0.0001430532,-0.4056782,-0.07084066,-9.726039,0,0,40.79367,1,1,8010,4005
5254,34575624,0,-0.0006720985000000001,0.0003973843,-0.0007498143,-0.4065781,-0.07417319999999999,-9.726953999999999,0,0,40.79378,1,1,8010,4005
5257,34578060,0,-0.0004172997,-0.0002690903,-0.001647624,-0.4069728,-0.07997251,-9.727544999999999,0,0,40.79395,1,1,8010,4005
5260,34581051,0,2.773942e-05,-0.0009165673,-0.001346395,-0.40699,-0.08311881,-9.727511,0,0,40.79405,1,1,8010,4005
5263,34583289,0,0.0001307425,-0.0003047901,-0.001231037,-0.405202,-0.0850248,-9.726794999999999,0,0,40.7942,1,1,8010,4005
5294,34586097,0,0.0006278983,-9.574325e-05,-0.001965187,-0.4050386,-0.08737273,-9.729229,0,0,40.79434,1,1,8010,4005
5297,34588091,0,0.001001101,-0.0003383075,-0.001716451,-0.4048045,-0.08955682,-9.730452,0,0,40.79443,1,1,8010,4005
5300,34593094,0,0.001028447,-0.0006357321,0.001077702,-0.4061441,-0.09236836,-9.734481000000001,0,0,40.79464,1,1,8010,4005
5332,34597084,0,0.0003523089,-6.110928000000001e-05,7.657194999999999e-05,-0.4102479,-0.09042219,-9.738079000000001,0,0,40.79478,1,1,8010,4005
5335,34598579,0,0.0001161741,0.001198318,3.782225e-05,-0.415164,-0.08687702,-9.737795,0,0,40.79493,1,1,8010,4005
5338,34600790,0,0.0008481651,0.001767365,0.0001714597,-0.4174357,-0.08479154,-9.737752,0,0,40.79504,1,1,8010,4005
5341,34603795,0,0.00161582,0.002177649,0.001203835,-0.4178627,-0.08438355,-9.738089,0,0,40.7952,1,1,8010,4005
5372,34606378,0,0.001687291,0.00237042,0.001947457,-0.4151829,-0.0850414,-9.739457,0,0,40.79541,1,1,8010,4005
5375,34609792,0,0.001451749,0.001381882,0.00188002,-0.4109379,-0.08539376999999999,-9.740318,0,0,40.79561,1,1,8010,4005
5378,34611177,0,0.001078675,0.0003983383,0.00171518,-0.4076039,-0.08642986,-9.739552,0,0,40.7958,1,1,8010,4005
5381,34613568,0,0.001163137,-0.0005752597,0.001520518,-0.4024504,-0.08847541,-9.740328999999999,0,0,40.79599,1,1,8010,4005
5412,34616798,0,0.001630271,-0.000467303,0.001747112,-0.4008687,-0.09067561,-9.742902000000001,0,0,40.79611,1,1,8010,4005
5416,34618663,0,0.002910434,0.001148256,0.00117947,-0.3995917,-0.09415233000000001,-9.746084,0,0,40.79632,1,1,8010,4005
5419,34621673,0,0.003073598,0.002242608,0.0008409416,-0.3985609,-0.09541558999999999,-9.746136999999999,0,0,40.79642,1,1,8010,4005
5422,34623816,0,0.002270675,0.002425384,0.00126406,-0.3983124,-0.09716472,-9.746577,0,0,40.79663,1,1,8010,4005
5453,34626097,0,0.001836276,0.001973441,0.001966884,-0.3975642,-0.09759635999999999,-9.746625999999999,0,0,40.79673,1,1,8010,4005
5457,34629266,0,0.0005227642,0.001171111,0.002513501,-0.3969758,-0.1003825,-9.746523,0,0,40.79689,1,1,8010,4005
5460,34631615,0,0.0004340441,0.0008527261,0.001625745,-0.3963734,-0.1017516,-9.746086999999999,0,0,40.79706,1,1,8010,4005
5463,34634102,0,0.0009735394,0.0001647308,0.0009648603,-0.3956038,-0.1022091,-9.742369999999999,0,0,40.79723,1,1,8010,4005
5494,34636649,0,0.001837874,-0.0006581715,0.0003495737,-0.394239,-0.1015414,-9.738146,0,0,40.79747,1,1,8010,4005
5498,34639566,0,0.00180254,-0.0003521935,0.0004491091,-0.3926557,-0.102133,-9.73371,0,0,40.79759,1,1,8010,4005
5505,34642589,0,0.001761461,-0.0005997649,0.0002472546,-0.3890827,-0.1037284,-9.731107,0,0,40.79781,1,1,8010,4005
5508,34644796,0,0.0015217,-0.0004617268,0.0005897377,-0.3878443,-0.1030987,-9.732118,0,0,40.79789,1,1,8010,4005
5539,34646929,0,0.0004433305,0.0008107987,0.002318653,-0.3894043,-0.1014492,-9.731778,0,0,40.79803,1,1,8010,4005
5543,34649702,0,-0.00106853,-0.0004141471,0.001530847,-0.3921221,-0.1013456,-9.729248999999999,0,0,40.79819,1,1,8010,4005
5546,34652550,0,-0.001180258,-0.0006889337,0.001528765,-0.3923063,-0.1008069,-9.726312999999999,0,0,40.79826,1,1,8010,4005
5549,34655291,0,-0.001093962,-0.0002495472,0.0009249054,-0.3944417,-0.09929559,-9.722398,0,0,40.79837,1,1,8010,4005
5580,34657888,0,-0.0008329416,0.0007651299,-0.0006410032,-0.3972281,-0.1001824,-9.720509,0,0,40.79849,1,1,8010,4005
5584,34660657,0,-0.0006698119,0.001343896,-0.001250259,-0.3985122,-0.1018438,-9.722467,0,0,40.79856,1,1,8010,4005
5587,34663339,0,-0.001064652,0.001548335,-0.00169206,-0.3989538,-0.1029471,-9.725296,0,0,40.79865,1,1,8010,4005
5590,34665328,0,-0.00137641,0.001183295,-0.001271278,-0.3976571,-0.1029438,-9.726374,0,0,40.79872,1,1,8010,4005
5621,34668496,0,-0.001202068,0.001104539,-0.0007411725,-0.3957273,-0.1030662,-9.730102,0,0,40.79881,1,1,8010,4005
5625,34670580,0,-0.001028608,0.001183898,-8.032832e-05,-0.3960093,-0.1027121,-9.733374,0,0,40.79886,1,1,8010,4005
5628,34673367,0,-0.0007482256,0.0007745571,2.731883e-05,-0.3964567,-0.1018503,-9.737622999999999,0,0,40.79895,1,1,8010,4005
5631,34675659,0,-0.0007385077,0.000853414,-0.0003973249,-0.3953015,-0.1000058,-9.740563999999999,0,0,40.79899,1,1,8010,4005
5662,34677927,0,-0.001106146,0.0002238083,-0.000330864,-0.3918292,-0.09641916,-9.743931,0,0,40.79906,1,1,8010,4005
5665,34681810,0,-0.001556813,0.0003225467,-0.0006421140000000001,-0.3885962,-0.09455694000000001,-9.745829000000001,0,0,40.79911,1,1,8010,4005
5668,34683054,0,-0.002115336,0.0005979971,-0.001573335,-0.3840698,-0.09378019999999999,-9.74789,0,0,40.79919,1,1,8010,4005
5671,34688103,0,-0.001297524,-0.0001676941,-0.001231334,-0.3804642,-0.08781364999999999,-9.749328999999999,0,0,40.79932,1,1,8010,4005
5703,34691602,0,-0.001573619,-0.0009669628,-0.001033142,-0.3785727,-0.0858544,-9.747899,0,0,40.79939,1,1,8010,4005
5706,34693390,0,-0.0026077,-0.001064659,-0.001732645,-0.3781731,-0.08635588,-9.745771,0,0,40.79945,1,1,8010,4005
5709,34695916,0,-0.003935701,-0.0007129521999999999,-0.003198005,-0.3798363,-0.08783725000000001,-9.742248,0,0,40.79954,1,1,8010,4005
5712,34698467,0,-0.00408488,-0.0004314614,-0.003006202,-0.3817372,-0.0892157,-9.742253,0,0,40.79958,1,1,8010,4005
5744,34701355,0,-0.003429439,8.528031e-06,-0.001458686,-0.3840651,-0.08932178,-9.746644999999999,0,0,40.79964,1,1,8010,4005
5747,34703798,0,-0.002764831,-0.0004414693,-5.117175e-06,-0.3860652,-0.08913173000000001,-9.751010000000001,0,0,40.79969,1,1,8010,4005
5750,34705920,0,-0.00190015,-0.0008235261999999999,0.001473539,-0.3884283,-0.09010361,-9.755921000000001,0,0,40.79979,1,1,8010,4005
5753,34708521,0,-0.001551517,-0.0006151211,0.001787623,-0.3887408,-0.09283701,-9.757743,0,0,40.79985,1,1,8010,4005
5784,34711150,0,-0.001257707,-0.0009005098999999999,0.0009134665,-0.3885623,-0.09717334,-9.758392000000001,0,0,40.79993,1,1,8010,4005
5787,34713772,0,-0.001692854,-0.001286026,0.0002034676,-0.3882065,-0.09938332,-9.758556,0,0,40.79997,1,1,8010,4005
5791,34716174,0,-0.002266498,-0.001985813,-0.001101232,-0.3886539,-0.1000769,-9.755750000000001,0,0,40.80006,1,1,8010,4005
5794,34718461,0,-0.001707264,-0.002312855,-0.001575315,-0.3893705,-0.09949137,-9.750455000000001,0,0,40.80011,1,1,8010,4005
5825,34721253,0,-0.001032271,-0.002180231,-0.002071552,-0.3919852,-0.09893173,-9.741066,0,0,40.80019,1,1,8010,4005
5829,34723506,0,-0.0004276442,-0.002157166,-0.002151056,-0.3940413,-0.0981987,-9.735877,0,0,40.80025,1,1,8010,4005
5832,34725910,0,7.057929e-05,-0.001500111,-0.001815012,-0.3977184,-0.09430371999999999,-9.727995,0,0,40.80031,1,1,8010,4005
5837,34729159,0,-0.0009214313,-0.0005364458,-0.000778288,-0.4004062,-0.09125104000000001,-9.723468,0,0,40.80035,1,1,8010,4005
5868,34732224,0,-0.001260241,0.0004351366,0.0004783523,-0.4039537,-0.08550373,-9.722443,0,0,40.80044,1,1,8010,4005
5871,34734150,0,-0.0008053624,0.000418455,0.0003587184,-0.4046145,-0.08248711,-9.726328000000001,0,0,40.80048,1,1,8010,4005
5875,34736870,0,-0.0005089978999999999,0.0001684651,-0.0006108032,-0.4062389,-0.07940013,-9.734177000000001,0,0,40.80054,1,1,8010,4005
5878,34740085,0,-0.0003240903,-0.0002816838,-0.001341191,-0.4084233,-0.0778427,-9.739216000000001,0,0,40.80062,1,1,8010,4005
5909,34742913,0,0.0003653273,-0.001362355,-0.001248052,-0.4090491,-0.07497909,-9.745065,0,0,40.80071,1,1,8010,4005
5917,34745622,0,0.000639678,-0.002388897,0.0002797891,-0.4061343,-0.07568904999999999,-9.74689,0,0,40.8008,1,1,8010,4005
5920,34747562,0,0.0009337742999999999,-0.002134866,0.001395317,-0.4055311,-0.07855726,-9.744975,0,0,40.80088,1,1,8010,4005
5923,34750678,0,0.001953063,-0.002026493,0.002110363,-0.4047065,-0.08121726999999999,-9.745020999999999,0,0,40.80099,1,1,8010,4005
5954,34753152,0,0.002206827,-0.001901512,0.002155393,-0.4042232,-0.08937516,-9.746169999999999,0,0,40.80111,1,1,8010,4005
5958,34756110,0,0.001602495,-0.00250784,0.002888008,-0.40489,-0.09402083999999999,-9.745431,0,0,40.80118,1,1,8010,4005
5961,34758110,0,0.001693463,-0.002449663,0.002559735,-0.4065864,-0.1017734,-9.742543,0,0,40.80125,1,1,8010,4005
5964,34761165,0,0.001204267,-0.002410419,0.002180136,-0.4080015,-0.1069866,-9.741662,0,0,40.80132,1,1,8010,4005
5995,34764058,0,-0.0001362854,-0.002181195,0.00168225,-0.4086294,-0.1093211,-9.741631,0,0,40.80141,1,1,8010,4005
5998,34766324,0,-0.000184397,-0.001718122,0.001631208,-0.4089721,-0.1085131,-9.742976000000001,0,0,40.80146,1,1,8010,4005
6001,34768849,0,0.001305423,-0.0008219575,0.001986054,-0.4116134,-0.1041166,-9.74545,0,0,40.80156,1,1,8010,4005
6004,34771333,0,0.00141525,-0.0001936363,0.00204699,-0.4149273,-0.1016924,-9.746727999999999,0,0,40.80161,1,1,8010,4005
6035,34775154,0,0.0001894693,0.0001667965,0.001657282,-0.4190369,-0.09840075,-9.747617999999999,0,0,40.80169,1,1,8010,4005
6038,34776551,0,-0.0001940104,0.001126499,0.001089674,-0.4214389,-0.09505411,-9.749617000000001,0,0,40.80178,1,1,8010,4005
6043,34779605,0,4.348241e-06,0.0008438333,0.0009197851,-0.4215015,-0.09364502,-9.750553,0,0,40.80183,1,1,8010,4005
6046,34781702,0,9.554441e-06,7.587806e-05,0.001170072,-0.4190292,-0.09410182,-9.748855000000001,0,0,40.8019,1,1,8010,4005
6077,34784044,0,-0.0005258437,-0.0002710438,0.001304067,-0.4173525,-0.09376784000000001,-9.746829,0,0,40.80195,1,1,8010,4005
6080,34787775,0,-0.001614851,-0.0007370044,0.001009559,-0.4150161,-0.09234256,-9.743195999999999,0,0,40.80203,1,1,8010,4005
6084,34788925,0,-0.0009766426,-0.001566596,0.00117438,-0.4131096,-0.09159085,-9.740800999999999,0,0,40.80209,1,1,8010,4005
6087,34792867,0,0.000928474,-0.001478632,0.001365621,-0.4123486,-0.09080624,-9.737983,0,0,40.80218,1,1,8010,4005
6090,34794151,0,0.001678918,-0.0001896529,0.001062391,-0.413278,-0.09057207,-9.737144000000001,0,0,40.80224,1,1,8010,4005
6121,34796700,0,0.001133237,0.000882229,0.0006147235999999999,-0.4146982,-0.09028319999999999,-9.740099000000001,0,0,40.80232,1,1,8010,4005
6124,34800014,0,0.0006013584,0.0005090066,0.001026165,-0.4155366,-0.08953311999999999,-9.743798,0,0,40.80236,1,1,8010,4005
6127,34801892,0,-0.000521193,0.0005021833,0.002130263,-0.4155994,-0.08536489999999999,-9.75074,0,0,40.80242,1,1,8010,4005
6130,34805293,0,-0.001185629,0.00130767,0.003014322,-0.4155194,-0.08192554000000001,-9.753501999999999,0,0,40.80247,1,1,8010,4005
6161,34807605,0,-0.001188727,0.00340543,0.00189647,-0.4133211,-0.07857783,-9.753769999999999,0,0,40.80254,1,1,8010,4005
6165,34810525,0,-0.001763481,0.00433482,0.001077406,-0.4116808,-0.07800791,-9.752216000000001,0,0,40.80257,1,1,8010,4005
6168,34813117,0,-0.001903916,0.004205625,1.882955e-05,-0.4101349,-0.07776088,-9.747464000000001,0,0,40.8026,1,1,8010,4005
6171,34815768,0,-0.001628248,0.003311522,-0.0002213866,-0.4090692,-0.07889858,-9.743197,0,0,40.80262,1,1,8010,4005
6202,34818183,0,-0.0005470189,0.002458236,-0.0007712156,-0.4063161,-0.08264544,-9.739898,0,0,40.80268,1,1,8010,4005
6205,34820813,0,-0.0006825151,0.001498601,-0.001307245,-0.4026164,-0.08858785,-9.737064999999999,0,0,40.80276,1,1,8010,4005
6208,34823402,0,-0.001626465,0.001681225,-0.00130027,-0.4009876,-0.09173509000000001,-9.735110000000001,0,0,40.80283,1,1,8010,4005
6211,34826310,0,-0.003443491,0.001489064,-0.001548592,-0.399672,-0.09573622,-9.735505,0,0,40.80288,1,1,8010,4005
6242,34829504,0,-0.002848268,0.001812349,-0.001039543,-0.3991397,-0.09794416,-9.740399999999999,0,0,40.80294,1,1,8010,4005
6246,34831534,0,-0.001355692,0.001623185,-0.001242685,-0.3984998,-0.09763565,-9.743366,0,0,40.80299,1,1,8010,4005
6249,34833775,0,0.0005773074,0.001028169,-0.001583431,-0.3975537,-0.09509972,-9.748354000000001,0,0,40.80304,1,1,8010,4005
6252,34836256,0,0.001018622,0.0004672329,-0.00107387,-0.3974077,-0.09313361000000001,-9.751383000000001,0,0,40.80308,1,1,8010,4005
6283,34839293,0,0.0002560423,0.0001756223,-0.0005071377,-0.3986989,-0.08935467,-9.755338999999999,0,0,40.80313,1,1,8010,4005
6286,34841802,0,0.0002612627,-7.313622e-06,-0.0004532786,-0.3994719,-0.08715945,-9.75473,0,0,40.80317,1,1,8010,4005
6289,34843651,0,0.0001787091,0.0001872641,-0.0009974329,-0.3982109,-0.08406305,-9.751944,0,0,40.80323,1,1,8010,4005
6292,34846119,0,-0.0002740441,5.750357e-05,-0.001126752,-0.398162,-0.08221322,-9.749688000000001,0,0,40.80328,1,1,8010,4005
6327,34848933,0,-0.0007469741,4.560258e-05,-0.001090247,-0.4003124,-0.08326152000000001,-9.745526,0,0,40.80336,1,1,8010,4005
6333,34851997,0,-0.001334162,0.0004302102,-0.0006255075,-0.4014631,-0.08510043,-9.744436,0,0,40.80341,1,1,8010,4005
6337,34854193,0,-0.002637683,-0.0001260607,0.000681987,-0.4020867,-0.08708755999999999,-9.742048,0,0,40.80354,1,1,8010,4005
6340,34856811,0,-0.003308227,-0.001369036,0.001124272,-0.4029093,-0.08800355,-9.740624,0,0,40.80363,1,1,8010,4005
6371,34859072,0,-0.002750583,-0.002101674,0.0006865613,-0.4038866,-0.09064744,-9.740216999999999,0,0,40.80376,1,1,8010,4005
6375,34862202,0,-0.0007635136,-0.001449724,0.0002559753,-0.4060062,-0.09262089,-9.74053,0,0,40.8039,1,1,8010,4005
6378,34864305,0,0.0002672149,-0.001382548,-3.02673e-05,-0.4066617,-0.09314704,-9.741876,0,0,40.80396,1,1,8010,4005
6381,34866855,0,0.001419078,-0.0008669085,-0.0006000114,-0.4067703,-0.09475821,-9.743931,0,0,40.80407,1,1,8010,4005
6412,34869789,0,0.001180738,-0.0009150371,-0.0005973756,-0.4073416,-0.09508915,-9.744795999999999,0,0,40.80412,1,1,8010,4005
6415,34871625,0,0.0005109056,-0.0004003558,-0.0001273152,-0.4073861,-0.09330454000000001,-9.741697,0,0,40.80419,1,1,8010,4005
6418,34874822,0,0.0006094129999999999,-0.0001336544,-5.584613e-05,-0.4074338,-0.09254485,-9.739962999999999,0,0,40.80423,1,1,8010,4005
6421,34876908,0,-0.0002231012,0.0004572671,-0.0003003059,-0.4074594,-0.09449529,-9.737280999999999,0,0,40.80431,1,1,8010,4005
6452,34879409,0,-0.0004837324,0.0001872077,-0.0003697232,-0.4072554,-0.09603515,-9.736243,0,0,40.80435,1,1,8010,4005
6456,34881897,0,-0.001688167,-0.000351332,-0.0008799352000000001,-0.4085661,-0.09766308999999999,-9.735855000000001,0,0,40.80441,1,1,8010,4005
6459,34884818,0,-0.002905845,-0.0001429105,-0.001178368,-0.4089209,-0.0983377,-9.737945,0,0,40.80445,1,1,8010,4005
6462,34889277,0,-0.00231554,-9.387379e-05,0.0006613905,-0.4023408,-0.09761095,-9.748832999999999,0,0,40.80457,1,1,8010,4005
6493,34891852,0,-0.001387695,-0.000894481,0.001858569,-0.3977967,-0.09552285000000001,-9.75578,0,0,40.80462,1,1,8010,4005
6496,34896916,0,-0.0003962383,-0.001392571,0.001228592,-0.3892904,-0.08725352,-9.764479,0,0,40.80473,1,1,8010,4005
6499,34900005,0,2.230121e-05,-0.000872199,0.0008699947,-0.3863981,-0.08484727,-9.764808,0,0,40.80477,1,1,8010,4005
6530,34902161,0,0.0002997294,-0.0001718193,0.001332138,-0.3837659,-0.08361737,-9.761922999999999,0,0,40.80488,1,1,8010,4005
6535,34904840,0,0.0009412911,0.0008087538,0.001795466,-0.3834245,-0.08440264,-9.753622,0,0,40.80499,1,1,8010,4005
6538,34907791,0,0.001564133,0.001284917,0.002305068,-0.3850344,-0.08516216,-9.746771000000001,0,0,40.80507,1,1,8010,4005
6541,34910491,0,0.001521335,0.001372941,0.002277998,-0.3879173,-0.08630545000000001,-9.740811000000001,0,0,40.8052,1,1,8010,4005
6572,34912599,0,0.001280461,0.0008695801,0.0008993265000000001,-0.3913558,-0.08767074,-9.738032,0,0,40.80534,1,1,8010,4005
6576,34915192,0,0.001253557,0.0008756288,0.0002410685,-0.3937035,-0.08941213000000001,-9.735495,0,0,40.80542,1,1,8010,4005
6579,34918221,0,0.001033561,0.0007220839,7.339865e-05,-0.3951268,-0.09194458,-9.732357,0,0,40.80556,1,1,8010,4005
6582,34920802,0,0.0008652967,0.00109863,0.0004032362,-0.3946562,-0.09313697,-9.732965,0,0,40.80572,1,1,8010,4005
6613,34923553,0,0.001259689,0.002261149,0.001551931,-0.3936171,-0.09465495,-9.738441,0,0,40.80589,1,1,8010,4005
6616,34926298,0,0.00181482,0.002288993,0.001523093,-0.3937803,-0.0947332,-9.744488,0,0,40.80608,1,1,8010,4005
6619,34928343,0,0.002278639,0.001889317,0.001004516,-0.3932303,-0.09378474000000001,-9.747752,0,0,40.80624,1,1,8010,4005
6622,34930703,0,0.002528466,0.00189004,-3.41224e-05,-0.3924953,-0.09116059,-9.749839,0,0,40.80649,1,1,8010,4005
6653,34933372,0,0.002032937,0.001066346,0.0002572729,-0.3909011,-0.08878022000000001,-9.751652,0,0,40.80658,1,1,8010,4005
6657,34936236,0,0.001550832,0.000801768,0.002177636,-0.3848136,-0.08615538,-9.753257,0,0,40.80676,1,1,8010,4005
6662,34939169,0,0.001189021,0.0008436675,0.002971919,-0.3801818,-0.08575267,-9.755239,0,0,40.80688,1,1,8010,4005
6665,34940647,0,0.0006117942,0.001115748,0.003796957,-0.3773251,-0.08611457,-9.761151999999999,0,0,40.80709,1,1,8010,4005
6696,34943485,0,-0.0001574125,0.0009222169,0.004090675,-0.3778238,-0.08438352,-9.764861,0,0,40.80716,1,1,8010,4005
6699,34945825,0,-8.000979e-05,0.001080334,0.003039326,-0.379735,-0.08206883,-9.768509,0,0,40.80732,1,1,8010,4005
6703,34948656,0,0.0003141297,0.001037712,0.002233597,-0.3810651,-0.08258623,-9.767412999999999,0,0,40.80737,1,1,8010,4005
6711,34951293,0,0.001135168,-0.0002681131,0.001319032,-0.3822052,-0.08693281999999999,-9.760671,0,0,40.80746,1,1,8010,4005
6742,34954117,0,0.0007996788,-0.001455246,0.001090746,-0.3853003,-0.09389801,-9.751287,0,0,40.80753,1,1,8010,4005
6746,34956277,0,0.0006290861,-0.001446041,0.001565115,-0.3868527,-0.09877463,-9.746537,0,0,40.80758,1,1,8010,4005
6749,34959369,0,0.001528381,-0.001300594,0.001460283,-0.3900035,-0.1063446,-9.741306,0,0,40.80766,1,1,8010,4005
6752,34961492,0,0.0020081,-0.001813935,0.001529217,-0.3938006,-0.1105068,-9.737781999999999,0,0,40.80772,1,1,8010,4005
6783,34964389,0,0.001976339,-0.001891759,0.0005830008999999999,-0.3995931,-0.1139448,-9.731210000000001,0,0,40.8078,1,1,8010,4005
6786,34966261,0,0.001454972,-0.001855983,-0.0002172258,-0.4022845,-0.115168,-9.729373000000001,0,0,40.80783,1,1,8010,4005
6789,34968611,0,-0.000264055,-0.001737314,0.0002642057,-0.4063276,-0.114472,-9.726692,0,0,40.80787,1,1,8010,4005
6792,34971789,0,-0.001259559,-0.001022179,0.0007950465000000001,-0.4088198,-0.1127056,-9.722785999999999,0,0,40.8079,1,1,8010,4005
6823,34974131,0,-0.001501704,-0.0002888614,0.0008116022,-0.4116244,-0.1079335,-9.718052999999999,0,0,40.80793,1,1,8010,4005
6827,34977089,0,-0.00168764,-0.0004580098,5.788886e-05,-0.4145879,-0.102293,-9.715581999999999,0,0,40.80797,1,1,8010,4005
6830,34979138,0,-0.002316259,-0.001463472,-0.0004632188,-0.4162704,-0.09967524,-9.714821000000001,0,0,40.80799,1,1,8010,4005
6833,34982804,0,-0.002776064,-0.002347684,-0.001731812,-0.4178193,-0.09653929,-9.715408999999999,0,0,40.80802,1,1,8010,4005
6836,34984285,0,-0.002855096,-0.002787973,-0.001441906,-0.4171185,-0.0946152,-9.715586999999999,0,0,40.80804,1,1,8010,4005
6867,34987497,0,-0.002089788,-0.003719517,-0.001358894,-0.4128219,-0.09217999,-9.714380999999999,0,0,40.80806,1,1,8010,4005
6871,34989349,0,-0.001519004,-0.003459362,-0.001508321,-0.4095958,-0.09173718,-9.714478,0,0,40.80806,1,1,8010,4005
6874,34991629,0,-0.001746685,-0.002146557,-0.0009843756,-0.4080047,-0.0887588,-9.714888,0,0,40.80806,1,1,8010,4005
6877,34994843,0,-0.001853558,-0.001446909,-0.001065559,-0.4085287,-0.08570456999999999,-9.713863,0,0,40.80805,1,1,8010,4005
6908,34997184,0,-0.001332603,-0.0009756398,-0.001277466,-0.4084267,-0.08147438,-9.709740999999999,0,0,40.80803,1,1,8010,4005
6911,35002196,0,-0.0008611744,0.0003487684,-0.0007705364,-0.4043783,-0.07968053,-9.705527999999999,0,0,40.808,1,1,8010,4005
6915,35005292,0,-0.001061146,0.001284098,-0.0004077925,-0.4007083,-0.07936223000000001,-9.703276000000001,0,0,40.80799,1,1,8010,4005
6946,35007467,0,-0.0006294736,0.001233832,-0.0006401002,-0.396743,-0.07980110999999999,-9.702859999999999,0,0,40.80798,1,1,8010,4005
6949,35010577,0,-0.000328866,0.0008514383,-0.00148997,-0.395099,-0.08142538000000001,-9.705007999999999,0,0,40.80798,1,1,8010,4005
6952,35013064,0,-0.0007789084,0.0006335737,-0.001769444,-0.3955115,-0.08466205,-9.709744000000001,0,0,40.80798,1,1,8010,4005
6955,35015222,0,-0.001039783,0.0004976315,-0.001415901,-0.3968405,-0.08612916,-9.71261,0,0,40.80798,1,1,8010,4005
6986,35018123,0,-0.001875564,-0.0002334822,-0.001745371,-0.3969735,-0.08612847,-9.716404000000001,0,0,40.80799,1,1,8010,4005
6989,35020336,0,-0.002118731,-0.001559932,-0.001760812,-0.3954894,-0.08477342,-9.719148000000001,0,0,40.80799,1,1,8010,4005
6992,35022915,0,-0.00182409,-0.002697764,-0.0009217905,-0.3932834,-0.08468259,-9.725648,0,0,40.80796,1,1,8010,4005
6995,35025411,0,-0.0009814625,-0.002663878,-0.001198567,-0.3921669,-0.08516845000000001,-9.729345,0,0,40.80793,1,1,8010,4005
7026,35027767,0,0.0006179189000000001,-0.002188697,-0.001717173,-0.3905539,-0.08607011000000001,-9.731239,0,0,40.80788,1,1,8010,4005
7031,35030628,0,0.001702539,-0.001821286,-0.001207242,-0.389789,-0.08756812,-9.731077000000001,0,0,40.80785,1,1,8010,4005
7034,35032874,0,0.0012488,-0.001133315,-0.001223052,-0.3916836,-0.09147433000000001,-9.730677999999999,0,0,40.8078,1,1,8010,4005
7037,35035834,0,1.810443e-05,-0.0008139675,-0.001103903,-0.3944802,-0.09413837999999999,-9.731636,0,0,40.80777,1,1,8010,4005
7068,35038296,0,-0.0002247211,0.00064694,-0.0007905545,-0.39839,-0.09608271,-9.734036,0,0,40.80772,1,1,8010,4005
7072,35041312,0,0.0009857678999999999,0.001427058,-0.0006481106,-0.4005596,-0.09680989,-9.736674000000001,0,0,40.80766,1,1,8010,4005
7075,35043282,0,0.0008562863,0.001920616,-0.0005959023,-0.4013385,-0.09726992,-9.739129,0,0,40.80762,1,1,8010,4005
7078,35046327,0,0.0004259149,0.002307903,-0.0005553007,-0.404069,-0.09882344,-9.746358000000001,0,0,40.80753,1,1,8010,4005
7111,35048674,0,0.001018568,0.001374081,-0.0003879146,-0.4070948,-0.09961415999999999,-9.753339,0,0,40.80743,1,1,8010,4005
7115,35051464,0,0.001899438,0.0002736986,-0.0001124006,-0.4076617,-0.09853359,-9.757569999999999,0,0,40.80736,1,1,8010,4005
7122,35054520,0,0.003101351,-0.001071424,0.000601651,-0.4071489,-0.09584309000000001,-9.763465999999999,0,0,40.80716,1,1,8010,4005
7125,35056921,0,0.002996919,-0.0006504181,0.0009442783,-0.4055718,-0.09471396999999999,-9.766014999999999,0,0,40.80708,1,1,8010,4005
7156,35059779,0,0.002128882,0.0004513508,0.0008814508,-0.4009032,-0.09079395,-9.765102000000001,0,0,40.80693,1,1,8010,4005
7160,35061688,0,0.001858456,0.0004228702,0.0006263866,-0.3938169,-0.08737552,-9.761150000000001,0,0,40.80677,1,1,8010,4005
7163,35064480,0,0.002012494,0.0004127811,0.001319146,-0.389591,-0.08673196,-9.757006000000001,0,0,40.80671,1,1,8010,4005
7166,35067138,0,0.002083978,2.376673e-06,0.001118392,-0.3850037,-0.08665808999999999,-9.750163000000001,0,0,40.8066,1,1,8010,4005
7197,35070144,0,0.002107813,-0.0007186792999999999,0.0001006649,-0.3839927,-0.08504415,-9.741587000000001,0,0,40.80648,1,1,8010,4005
7200,35072161,0,0.00246584,-0.001106555,-0.0008741342,-0.3860275,-0.08299586,-9.736598000000001,0,0,40.80642,1,1,8010,4005
7203,35074998,0,0.002136566,0.000170067,-0.001475283,-0.390666,-0.08223408,-9.731795999999999,0,0,40.80632,1,1,8010,4005
7206,35077691,0,0.001755784,0.0006432952,-0.001075213,-0.3935593,-0.08325224000000001,-9.731695999999999,0,0,40.80626,1,1,8010,4005
7237,35080585,0,0.001936644,0.0005180671,-0.0006367464,-0.397629,-0.08511608,-9.734757999999999,0,0,40.80618,1,1,8010,4005
7241,35083145,0,0.001022742,-0.0001137252,-0.0002607758,-0.4019671,-0.08779299,-9.734285,0,0,40.80611,1,1,8010,4005
7244,35085474,0,0.0005672533,-0.000337778,-7.264228999999999e-05,-0.4041553,-0.0896402,-9.73358,0,0,40.80606,1,1,8010,4005
7248,35087893,0,-0.0003462895,-0.0006851305,-0.0003455791,-0.4047803,-0.09317736,-9.735557999999999,0,0,40.80598,1,1,8010,4005
7279,35090574,0,-0.0007137343,-0.0013249,0.0003736294,-0.4043925,-0.09513937,-9.737294,0,0,40.80593,1,1,8010,4005
7282,35097932,0,-0.0003644142,-0.001487499,0.003430731,-0.3960081,-0.09971815000000001,-9.746563,0,0,40.8058,1,1,8010,4005
7313,35100852,0,-0.0009529646,-0.0008126523,0.002879834,-0.3927543,-0.09988125,-9.745689,0,0,40.80574,1,1,8010,4005
7317,35102923,0,-0.001366295,-0.0009424256,0.002099982,-0.3908124,-0.09963518,-9.743176,0,0,40.80571,1,1,8010,4005
7320,35106076,0,-0.001458181,-0.0003160385,0.001631254,-0.390567,-0.1003218,-9.739459999999999,0,0,40.80567,1,1,8010,4005
7323,35108514,0,-0.0002893621,0.0002657466,0.0009632391,-0.3912562,-0.1007827,-9.737178,0,0,40.80564,1,1,8010,4005
7354,35110889,0,0.0001591144,0.001208932,0.001303008,-0.3933748,-0.1025381,-9.733304,0,0,40.80559,1,1,8010,4005
7358,35113413,0,-0.0005782092,0.001607323,0.001554991,-0.3943835,-0.1035453,-9.73002,0,0,40.80555,1,1,8010,4005
7361,35116080,0,-0.001502773,0.001163274,0.001878271,-0.3964458,-0.1060733,-9.727096,0,0,40.80543,1,1,8010,4005
7364,35119071,0,-0.001504627,-0.0001055571,0.002145045,-0.396809,-0.1077778,-9.727660999999999,0,0,40.80538,1,1,8010,4005
7395,35122040,0,-0.0007349758,-0.001912749,0.002755313,-0.3958802,-0.1108943,-9.733393,0,0,40.80527,1,1,8010,4005
7398,35124231,0,3.920008e-05,-0.001746788,0.002021673,-0.3941345,-0.1108182,-9.737347,0,0,40.80522,1,1,8010,4005
7403,35127102,0,0.001001491,2.687567e-05,0.001522208,-0.3900448,-0.1107351,-9.74155,0,0,40.80514,1,1,8010,4005
7407,35129776,0,0.001067546,0.0007848747,0.001008317,-0.3882659,-0.1107141,-9.744963,0,0,40.80511,1,1,8010,4005
7438,35132135,0,-0.0003036572,0.0008648118,0.0005847765,-0.388372,-0.1114645,-9.747926,0,0,40.80507,1,1,8010,4005
7442,35135191,0,-0.002061051,0.001239892,0.0005853357,-0.3890801,-0.1116125,-9.748149,0,0,40.80504,1,1,8010,4005
7445,35137457,0,-0.002089522,0.001122308,0.0005097999,-0.3887088,-0.1110861,-9.747953000000001,0,0,40.80502,1,1,8010,4005
7448,35140024,0,-0.00243629,0.0008035448,0.0006917547,-0.3901269,-0.111868,-9.745886,0,0,40.80496,1,1,8010,4005
7479,35142779,0,-0.002813163,0.001152669,0.001139375,-0.3925087,-0.1125401,-9.741485000000001,0,0,40.80495,1,1,8010,4005
7483,35144929,0,-0.002817476,0.0003855579,0.001422347,-0.3957448,-0.1110613,-9.732395,0,0,40.80492,1,1,8010,4005
7487,35148060,0,-0.003059228,2.315706e-05,0.00133873,-0.3962029,-0.1084068,-9.726960999999999,0,0,40.80491,1,1,8010,4005
7490,35149684,0,-0.002634414,-0.0004537191,0.001543632,-0.3930157,-0.1030185,-9.721349999999999,0,0,40.80491,1,1,8010,4005
7523,35152121,0,-0.002212452,-0.0006189012,0.001771468,-0.3901082,-0.1002985,-9.717793,0,0,40.80491,1,1,8010,4005
7527,35155199,0,-0.002026093,-0.001136712,0.001088738,-0.3869625,-0.09768554,-9.717492999999999,0,0,40.80494,1,1,8010,4005
7534,35157615,0,-0.002051406,-0.000429089,0.0004489521,-0.3860351,-0.09635831,-9.719115,0,0,40.80495,1,1,8010,4005
7538,35160316,0,-0.002055513,0.00031413,0.0004418814,-0.3837129,-0.0941153,-9.722237,0,0,40.805,1,1,8010,4005
7569,35162648,0,-0.001192396,0.0009958352000000001,0.0008352828,-0.3815871,-0.09197055,-9.725016999999999,0,0,40.80506,1,1,8010,4005
7572,35165279,0,-0.0007504825,0.00177805,0.0009085302,-0.3833999,-0.09095491,-9.726554999999999,0,0,40.80507,1,1,8010,4005
7575,35168580,0,-0.001159842,0.001623628,-0.000791833,-0.3890324,-0.09106035,-9.730114,0,0,40.80508,1,1,8010,4005
7578,35170662,0,-0.001452968,0.0007957408999999999,-0.001883505,-0.3920293,-0.09109274000000001,-9.733014000000001,0,0,40.80507,1,1,8010,4005
7609,35173339,0,-0.0016013,0.000260299,-0.0005938933,-0.395583,-0.09289983,-9.738993000000001,0,0,40.80505,1,1,8010,4005
7613,35175312,0,-0.001717518,0.0005976165,0.0007152567,-0.3987634,-0.09497128000000001,-9.742108999999999,0,0,40.80502,1,1,8010,4005
7616,35177828,0,-0.001753298,0.0007366053,0.0006468589,-0.4018746,-0.09804633,-9.744852,0,0,40.80498,1,1,8010,4005
7619,35180823,0,-0.001272437,-4.206657e-06,0.0002997255,-0.4028623,-0.09926241,-9.745808,0,0,40.80495,1,1,8010,4005
7650,35183533,0,-0.001432068,-0.0004715114,-0.0002571653,-0.4004632,-0.09813906,-9.741092999999999,0,0,40.80493,1,1,8010,4005
7654,35186073,0,-0.002611546,0.0001513279,-0.0008358918,-0.3973808,-0.09276126,-9.735429999999999,0,0,40.80492,1,1,8010,4005
7658,35188156,0,-0.002908824,-3.740028e-06,-0.0007196247,-0.3954592,-0.08801837999999999,-9.733622,0,0,40.80493,1,1,8010,4005
7661,35190743,0,-0.001448046,-0.001123027,-0.001027832,-0.3933186,-0.08330066999999999,-9.732298999999999,0,0,40.80495,1,1,8010,4005
7692,35193486,0,-0.0006675299999999999,-0.001006326,-0.002044794,-0.3929895,-0.08256641000000001,-9.730646999999999,0,0,40.80497,1,1,8010,4005
7695,35201138,0,-0.0007168085,-0.0005684684,-0.003052331,-0.3938845,-0.08415926999999999,-9.724086,0,0,40.80506,1,1,8010,4005
7726,35203701,0,-0.0003423554,0.0005884806,-0.001963935,-0.3942221,-0.08375855,-9.721951000000001,0,0,40.80509,1,1,8010,4005
7730,35206131,0,-0.0005384837,0.001335767,-0.001623802,-0.3949641,-0.08305153,-9.722122000000001,0,0,40.8051,1,1,8010,4005
7733,35209597,0,-0.0009393359,0.002209385,-0.001734168,-0.395268,-0.08339071000000001,-9.718567,0,0,40.80511,1,1,8010,4005
7736,35211498,0,-0.0005910959,0.002249276,-0.001731972,-0.3943633,-0.08406186,-9.715178999999999,0,0,40.80511,1,1,8010,4005
7767,35214576,0,0.0007111118,0.001229447,-0.001598379,-0.3914093,-0.08672017999999999,-9.711292,0,0,40.80513,1,1,8010,4005
7770,35216301,0,0.001410845,-1.999889e-05,-0.001256408,-0.3896472,-0.08918762,-9.710245,0,0,40.80514,1,1,8010,4005
7773,35218661,0,0.001387734,-0.0004729188,2.776563e-05,-0.3894378,-0.09255069,-9.712424,0,0,40.80518,1,1,8010,4005
7776,35221785,0,0.0007640718,-0.0003406909,0.0008763332,-0.3908783,-0.09417889,-9.717082,0,0,40.8052,1,1,8010,4005
7807,35223914,0,0.0007634124,-0.000452059,0.0001518337,-0.394304,-0.09611296,-9.724368999999999,0,0,40.80527,1,1,8010,4005
7811,35227036,0,0.0008901861,-0.0004508639,-0.0004844469,-0.3956467,-0.09538626,-9.727649,0,0,40.80535,1,1,8010,4005
7814,35229304,0,0.001384355,7.042547e-05,-0.0007415395,-0.3948109,-0.09421441999999999,-9.727608999999999,0,0,40.80539,1,1,8010,4005
7817,35232119,0,0.001643807,-3.858307e-05,8.591764e-05,-0.3937637,-0.09062479,-9.727398000000001,0,0,40.80547,1,1,8010,4005
7848,35234652,0,0.00223782,0.0002837336,0.001082723,-0.3935627,-0.08846287,-9.723865999999999,0,0,40.80554,1,1,8010,4005
7851,35237287,0,0.002676981,0.0002230602,0.001693422,-0.3922922,-0.08781994999999999,-9.721734,0,0,40.80558,1,1,8010,4005
7854,35239840,0,0.002362503,0.0006122574,0.002634602,-0.3902853,-0.08810614999999999,-9.720229,0,0,40.80564,1,1,8010,4005
7857,35242569,0,0.00110987,0.0008603591,0.002781342,-0.3897688,-0.08778300999999999,-9.720822,0,0,40.80567,1,1,8010,4005
7888,35245574,0,0.0002354712,-0.000478318,0.002126441,-0.3906129,-0.08473066999999999,-9.71974,0,0,40.80571,1,1,8010,4005
7892,35247558,0,0.0001933281,-0.001496574,0.001812805,-0.3911604,-0.08366678,-9.719469999999999,0,0,40.80574,1,1,8010,4005
7896,35250166,0,0.0003887723,-0.001865524,0.001591267,-0.3897802,-0.08441877,-9.726696,0,0,40.80581,1,1,8010,4005
7899,35252291,0,0.0009469983,-0.002113645,0.001281562,-0.3886077,-0.08588603,-9.733779999999999,0,0,40.80587,1,1,8010,4005
7930,35255146,0,0.0009866358000000001,-0.001517457,0.001923518,-0.389252,-0.08923747999999999,-9.742084999999999,0,0,40.80597,1,1,8010,4005
7934,35258128,0,0.0005621866,-0.001560444,0.001801494,-0.3911237,-0.09130365,-9.745654,0,0,40.80603,1,1,8010,4005
7941,35260628,0,0.0002437409,-0.0009915859,0.0008792958,-0.3967518,-0.09532293999999999,-9.749103,0,0,40.80613,1,1,8010,4005
7944,35262924,0,-0.0003612356,-0.001223595,0.0008219472,-0.4002474,-0.09846410999999999,-9.748813,0,0,40.80618,1,1,8010,4005
7975,35265275,0,-0.000375483,-0.002546023,0.001491298,-0.403236,-0.1012211,-9.747899,0,0,40.80627,1,1,8010,4005
7979,35268168,0,0.0008000567,-0.003690444,0.001473173,-0.4016357,-0.1056038,-9.747662999999999,0,0,40.80637,1,1,8010,4005
7982,35270617,0,0.001452946,-0.003804443,0.001120372,-0.3996411,-0.109325,-9.748697999999999,0,0,40.80642,1,1,8010,4005
7985,35272699,0,0.001780067,-0.002343598,0.0003190424,-0.3987569,-0.1143447,-9.752984,0,0,40.80648,1,1,8010,4005
8016,35275614,0,0.001178412,-0.001215275,0.0001662839,-0.3980084,-0.1158635,-9.758324999999999,0,0,40.80653,1,1,8010,4005
8020,35278193,0,-0.0002764866,0.0007337823,0.0002655117,-0.3970815,-0.114216,-9.763958000000001,0,0,40.80661,1,1,8010,4005
8023,35280866,0,-0.0009398249,0.001333544,0.0003029366,-0.3976279,-0.1118639,-9.764635999999999,0,0,40.80667,1,1,8010,4005
8026,35283167,0,-0.0008454542,0.0008112472,0.0003237362,-0.3997339,-0.1100128,-9.760835999999999,0,0,40.80678,1,1,8010,4005
8057,35285520,0,-0.0001552572,0.00104807,0.0004798277,-0.4039785,-0.1089947,-9.753850999999999,0,0,40.80687,1,1,8010,4005
8060,35287903,0,-0.0002774016,0.001375486,0.0003761458,-0.4066224,-0.1092093,-9.747914,0,0,40.80693,1,1,8010,4005
8064,35291091,0,-6.440305e-05,0.001359372,0.0002897372,-0.4088718,-0.1096594,-9.743587,0,0,40.80698,1,1,8010,4005
8067,35293856,0,-0.001095515,0.0003022447,0.0001904786,-0.4105368,-0.1097813,-9.739594,0,0,40.80705,1,1,8010,4005
8070,35295339,0,-0.002122121,0.0002856392,0.0002422059,-0.4105089,-0.1092815,-9.738733999999999,0,0,40.8071,1,1,8010,4005
8102,35298118,0,-0.002639428,0.001472837,-2.63796e-05,-0.4096392,-0.1065776,-9.737804000000001,0,0,40.80719,1,1,8010,4005
8105,35300464,0,-0.001899565,0.001543979,0.0004520257,-0.4084272,-0.1028444,-9.736851,0,0,40.80725,1,1,8010,4005
8108,35303404,0,-0.001355498,0.001707864,0.0009238935,-0.4054937,-0.09752677,-9.735329999999999,0,0,40.80734,1,1,8010,4005
8111,35306294,0,-0.00140834,0.001364186,0.0009261259,-0.4036061,-0.09551339,-9.734733,0,0,40.8074,1,1,8010,4005
8142,35308549,0,-0.0009524209,0.0004124906,0.0004162657,-0.396321,-0.09291199999999999,-9.734372,0,0,40.80754,1,1,8010,4005
8148,35311814,0,-0.000986762,-0.0002419106,-0.000157535,-0.3917865,-0.09183299,-9.734859,0,0,40.8076,1,1,8010,4005
8151,35313799,0,-0.001395611,-9.128569e-05,-6.266126999999999e-05,-0.3876607,-0.09071878999999999,-9.734791,0,0,40.80769,1,1,8010,4005
8154,35316768,0,-0.0007171939,0.0006259434,0.0002523515,-0.3873209,-0.08969389999999999,-9.731363,0,0,40.80776,1,1,8010,4005
8185,35321926,0,0.000264729,0.0005682822,-0.0006379575,-0.3872446,-0.09103854,-9.717529000000001,0,0,40.80799,1,1,8010,4005
8188,35324449,0,-0.0004658649,0.0002675037,-0.001741513,-0.3879862,-0.09328316,-9.71977,0,0,40.80813,1,1,8010,4005
8191,35327179,0,-0.00113846,0.001482144,-0.001936093,-0.3909932,-0.09835114,-9.728239,0,0,40.80829,1,1,8010,4005
8222,35330154,0,-0.001464957,0.001348156,-0.002072735,-0.3927094,-0.1026575,-9.733676000000001,0,0,40.80845,1,1,8010,4005
8227,35333144,0,-0.001816845,0.0005920408,-0.001893357,-0.3933228,-0.102507,-9.733670999999999,0,0,40.80855,1,1,8010,4005
8231,35335139,0,-0.001461932,-0.0002088443,-0.001607861,-0.3947315,-0.09965251,-9.734935999999999,0,0,40.8087,1,1,8010,4005
8234,35337343,0,-0.001402516,-0.0001173388,-0.001490475,-0.3948126,-0.09696355,-9.735847,0,0,40.80879,1,1,8010,4005
8265,35339859,0,-0.001736929,-0.0004288433,-0.0006228239,-0.3941298,-0.09405439,-9.738391,0,0,40.80895,1,1,8010,4005
8268,35342686,0,-0.001224339,0.0003126404,-0.0006079486,-0.3934437,-0.09223571,-9.74117,0,0,40.80905,1,1,8010,4005
8273,35345245,0,-0.0004802332,0.0009726173000000001,-0.001163309,-0.393269,-0.08888173000000001,-9.743824999999999,0,0,40.80922,1,1,8010,4005
8276,35347314,0,-0.0002705692,0.001026878,-0.0005351754,-0.3945642,-0.0875302,-9.744374000000001,0,0,40.80931,1,1,8010,4005
8307,35350009,0,-3.897541e-06,0.0006107944,0.000734559,-0.3956929,-0.08704779,-9.742079,0,0,40.80944,1,1,8010,4005
8310,35352500,0,0.0001323796,-3.770174e-05,0.0009886331000000001,-0.3956613,-0.08644605,-9.739710000000001,0,0,40.80954,1,1,8010,4005
8313,35355336,0,-0.0001323397,-0.0008884915,0.0004001068,-0.3959506,-0.08529709000000001,-9.738149,0,0,40.8097,1,1,8010,4005
8316,35357916,0,-0.0005193779,-0.0003781533,0.0002395559,-0.3969182,-0.08419147,-9.737833,0,0,40.80979,1,1,8010,4005
8347,35360339,0,-0.001167275,0.001596886,-0.000230604,-0.3989511,-0.084539,-9.736744,0,0,40.80996,1,1,8010,4005
8354,35363186,0,-0.001153977,0.00226469,0.0001308062,-0.4012407,-0.08384976,-9.734387999999999,0,0,40.81014,1,1,8010,4005
8360,35365293,0,-0.0009194185,0.001064596,0.0008490481,-0.4018299,-0.08304952,-9.734462000000001,0,0,40.81023,1,1,8010,4005
8363,35368387,0,-0.0005778009,-0.0003317668,0.001030091,-0.4012946,-0.08295701,-9.735353999999999,0,0,40.81036,1,1,8010,4005
8394,35371385,0,-0.0008680912,-0.0004874479,0.0004193051,-0.3990826,-0.08430108,-9.735858,0,0,40.8106,1,1,8010,4005
8397,35373585,0,-0.0009792812999999999,-0.0001319164,-0.0003357824,-0.3973802,-0.08540361,-9.738479,0,0,40.81069,1,1,8010,4005
8400,35375908,0,-4.533706e-05,0.000261608,-0.000156232,-0.3944274,-0.08689847000000001,-9.741364000000001,0,0,40.81083,1,1,8010,4005
8403,35378579,0,-1.151521e-06,4.477688e-05,0.0004150553,-0.3927856,-0.08725525000000001,-9.740569000000001,0,0,40.81091,1,1,8010,4005
8434,35381566,0,0.0007640345,-7.704088e-06,0.0004740196,-0.3899823,-0.08843421999999999,-9.738459000000001,0,0,40.81105,1,1,8010,4005
8437,35383799,0,0.0009072753999999999,0.0005404312,0.0004008016,-0.3875847,-0.08999815999999999,-9.736738000000001,0,0,40.81115,1,1,8010,4005
8441,35386089,0,0.0005746404,-4.468963e-05,-0.0003149934,-0.3853971,-0.09231842,-9.735115,0,0,40.81129,1,1,8010,4005
8445,35388580,0,0.0006360081,-0.0009143959,-0.0005299453,-0.3839439,-0.09339467,-9.735296,0,0,40.81139,1,1,8010,4005
8476,35391080,0,-0.0003639726,-0.001226809,0.0007003651,-0.3820469,-0.09356780000000001,-9.737905,0,0,40.81153,1,1,8010,4005
8479,35393789,0,-0.001146021,-0.0009240221,0.0007539397,-0.38129,-0.09361549,-9.73901,0,0,40.81163,1,1,8010,4005
8482,35396600,0,-0.001905123,-0.000457237,0.0009880015,-0.3801741,-0.09467821999999999,-9.736027,0,0,40.8118,1,1,8010,4005
8485,35398863,0,-0.002165694,-0.000583085,0.001074552,-0.3789853,-0.09560647,-9.732995000000001,0,0,40.81191,1,1,8010,4005
8516,35401631,0,-0.002110107,-0.001030175,-0.0001683878,-0.379218,-0.09567837999999999,-9.727494,0,0,40.81208,1,1,8010,4005
8519,35403802,0,-0.0007509825,-0.001770336,0.0003315093,-0.3829066,-0.09310698000000001,-9.720541000000001,0,0,40.81226,1,1,8010,4005
8523,35406189,0,1.010101e-05,-0.001436675,0.000426379,-0.3860098,-0.09089158999999999,-9.71551,0,0,40.81239,1,1,8010,4005
8526,35412891,0,0.001771438,-0.0004647878,0.0005144792,-0.3916596,-0.08518898,-9.704542999999999,0,0,40.81277,1,1,8010,4005
8529,35414285,0,0.0008582814,0.0003731076,0.0009067084,-0.3917998,-0.08532589,-9.705306999999999,0,0,40.8129,1,1,8010,4005
8561,35417181,0,0.0006238354999999999,0.001608504,0.001170775,-0.3904142,-0.08635398,-9.709052,0,0,40.81311,1,1,8010,4005
8565,35419913,0,-0.0001885418,0.00129164,0.0003293592,-0.3899786,-0.08680789999999999,-9.713302000000001,0,0,40.81332,1,1,8010,4005
8568,35422678,0,-0.0005402118999999999,0.001309179,-0.0002559895,-0.3902805,-0.08562585,-9.719809,0,0,40.81353,1,1,8010,4005
8571,35424176,0,-0.0001100293,0.00129642,-0.0007721355,-0.39144,-0.08511526,-9.7211,0,0,40.81374,1,1,8010,4005
8602,35426664,0,0.0004448836,0.0003697934,-0.0003709247,-0.392543,-0.0833721,-9.719742,0,0,40.81394,1,1,8010,4005
8605,35429498,0,0.000659874,-0.0009566007,4.258311e-05,-0.3926064,-0.08175939,-9.721263,0,0,40.81406,1,1,8010,4005
8608,35432233,0,0.0008561983,-0.002385593,8.257729e-05,-0.3925346,-0.08011027,-9.727684,0,0,40.81432,1,1,8010,4005
8611,35434863,0,0.001364837,-0.001927649,0.0005114806,-0.3921396,-0.07861263,-9.731792,0,0,40.81451,1,1,8010,4005
8643,35437431,0,0.001181463,-0.001578407,0.0009184263,-0.3910381,-0.07887213,-9.738543999999999,0,0,40.81469,1,1,8010,4005
8646,35440089,0,0.001467291,-0.0008891853,0.0005783034,-0.3881432,-0.08145226999999999,-9.744992,0,0,40.81493,1,1,8010,4005
8649,35442189,0,0.0009267671,-0.0008243014,9.107393e-05,-0.3857386,-0.08337032,-9.746643000000001,0,0,40.81512,1,1,8010,4005
8652,35445303,0,-0.0008187923,-0.0007980834,-0.000275732,-0.3839484,-0.08723257,-9.748561,0,0,40.81533,1,1,8010,4005
8683,35448099,0,-0.001980485,-6.381735e-05,-0.0001930827,-0.3835543,-0.09150618000000001,-9.749694,0,0,40.81552,1,1,8010,4005
8686,35450504,0,-0.00231908,-0.0005127996,-7.573478e-06,-0.3847374,-0.09363601000000001,-9.749957,0,0,40.81566,1,1,8010,4005
8689,35452814,0,-0.002345059,-0.001540057,0.0006190372,-0.3869464,-0.09668942,-9.749765,0,0,40.81586,1,1,8010,4005
8692,35455911,0,-0.001403515,-0.001947823,0.0006473377999999999,-0.3884427,-0.09854300000000001,-9.749639999999999,0,0,40.81607,1,1,8010,4005
8723,35458267,0,-0.0007350792,-0.001698907,0.0009647603,-0.3937083,-0.09951027,-9.747923999999999,0,0,40.81627,1,1,8010,4005
8728,35461117,0,-0.0003536185,-0.0005928687,0.0009000823,-0.402692,-0.09919231000000001,-9.746926999999999,0,0,40.81654,1,1,8010,4005
8731,35463905,0,-0.0003663042,-0.0001969391,0.0002160288,-0.4072662,-0.09960086999999999,-9.746634,0,0,40.81668,1,1,8010,4005
8738,35466794,0,-0.0008017381,-0.0008540633,-0.0008083214,-0.4104973,-0.1002928,-9.748248999999999,0,0,40.81696,1,1,8010,4005
8769,35469138,0,-0.0008197295,-0.001472871,-0.0004046239,-0.4094003,-0.1008936,-9.750546,0,0,40.81716,1,1,8010,4005
8772,35471646,0,-0.0008874618,-0.001261881,-9.510567e-05,-0.4079789,-0.1022196,-9.750731,0,0,40.81741,1,1,8010,4005
8775,35474202,0,-0.001507773,-0.001541346,0.0001939847,-0.4073602,-0.1034925,-9.749274,0,0,40.81754,1,1,8010,4005
8778,35477256,0,-0.001881099,-0.0004326033,0.000172644,-0.4059936,-0.1044001,-9.747476000000001,0,0,40.81779,1,1,8010,4005
8809,35480324,0,-0.001786131,4.537639e-05,3.239403e-05,-0.4017429,-0.1038888,-9.744210000000001,0,0,40.81799,1,1,8010,4005
8813,35482560,0,-0.002015856,0.0002939272,0.0004220373,-0.3991193,-0.1027514,-9.741346999999999,0,0,40.81813,1,1,8010,4005
8816,35484865,0,-0.002427437,-0.00026396,0.0007558768,-0.3962403,-0.1007844,-9.736504999999999,0,0,40.81833,1,1,8010,4005
8819,35487573,0,-0.002159512,-0.0007177515,0.000664832,-0.3952528,-0.09949271,-9.730834,0,0,40.81846,1,1,8010,4005
8850,35490598,0,-0.001434987,-0.0009887322,0.0008925601,-0.3937369,-0.09694786,-9.720407,0,0,40.81866,1,1,8010,4005
8854,35492663,0,-0.001525534,-0.001095206,0.0009024675,-0.3921253,-0.09560233,-9.715019,0,0,40.8188,1,1,8010,4005
8858,35494863,0,-0.0007456969,-0.001917845,0.0007414899,-0.3910379,-0.09490857,-9.70848,0,0,40.81902,1,1,8010,4005
8861,35497490,0,-0.0004143188,-0.001664112,0.001007133,-0.391012,-0.09537411,-9.705090999999999,0,0,40.81918,1,1,8010,4005
8892,35500098,0,-0.0004239006,-0.0009526579,0.001525389,-0.3928576,-0.09465651,-9.700414,0,0,40.8194,1,1,8010,4005
8895,35503541,0,-0.001068999,-0.0006397431000000001,0.001217567,-0.3951228,-0.09353326000000001,-9.699607,0,0,40.81956,1,1,8010,4005
8898,35505614,0,-0.0009277295,-0.0007340922,0.0007781125,-0.3991202,-0.09055185,-9.701879,0,0,40.81979,1,1,8010,4005
8901,35507340,0,-0.0007744623,-0.0007162768,-0.0001023111,-0.4017974,-0.0897765,-9.707565000000001,0,0,40.82002,1,1,8010,4005
8932,35509671,0,-0.000225661,-0.0004841094,-0.0006596682,-0.4022873,-0.08945348,-9.712792,0,0,40.82026,1,1,8010,4005
8936,35512326,0,-0.0007921503,-0.0001819297,-0.0005002478000000001,-0.4019216,-0.08891713,-9.717980000000001,0,0,40.82041,1,1,8010,4005
8939,35515644,0,-0.001910463,0.0002742063,-0.001189241,-0.401183,-0.08955112,-9.724045,0,0,40.82066,1,1,8010,4005
8942,35518357,0,-0.002235614,-0.0002461437,-0.001119947,-0.4005746,-0.09095486999999999,-9.72725,0,0,40.82083,1,1,8010,4005
8945,35519924,0,-0.001314469,-0.001063365,-0.001061701,-0.4003991,-0.09307182999999999,-9.728888,0,0,40.82111,1,1,8010,4005
8976,35522677,0,6.130467e-05,-0.001342394,-0.0008012431,-0.401534,-0.09562229,-9.727479000000001,0,0,40.82138,1,1,8010,4005
8979,35524827,0,0.0006310462,-0.001010774,-0.0007395113,-0.403467,-0.09775461000000001,-9.726677,0,0,40.82157,1,1,8010,4005
8982,35527836,0,0.001038812,-0.000999602,-0.0006772201,-0.4065805,-0.09988342,-9.727653,0,0,40.82184,1,1,8010,4005
8985,35530820,0,0.0005305865000000001,-0.001562486,0.0007808134,-0.408469,-0.0998044,-9.728884000000001,0,0,40.8221,1,1,8010,4005
9016,35533119,0,-0.0005202527,-0.000919712,0.002243724,-0.4102327,-0.09855284,-9.731766,0,0,40.82244,1,1,8010,4005
9021,35535633,0,-0.001787759,0.0002447621,0.00160168,-0.4121186,-0.09578928,-9.733133,0,0,40.82269,1,1,8010,4005
9026,35538875,0,-0.002439196,0.0003799,0.0007938362,-0.4149081,-0.09142693,-9.733114,0,0,40.82293,1,1,8010,4005
9029,35540676,0,-0.002624199,0.0003615976,-0.0002427225,-0.4177138,-0.08862768,-9.735026,0,0,40.82317,1,1,8010,4005
9062,35543784,0,-0.002228815,0.0002064467,7.299241e-05,-0.4198148,-0.08598127,-9.738764,0,0,40.82333,1,1,8010,4005
9065,35545693,0,-0.001218781,-0.000201799,0.0006397779,-0.4198168,-0.08263893,-9.746606999999999,0,0,40.82357,1,1,8010,4005
9068,35548144,0,-0.0001996238,0.0001256321,0.0006227655,-0.4166363,-0.08049911,-9.751792999999999,0,0,40.82373,1,1,8010,4005
9071,35551182,0,0.001210227,0.001184262,0.0004021636,-0.409684,-0.07966221,-9.757006000000001,0,0,40.82402,1,1,8010,4005
9102,35553626,0,0.000532882,0.0006096609,0.0006436103,-0.4048466,-0.08055677,-9.756632,0,0,40.82423,1,1,8010,4005
9106,35556635,0,0.0001311969,-9.72369e-05,0.00154405,-0.4037319,-0.08263763,-9.753691999999999,0,0,40.82436,1,1,8010,4005
9109,35558868,0,-0.000152835,-0.001178821,0.001995436,-0.4057324,-0.0864029,-9.74794,0,0,40.82463,1,1,8010,4005
9112,35561186,0,-0.0001790016,-0.002146276,0.001584148,-0.4082426,-0.08814943,-9.743452,0,0,40.82483,1,1,8010,4005
9143,35564045,0,-0.0004803655,-0.002867624,0.0004880978,-0.4108452,-0.09290013,-9.736126000000001,0,0,40.82512,1,1,8010,4005
9147,35566226,0,-0.0003120793,-0.002815124,-5.947774e-05,-0.4133168,-0.09515509,-9.73329,0,0,40.82528,1,1,8010,4005
9154,35568868,0,-3.438729e-05,-0.0008564834,-0.0006461901,-0.4162717,-0.09524643000000001,-9.731030000000001,0,0,40.82561,1,1,8010,4005
9157,35571114,0,-9.94416e-05,0.000177504,-0.0005044103000000001,-0.4155202,-0.09612838999999999,-9.725879000000001,0,0,40.82585,1,1,8010,4005
9188,35574237,0,0.0001747562,0.000156125,-0.0001613444,-0.4132497,-0.09668864000000001,-9.724218,0,0,40.82607,1,1,8010,4005
9191,35576799,0,-0.0005665553,9.670553e-05,0.0005709807,-0.4106332,-0.09825106,-9.725636,0,0,40.82629,1,1,8010,4005
9194,35578642,0,-0.001599615,-0.001253961,0.0004884899,-0.4055075,-0.10079,-9.732316000000001,0,0,40.82659,1,1,8010,4005
9197,35581050,0,-0.001710425,-0.001519242,0.0002649414,-0.4029281,-0.1018251,-9.734532,0,0,40.82684,1,1,8010,4005
9228,35583888,0,-0.001096159,-0.0004548138,0.0004082475,-0.4013323,-0.1027724,-9.736344000000001,0,0,40.82706,1,1,8010,4005
9232,35586040,0,6.308030999999999e-05,-0.0001992445,0.0002074457,-0.4006076,-0.102372,-9.737045,0,0,40.82721,1,1,8010,4005
9235,35588907,0,0.0003873366,-3.075482e-05,0.0002150746,-0.4005329,-0.1008291,-9.738524,0,0,40.82742,1,1,8010,4005
9239,35591166,0,-5.354013e-05,-0.0004677648,-0.0005941913,-0.3999913,-0.09972541,-9.740885,0,0,40.82758,1,1,8010,4005
9270,35593579,0,-0.000232376,-0.0006481219,-0.001466465,-0.3980318,-0.09828874,-9.745666,0,0,40.82781,1,1,8010,4005
9273,35596811,0,-0.0003943613,-0.0001524034,-0.000937723,-0.3963093,-0.09825564000000001,-9.747192999999999,0,0,40.82796,1,1,8010,4005
9276,35598821,0,-0.0001739917,-1.023969e-06,0.0003758198,-0.3964342,-0.09898516,-9.745362,0,0,40.82819,1,1,8010,4005
9279,35601553,0,-0.0003120017,-0.0008316255,0.0009054563,-0.3976978,-0.09861244,-9.743485,0,0,40.82834,1,1,8010,4005
9310,35603696,0,-0.0009730267,-0.001638496,0.000888061,-0.3983679,-0.09773458,-9.73991,0,0,40.82855,1,1,8010,4005
9314,35606179,0,-0.0008950062,-0.00141833,0.0009887399000000001,-0.3980558,-0.09647182,-9.737686,0,0,40.82869,1,1,8010,4005
9317,35609191,0,-0.0005410558,-0.000726979,0.0005471759,-0.3974311,-0.09271666000000001,-9.736053,0,0,40.82888,1,1,8010,4005
9320,35612604,0,-0.0002187791,-0.000373672,0.0001800343,-0.3976121,-0.08955604,-9.735863999999999,0,0,40.82901,1,1,8010,4005
9323,35617082,0,-0.0009050062,-0.0001002984,0.0002246284,-0.3930946,-0.08165843,-9.738375,0,0,40.82939,1,1,8010,4005
9355,35619872,0,-0.0005808929,-0.0002844779,0.0016439,-0.3889943,-0.08041138,-9.742149,0,0,40.82958,1,1,8010,4005
9358,35622033,0,-0.00028099,-0.0006082213,0.001462906,-0.3868429,-0.08078465999999999,-9.742620000000001,0,0,40.82972,1,1,8010,4005
9361,35624417,0,3.212915e-05,-0.0001096225,0.0004534786,-0.3848854,-0.08244896,-9.742559,0,0,40.82986,1,1,8010,4005
9364,35627054,0,0.0001696406,-0.0002903448,0.000263472,-0.3813089,-0.08753026,-9.739376,0,0,40.83007,1,1,8010,4005
9395,35629923,0,0.0005893536999999999,-0.0002990443,0.000415607,-0.3784843,-0.09023622000000001,-9.736014000000001,0,0,40.83022,1,1,8010,4005
9398,35632689,0,0.0008101707000000001,0.0001054499,8.606083e-05,-0.3763609,-0.09134544999999999,-9.730582,0,0,40.83044,1,1,8010,4005
9401,35634342,0,0.0004501228,-0.0005229901,0.0001245418,-0.3758485,-0.09201508,-9.728061,0,0,40.83058,1,1,8010,4005
9404,35637061,0,6.293098e-05,5.168362e-05,0.0003816206,-0.3749909,-0.09477236,-9.729103,0,0,40.83083,1,1,8010,4005
9436,35639813,0,-4.699639e-06,0.000710659,0.0006998036,-0.3750725,-0.09498286,-9.731821999999999,0,0,40.83095,1,1,8010,4005
9439,35642563,0,0.0002336412,0.001074217,0.001043159,-0.3772634,-0.09300374,-9.736007000000001,0,0,40.83119,1,1,8010,4005
9442,35645029,0,-2.616008e-05,0.0008292524,0.0009936556,-0.3784911,-0.09242459,-9.738484,0,0,40.8313,1,1,8010,4005
9445,35647049,0,-0.0007263366,0.001111605,0.0005019951,-0.3779469,-0.09109974999999999,-9.742150000000001,0,0,40.83153,1,1,8010,4005
9477,35649600,0,-0.0007868767,0.0006739968,0.0001561167,-0.3773648,-0.08928344000000001,-9.745205,0,0,40.83164,1,1,8010,4005
9480,35651893,0,-0.0007681194,-0.0005524377,3.959901e-05,-0.3785315,-0.08508965,-9.747984000000001,0,0,40.83181,1,1,8010,4005
9483,35654863,0,-0.0008548241,-0.0005381445,5.51316e-05,-0.3798315,-0.08254697,-9.749412,0,0,40.83199,1,1,8010,4005
9486,35657337,0,-0.0003690819,-8.930103000000001e-05,-1.24293e-05,-0.3827803,-0.08270609,-9.748200000000001,0,0,40.83216,1,1,8010,4005
9517,35660098,0,6.790635999999999e-05,0.0006824211,-0.0008188115,-0.3854161,-0.08592974,-9.745393999999999,0,0,40.8324,1,1,8010,4005
9520,35662900,0,0.0006601461000000001,0.000539821,-0.001430543,-0.3861118,-0.08870026,-9.742285000000001,0,0,40.83253,1,1,8010,4005
9523,35665486,0,0.001051162,-0.0005051219,-0.001506053,-0.3887438,-0.09090181,-9.737522999999999,0,0,40.83276,1,1,8010,4005
9527,35667303,0,0.0002495011,-0.0009747904,-0.0009784762999999999,-0.39018,-0.0905493,-9.733681000000001,0,0,40.83289,1,1,8010,4005
9563,35669999,0,-0.001146222,-0.0004975838,-0.000158715,-0.3918345,-0.0889069,-9.729979999999999,0,0,40.83305,1,1,8010,4005
9566,35672767,0,-0.001890624,-0.0004898122,0.0003139982,-0.3933585,-0.08824463,-9.728683,0,0,40.83316,1,1,8010,4005
9569,35674760,0,-0.001857653,-0.0009906754,0.0004971036,-0.3971172,-0.08797494,-9.728517999999999,0,0,40.83338,1,1,8010,4005
9572,35677838,0,-0.000759304,-0.0008350218,0.000211424,-0.3999169,-0.08706359,-9.729991,0,0,40.83351,1,1,8010,4005
9603,35680393,0,0.0003063015,0.0001047843,1.015342e-05,-0.4014303,-0.08502472,-9.736568,0,0,40.83377,1,1,8010,4005
9606,35682588,0,4.292032e-06,0.001345422,-0.000117571,-0.4026958,-0.08495392,-9.744187999999999,0,0,40.83404,1,1,8010,4005
9609,35685878,0,-0.0007398913,0.001177988,-0.0009469184,-0.405029,-0.08617176,-9.748514,0,0,40.83418,1,1,8010,4005
9612,35688119,0,-0.000855733,0.0001854919,-0.001962501,-0.4087094,-0.08827408,-9.753717,0,0,40.83443,1,1,8010,4005
9643,35690557,0,3.6865e-05,-0.0008659792,-0.001724251,-0.4106635,-0.09025002,-9.755784999999999,0,0,40.8346,1,1,8010,4005
9647,35693132,0,0.0002548485,-0.001153407,-0.00127548,-0.4122572,-0.09142829,-9.755293,0,0,40.83471,1,1,8010,4005
9650,35695686,0,0.0005925822,-0.001372132,-0.001143425,-0.4134406,-0.09301135000000001,-9.754315,0,0,40.83482,1,1,8010,4005
9653,35698174,0,0.0004738206,-0.0006363997,-0.001480046,-0.4119793,-0.09538946,-9.752563,0,0,40.83498,1,1,8010,4005
9684,35701240,0,-0.0001034031,-0.0007380401,-0.0007653353,-0.408169,-0.09967661999999999,-9.749578,0,0,40.83513,1,1,8010,4005
9687,35703528,0,-0.0003640523,-0.001352283,-0.0008747639,-0.4059303,-0.1019526,-9.747725000000001,0,0,40.83523,1,1,8010,4005
9691,35706089,0,-0.0002667452,-0.001480532,-0.001021404,-0.401224,-0.1047043,-9.746167,0,0,40.83541,1,1,8010,4005
9694,35708441,0,-0.0003490791,-0.002032715,-0.00115034,-0.3970641,-0.105442,-9.743776,0,0,40.83549,1,1,8010,4005
9725,35711114,0,-0.0004232773,-0.001721641,-0.001728358,-0.3920222,-0.1046798,-9.740337,0,0,40.83563,1,1,8010,4005
9729,35715124,0,-0.0007861149,-0.0009759045,-0.001624175,-0.3905694,-0.1020276,-9.738593,0,0,40.83571,1,1,8010,4005
9732,35716601,0,-0.00101078,-8.926197e-05,-0.001642601,-0.3909714,-0.1007284,-9.736781000000001,0,0,40.83588,1,1,8010,4005
9735,35719139,0,-0.00068106,0.0006686827,-0.001044844,-0.3906413,-0.1001235,-9.734349999999999,0,0,40.83596,1,1,8010,4005
9768,35722476,0,-0.001493572,0.000101404,0.0008731151,-0.3905834,-0.09954121,-9.731882000000001,0,0,40.83607,1,1,8010,4005
9772,35724317,0,-0.002517345,1.045026e-05,0.001675741,-0.391815,-0.09898627,-9.733577,0,0,40.83614,1,1,8010,4005
9775,35727099,0,-0.002192866,-0.0001682193,0.002647802,-0.3941588,-0.09932083,-9.736753,0,0,40.83624,1,1,8010,4005
9779,35729696,0,-0.001425561,-0.0007402991,0.003067337,-0.3960337,-0.09748527,-9.737617,0,0,40.83629,1,1,8010,4005
9810,35732056,0,-0.001314977,-0.001388266,0.002530232,-0.4003722,-0.09532663,-9.738372,0,0,40.83638,1,1,8010,4005
9813,35738065,0,-0.001869909,-0.002475187,0.001687237,-0.4018182,-0.092667,-9.732004,0,0,40.83656,1,1,8010,4005
9816,35740329,0,-0.001106006,-0.001937267,0.001052934,-0.401904,-0.09192462,-9.729399000000001,0,0,40.83662,1,1,8010,4005
9847,35742838,0,5.141478e-05,-0.0001972224,0.0002980089,-0.4025495,-0.09243193,-9.728023,0,0,40.83674,1,1,8010,4005
9851,35745246,0,0.0001808608,0.0003135309,-3.338568e-05,-0.4036781,-0.09361368,-9.725861,0,0,40.83679,1,1,8010,4005
9854,35747904,0,0.001179462,-0.0001846266,-0.0007107767,-0.4051975,-0.09436259,-9.724332,0,0,40.83689,1,1,8010,4005
9857,35750777,0,0.001909955,-0.0007299971,-0.0008369802,-0.4063097,-0.0950608,-9.726114000000001,0,0,40.83693,1,1,8010,4005
9888,35753190,0,0.002080671,-0.001174338,0.0004599658,-0.4062627,-0.09741418,-9.729514999999999,0,0,40.83705,1,1,8010,4005
9891,35755897,0,0.001651875,-0.001378889,0.0007773317000000001,-0.4055727,-0.09885752,-9.732248999999999,0,0,40.83711,1,1,8010,4005
9894,35758175,0,0.0004131603,-0.00134203,0.0001342021,-0.4050101,-0.1006014,-9.734961,0,0,40.83724,1,1,8010,4005
9897,35761102,0,-0.000814419,-0.0001672557,0.000879524,-0.4034511,-0.1005011,-9.737310000000001,0,0,40.83733,1,1,8010,4005
9928,35763923,0,-0.0008059717,0.001219809,0.0002247917,-0.4017551,-0.09873468000000001,-9.738242,0,0,40.83742,1,1,8010,4005
9932,35766266,0,-0.0009495277000000001,0.001268185,-0.0004583668,-0.401212,-0.09733308,-9.737632,0,0,40.83747,1,1,8010,4005
9935,35769155,0,-0.001131762,0.0007238488,-0.0002314682,-0.4014309,-0.09545325,-9.736109000000001,0,0,40.83757,1,1,8010,4005
9938,35771190,0,-0.001242653,-0.0002204886,-2.031752e-05,-0.4024047,-0.09276922999999999,-9.735251999999999,0,0,40.83764,1,1,8010,4005
9973,35774295,0,-0.0006697585,-0.001376911,0.0006279328,-0.401613,-0.08716146,-9.731312000000001,0,0,40.8377,1,1,8010,4005
9976,35776230,0,-0.0007526922,-0.0004902647,0.001308786,-0.3997392,-0.08572897,-9.727683000000001,0,0,40.83775,1,1,8010,4005
9979,35778680,0,-0.001672661,-4.664174e-05,0.002595649,-0.3950994,-0.08529386,-9.72406,0,0,40.83788,1,1,8010,4005
9982,35781611,0,-0.001726996,0.0001395542,0.002497462,-0.3929574,-0.0866821,-9.722702999999999,0,0,40.83796,1,1,8010,4005
10013,35783920,0,-0.001143391,-8.979089e-05,0.001531648,-0.3927397,-0.09074804,-9.725922000000001,0,0,40.83812,1,1,8010,4005
10017,35786895,0,-0.0007974593,-0.0005117253,0.000803143,-0.3932766,-0.09385607999999999,-9.728358,0,0,40.83821,1,1,8010,4005
10020,35789116,0,-0.0002060079,-0.0005114542,0.0006207855,-0.3940032,-0.09844019,-9.729623999999999,0,0,40.83836,1,1,8010,4005
10023,35791873,0,-0.0001649743,-0.0007385839,0.0009991602999999999,-0.3948812,-0.1012355,-9.731004,0,0,40.83846,1,1,8010,4005
10054,35794089,0,-0.0003844371,-0.002320607,0.001872339,-0.395657,-0.1035686,-9.731994,0,0,40.8386,1,1,8010,4005
10058,35797268,0,-0.0001636549,-0.002210518,0.00208454,-0.396615,-0.105588,-9.732388,0,0,40.83875,1,1,8010,4005
10061,35799570,0,-8.154529e-05,-0.002497494,0.001188401,-0.3980496,-0.1073837,-9.732032999999999,0,0,40.83884,1,1,8010,4005
10064,35801683,0,0.0002041913,-0.002845327,0.0009999785000000001,-0.3983418,-0.1093783,-9.729219000000001,0,0,40.83897,1,1,8010,4005
10095,35804727,0,0.0001212073,-0.002407956,0.001226932,-0.3978459,-0.1104051,-9.726239,0,0,40.83905,1,1,8010,4005
10098,35806838,0,0.000254429,-0.001759934,0.0002381328,-0.3964143,-0.1104592,-9.724459,0,0,40.83917,1,1,8010,4005
10102,35810658,0,5.465862e-05,-0.0008018212,-0.0002052841,-0.3958373,-0.1097533,-9.723502,0,0,40.83925,1,1,8010,4005
10105,35811864,0,-8.524364e-05,0.0001037771,-0.0009749831,-0.3972332,-0.107675,-9.723201,0,0,40.83937,1,1,8010,4005
10136,35814558,0,-0.0003271623,-0.00038157,-0.001066825,-0.3992043,-0.1058847,-9.724525999999999,0,0,40.83946,1,1,8010,4005
10139,35817013,0,-0.0009198836,-0.001557788,-0.001078495,-0.4009588,-0.1037822,-9.729025,0,0,40.83965,1,1,8010,4005
10142,35819817,0,-0.0009109175,-0.001995743,-0.0007171137,-0.3996389,-0.1020856,-9.732136000000001,0,0,40.83976,1,1,8010,4005
10145,35822608,0,-0.0008337132,-0.001891984,0.0005746185,-0.3952742,-0.09830365000000001,-9.73617,0,0,40.83992,1,1,8010,4005
10176,35825227,0,-0.001392985,-0.001804258,0.0006527907,-0.3923017,-0.09755972,-9.739337000000001,0,0,40.84009,1,1,8010,4005
10179,35827775,0,-0.0009554362,-0.001545732,0.0003456839,-0.3884255,-0.09820137,-9.741758000000001,0,0,40.84025,1,1,8010,4005
10182,35830335,0,0.0001480117,-0.001239791,-0.0001241224,-0.386097,-0.09718081000000001,-9.744011,0,0,40.84035,1,1,8010,4005
10185,35832896,0,0.001205203,-0.0004322098,-0.001027215,-0.3842983,-0.0950598,-9.743542,0,0,40.84051,1,1,8010,4005
10216,35836838,0,0.001271099,0.000122439,-0.0009890196,-0.3850128,-0.09418662,-9.740183,0,0,40.84068,1,1,8010,4005
10219,35838056,0,0.0008314271,4.42561e-05,-0.0006474908,-0.3870831,-0.0939263,-9.733879,0,0,40.84086,1,1,8010,4005
10222,35841061,0,0.000571671,0.0006174765,-0.0003453635,-0.3889912,-0.09238968,-9.730791999999999,0,0,40.84103,1,1,8010,4005
10225,35843519,0,0.0006858595,0.0009314598,-0.000324911,-0.3900552,-0.09016351,-9.728947,0,0,40.84115,1,1,8010,4005
10256,35846552,0,0.0001188882,0.001232673,-7.616496e-05,-0.3905201,-0.08794858,-9.728244,0,0,40.84139,1,1,8010,4005
10259,35848828,0,-0.000331981,0.001528445,-0.0001842505,-0.3912685,-0.08753035000000001,-9.729131000000001,0,0,40.84152,1,1,8010,4005
10263,35850811,0,-0.0008869852,0.001455532,0.0003813936,-0.393656,-0.08751383,-9.733923000000001,0,0,40.84171,1,1,8010,4005
10266,35853225,0,-0.0007717839,0.0006983239,0.0005721332,-0.3945428,-0.08747729999999999,-9.736995,0,0,40.84184,1,1,8010,4005
10297,35855670,0,0.001245799,0.0003668664,0.0003076762,-0.3942635,-0.08673577,-9.739984,0,0,40.84203,1,1,8010,4005
10301,35858850,0,0.00194186,0.0009325711,0.0001123629,-0.3937455,-0.08616106,-9.740254999999999,0,0,40.84216,1,1,8010,4005
10304,35861305,0,0.002800601,0.00182912,0.0003394199,-0.391991,-0.08361378999999999,-9.738507,0,0,40.84234,1,1,8010,4005
10307,35863831,0,0.002851406,0.002180331,0.0001187862,-0.3911045,-0.08259597,-9.734540000000001,0,0,40.84252,1,1,8010,4005
10338,35866473,0,0.001837137,0.001112199,-0.0002731117,-0.3898247,-0.08398095,-9.728023,0,0,40.84268,1,1,8010,4005
10341,35869619,0,0.0002490243,0.0008699493,-0.0007998302,-0.387023,-0.08515273,-9.72193,0,0,40.84289,1,1,8010,4005
10345,35871303,0,-0.0002567103,0.001450377,-0.001148896,-0.3840057,-0.08697336,-9.71998,0,0,40.84303,1,1,8010,4005
10348,35874311,0,2.666803e-05,0.000681743,-0.001255641,-0.3795068,-0.08977817,-9.720447,0,0,40.84322,1,1,8010,4005
10383,35877067,0,2.90038e-05,-0.001133522,-0.0008164214,-0.3770828,-0.09274437000000001,-9.721522,0,0,40.8434,1,1,8010,4005
10386,35879323,0,-0.0004641731,-0.001505052,-0.000582767,-0.3767583,-0.09453511000000001,-9.720844,0,0,40.84347,1,1,8010,4005
10389,35882249,0,-0.0007034366,-0.001283263,-6.457685e-05,-0.3777781,-0.09533622,-9.717105999999999,0,0,40.84358,1,1,8010,4005
10392,35884634,0,-0.0004549185,-0.001440478,1.651218e-05,-0.37827,-0.09453385,-9.713628,0,0,40.84368,1,1,8010,4005
10423,35887330,0,-0.0005869655,-0.001109077,1.046428e-05,-0.3792875,-0.09294577,-9.712108000000001,0,0,40.84378,1,1,8010,4005
10426,35889607,0,-0.001053827,-0.00098152,0.0004393721,-0.3811414,-0.09234446,-9.714392,0,0,40.84391,1,1,8010,4005
10430,35891814,0,-0.0004631578,-0.0001600633,0.0004100951,-0.385251,-0.09171686,-9.718551,0,0,40.84401,1,1,8010,4005
10433,35894857,0,0.0005074932,8.144828e-05,5.38594e-05,-0.3887611,-0.09021762,-9.720325000000001,0,0,40.84406,1,1,8010,4005
10464,35897294,0,-0.0001733084,-0.0001692905,-0.0001205056,-0.3945867,-0.08922067,-9.723522000000001,0,0,40.84414,1,1,8010,4005
10467,35900033,0,-0.001057259,-0.000606661,-0.0004035109,-0.3977555,-0.08972619,-9.724945,0,0,40.84422,1,1,8010,4005
10470,35902604,0,-0.001176413,-0.0008500168,-0.0002130934,-0.3984377,-0.09052636,-9.726251,0,0,40.84428,1,1,8010,4005
10473,35905303,0,-0.001602453,-0.000420295,0.001141659,-0.3991429,-0.09120518,-9.729673,0,0,40.84439,1,1,8010,4005
10504,35907658,0,-0.0008202684,3.093966e-05,0.002309358,-0.3989418,-0.08962837,-9.729296,0,0,40.8445,1,1,8010,4005
10507,35910639,0,-0.0002241419,0.0007938214,0.002491776,-0.3986632,-0.08745775,-9.727893,0,0,40.84456,1,1,8010,4005
10511,35912900,0,0.0002505505,0.0006211017,0.00191525,-0.398699,-0.08711473,-9.726412,0,0,40.84469,1,1,8010,4005
10514,35915594,0,0.000404638,-0.000452335,0.001659707,-0.3984717,-0.08797020999999999,-9.725629,0,0,40.84476,1,1,8010,4005
10545,35921555,0,-0.0006971816,-0.0008468707,0.001895726,-0.3954223,-0.09038897,-9.720466999999999,0,0,40.84499,1,1,8010,4005
10549,35923342,0,-0.001525637,-0.0006052022,0.001620847,-0.3953498,-0.090765,-9.721624,0,0,40.84507,1,1,8010,4005
10552,35925850,0,-0.001614039,-0.000870178,0.0008529329999999999,-0.3961966,-0.09107453,-9.723865,0,0,40.84517,1,1,8010,4005
10586,35929314,0,-0.001428146,-0.001582056,0.0006116531,-0.3994971,-0.09304663000000001,-9.723307999999999,0,0,40.84529,1,1,8010,4005
10589,35932334,0,-0.001472981,-0.0009829095999999999,0.0006032737,-0.4016673,-0.09565699,-9.721783,0,0,40.84537,1,1,8010,4005
10592,35933888,0,-0.0008571869,0.0005709421,0.001109805,-0.403449,-0.09979062,-9.718393000000001,0,0,40.84548,1,1,8010,4005
10595,35936116,0,-0.0002603617,0.001415954,0.001054846,-0.4031425,-0.1006286,-9.717495,0,0,40.8456,1,1,8010,4005
10626,35938829,0,-0.0003296981,0.0009348775,6.680642e-05,-0.4027957,-0.09860530000000001,-9.717473999999999,0,0,40.8457,1,1,8010,4005
10629,35941775,0,-0.0003729722,0.0005127927,-0.0002972841,-0.4026391,-0.09672167,-9.718576000000001,0,0,40.84577,1,1,8010,4005
10632,35944657,0,-0.0003015735,-0.0001944162,0.0005454459,-0.4003471,-0.09390038000000001,-9.723758,0,0,40.84588,1,1,8010,4005
10635,35946122,0,-0.0001487518,-0.000247819,0.0009447639,-0.399817,-0.09239362,-9.727878,0,0,40.84598,1,1,8010,4005
10654,35971565,0,-0.001441853,-0.0002279824,0.0001787619,-0.4091179,-0.08896962999999999,-9.734484999999999,0,0,40.84692,1,1,8010,4005
10659,35973870,0,-0.001509117,-0.0005656233,0.001478288,-0.4074681,-0.08938664,-9.735573,0,0,40.84703,1,1,8010,4005
10662,35976260,0,-0.0009262707,-0.0003237067,0.001720371,-0.4055691,-0.08976936000000001,-9.734484999999999,0,0,40.84713,1,1,8010,4005
10697,35979648,0,0.0002322403,0.0006510032,0.001351672,-0.4037057,-0.08979239,-9.732017000000001,0,0,40.84727,1,1,8010,4005
10700,35981888,0,0.0001415042,0.0008325431,0.0009508287,-0.401796,-0.09050392,-9.731560999999999,0,0,40.84733,1,1,8010,4005
10703,35983907,0,0.0003605658,0.0007090287,0.0002775835,-0.3997025,-0.09199308,-9.729975,0,0,40.84748,1,1,8010,4005
10706,35986154,0,0.000142563,0.0006592924,-0.0001007379,-0.3993064,-0.09368118,-9.729831000000001,0,0,40.8476,1,1,8010,4005
10737,35988770,0,-0.0004641468,0.0006496517,-0.0004172738,-0.4011175,-0.09480867,-9.731807999999999,0,0,40.84778,1,1,8010,4005
10740,35991840,0,-0.0003256633,0.0009049409,-0.0003081657,-0.4032523,-0.09456262,-9.729884999999999,0,0,40.84789,1,1,8010,4005
10744,35994159,0,-0.0009186779,0.001577635,2.899005e-05,-0.403931,-0.09357422999999999,-9.726074000000001,0,0,40.84802,1,1,8010,4005
10747,35996166,0,-0.001402285,0.001167602,0.0003181394,-0.4036075,-0.09275132,-9.724485,0,0,40.84812,1,1,8010,4005
10778,35999179,0,-0.0007034062,0.0001019822,0.001152597,-0.4016823,-0.09251127000000001,-9.721030000000001,0,0,40.84826,1,1,8010,4005
10781,36001546,0,0.000110779,-0.0004453493,0.001022829,-0.3995566,-0.09099952,-9.717750000000001,0,0,40.84835,1,1,8010,4005
10784,36004359,0,0.0002226401,-0.000494595,0.0002947422,-0.3973954,-0.08733961,-9.71275,0,0,40.84848,1,1,8010,4005
10787,36006809,0,-0.0004755892,-1.063692e-05,-0.0004087788,-0.3966591,-0.08585557000000001,-9.709250000000001,0,0,40.84857,1,1,8010,4005
10818,36009132,0,-0.002138558,-0.001245422,-0.001693458,-0.3978283,-0.08578967,-9.704523,0,0,40.84871,1,1,8010,4005
10821,36011339,0,-0.002282916,-0.00197562,-0.002053092,-0.4002219,-0.08572333,-9.703075,0,0,40.84881,1,1,8010,4005
10825,36013772,0,-0.001334536,-0.001501266,-0.0009739285000000001,-0.4036998,-0.08538784000000001,-9.701427000000001,0,0,40.84896,1,1,8010,4005
10828,36017790,0,-0.0006386504,-0.001370237,-7.235596999999999e-05,-0.4058762,-0.08445518,-9.701499,0,0,40.84906,1,1,8010,4005
10831,36022118,0,-0.001303286,-0.001665751,-0.0004317457,-0.4124076,-0.08529713999999999,-9.705266999999999,0,0,40.84933,1,1,8010,4005
10862,36024863,0,-0.001424708,-0.001999234,-0.001223395,-0.4128697,-0.08560349,-9.710473,0,0,40.84946,1,1,8010,4005
10866,36028085,0,-0.002051551,-0.002678322,-0.000701852,-0.412315,-0.08616281000000001,-9.712719999999999,0,0,40.84954,1,1,8010,4005
10869,36029887,0,-0.002525274,-0.003065619,-0.0004077851,-0.4121284,-0.08714386,-9.714928,0,0,40.84962,1,1,8010,4005
10872,36032107,0,-0.002832843,-0.002318655,-0.0006485665,-0.4136463,-0.08920086000000001,-9.719725,0,0,40.84975,1,1,8010,4005
10906,36034560,0,-0.001597444,-0.001005839,-0.0006817103,-0.4121855,-0.09001576999999999,-9.726926000000001,0,0,40.84993,1,1,8010,4005
10909,36037232,0,-0.001064855,-0.0004762186,-0.000245627,-0.4093275,-0.0899813,-9.732457999999999,0,0,40.85004,1,1,8010,4005
10912,36039854,0,-0.0009958851,-0.0001769571,-4.910862e-05,-0.406509,-0.089461,-9.738085999999999,0,0,40.85013,1,1,8010,4005
10915,36042492,0,-0.001390936,-0.0005185328,5.126991e-05,-0.4039068,-0.08957656999999999,-9.742642,0,0,40.85037,1,1,8010,4005
10946,36045391,0,-0.001599638,-0.001144415,0.0003466306,-0.4028533,-0.09152233999999999,-9.743463,0,0,40.85057,1,1,8010,4005
10950,36047367,0,-0.0002073427,-0.0004810794,0.0001809054,-0.4029174,-0.09286419999999999,-9.741324000000001,0,0,40.85077,1,1,8010,4005
10953,36049916,0,0.001785766,-0.0004126922,6.789355000000001e-05,-0.4019028,-0.09280548,-9.738357000000001,0,0,40.85096,1,1,8010,4005
10956,36052193,0,0.002063573,-0.0006005567000000001,0.0006902166,-0.4008552,-0.09236753,-9.738652,0,0,40.85109,1,1,8010,4005
10987,36055179,0,0.001211672,-0.0004594043,0.001238995,-0.3995308,-0.09250916000000001,-9.739905,0,0,40.85129,1,1,8010,4005
10990,36057632,0,0.0003533428,-0.0004623607,0.001449128,-0.3980815,-0.09448608999999999,-9.741384999999999,0,0,40.85142,1,1,8010,4005
10993,36060209,0,-0.00102814,-0.0003398502,0.001778949,-0.3972746,-0.09835517000000001,-9.745234,0,0,40.85162,1,1,8010,4005
10996,36062644,0,-0.001791073,0.0004001803,0.001148473,-0.3976382,-0.1009445,-9.745590999999999,0,0,40.85181,1,1,8010,4005
11027,36065041,0,-0.001784594,0.001495812,0.0007960701,-0.3961094,-0.1050586,-9.746416999999999,0,0,40.852,1,1,8010,4005
11032,36068129,0,-0.001142812,0.001317297,0.0004288243,-0.3943476,-0.1066513,-9.745982,0,0,40.85218,1,1,8010,4005
11035,36070230,0,2.352023e-06,0.000811614,0.0005462376,-0.3915153,-0.1057858,-9.743316,0,0,40.85237,1,1,8010,4005
11039,36072527,0,0.0005420852000000001,0.0006220248,0.0006267914000000001,-0.390052,-0.1041425,-9.742093000000001,0,0,40.85249,1,1,8010,4005
11070,36075214,0,4.915255e-05,-1.027874e-05,0.001077503,-0.3891114,-0.1036216,-9.739209000000001,0,0,40.85268,1,1,8010,4005
11073,36077624,0,0.0001799165,4.925013e-06,0.001417005,-0.3884274,-0.1045263,-9.735137,0,0,40.85282,1,1,8010,4005
11080,36080856,0,-0.0001342299,-0.0006108389,0.0005305319,-0.3887583,-0.1058161,-9.72824,0,0,40.85312,1,1,8010,4005
11083,36082289,0,-0.001281905,-0.0006222624,0.0001882524,-0.3909829,-0.1038037,-9.725657999999999,0,0,40.85339,1,1,8010,4005
11114,36085127,0,-0.001582557,-5.431356e-05,0.001036327,-0.394735,-0.09884515000000001,-9.722212000000001,0,0,40.85373,1,1,8010,4005
11118,36087779,0,-0.0005239582,0.0004839243,0.001357618,-0.3979297,-0.09560088999999999,-9.719522,0,0,40.85399,1,1,8010,4005
11121,36090324,0,-8.375878999999999e-05,0.0004940807,0.001437814,-0.403114,-0.09214645,-9.716908999999999,0,0,40.85437,1,1,8010,4005
11124,36092828,0,-0.0003354056,0.000274054,0.001144106,-0.4059066,-0.09111837,-9.717003,0,0,40.85456,1,1,8010,4005
11155,36095189,0,-0.0007267482,0.0004931384,0.0009995026,-0.4080506,-0.09109584,-9.717249000000001,0,0,40.85485,1,1,8010,4005
11158,36098265,0,-0.001848395,0.001063406,0.0002201555,-0.4081081,-0.09016952,-9.716808,0,0,40.85514,1,1,8010,4005
11161,36100368,0,-0.001462945,0.000754403,-0.0001040531,-0.4077239,-0.08973212,-9.717034999999999,0,0,40.85532,1,1,8010,4005
11164,36103229,0,-0.0002604919,-0.0001490414,0.0002239911,-0.405746,-0.09115841,-9.719364000000001,0,0,40.8556,1,1,8010,4005
11195,36105600,0,0.0002467596,-0.0001666367,-0.0003605703,-0.4019734,-0.09339814,-9.720945,0,0,40.85586,1,1,8010,4005
11199,36107684,0,0.0009837765,-0.0002305691,-0.0007855172,-0.3997646,-0.09378412999999999,-9.722481,0,0,40.85603,1,1,8010,4005
11202,36111087,0,0.001073351,0.0006321248,-0.001385805,-0.3985824,-0.09337566999999999,-9.724569000000001,0,0,40.8562,1,1,8010,4005
11205,36113088,0,0.0007431490999999999,0.001533807,-0.001358195,-0.3978764,-0.09242567,-9.727769,0,0,40.85646,1,1,8010,4005
11236,36116836,0,0.0005918985000000001,0.001843264,-0.000620424,-0.3979929,-0.0905128,-9.730684,0,0,40.85672,1,1,8010,4005
11240,36118383,0,0.0005223203,0.001989067,0.0002168931,-0.3981259,-0.08561162,-9.735260999999999,0,0,40.85689,1,1,8010,4005
11244,36121099,0,-0.0007379429,0.001127632,0.0005508797,-0.3990068,-0.08267297999999999,-9.735196999999999,0,0,40.85715,1,1,8010,4005
11247,36124626,0,-0.00155642,0.0005858566,0.0001689814,-0.3981432,-0.08265891,-9.733860999999999,0,0,40.85733,1,1,8010,4005
11250,36126777,0,-0.001830281,-0.0002222761,0.0003966473,-0.3947924,-0.08396333,-9.73,0,0,40.85762,1,1,8010,4005
11281,36128959,0,-0.002294041,-0.0002137856,0.0008597319,-0.3910131,-0.08481488,-9.727105999999999,0,0,40.85791,1,1,8010,4005
11286,36132270,0,-0.001533527,-0.0007788732,-0.0001549163,-0.3873067,-0.08458757,-9.724541,0,0,40.85822,1,1,8010,4005
11289,36134610,0,-0.001082118,-0.0006993786000000001,-0.001008064,-0.3865529,-0.08588107,-9.723814000000001,0,0,40.85841,1,1,8010,4005
11292,36137171,0,-0.0005023844,-0.001341125,-0.00036697,-0.3877686,-0.08844538,-9.723751,0,0,40.85881,1,1,8010,4005
11323,36140581,0,-0.0005136245,-0.001562099,0.0003835868,-0.3868635,-0.09142138,-9.723015999999999,0,0,40.85911,1,1,8010,4005
11327,36142161,0,-0.0005726766,-0.001178622,0.0009900733000000001,-0.3870696,-0.09223415,-9.723765999999999,0,0,40.85931,1,1,8010,4005
11330,36144726,0,-0.0002938457,-0.001017129,0.001349608,-0.3875744,-0.09200883999999999,-9.724151000000001,0,0,40.85961,1,1,8010,4005
11333,36147323,0,-6.134641999999999e-05,-0.0009887753,0.0008450957,-0.3886441,-0.09079126,-9.723894,0,0,40.85979,1,1,8010,4005
11365,36150529,0,0.0001558781,-0.001921847,0.0003014864,-0.3913888,-0.08971448999999999,-9.721757,0,0,40.86005,1,1,8010,4005
11368,36152692,0,0.0004464279,-0.001462643,-0.0001722544,-0.3937265,-0.08977789,-9.719977,0,0,40.8603,1,1,8010,4005
11371,36155020,0,0.0005677896,-0.0002893007,-0.000159264,-0.3958735,-0.09055804000000001,-9.721617999999999,0,0,40.86054,1,1,8010,4005
11374,36157513,0,0.0004355242,0.0006166617,0.0005702934,-0.397201,-0.09124245,-9.724104000000001,0,0,40.8607,1,1,8010,4005
11405,36160152,0,-0.0005417337,-2.179425e-05,0.001017473,-0.3980726,-0.09268630999999999,-9.728929000000001,0,0,40.86091,1,1,8010,4005
11409,36162667,0,-0.0009629928,-0.0007590125000000001,0.0014647,-0.3976529,-0.09404495,-9.732148,0,0,40.86105,1,1,8010,4005
11412,36165262,0,-0.0008640882,-0.0007689875,0.001526176,-0.3969121,-0.09594419999999999,-9.737912,0,0,40.86126,1,1,8010,4005
11415,36167351,0,-0.0003226094,-0.0008465685,0.001031873,-0.3960089,-0.09584138,-9.742043000000001,0,0,40.8614,1,1,8010,4005
11446,36169807,0,-0.0007756406,5.046347e-05,0.0002345299,-0.3945276,-0.09549908999999999,-9.745255999999999,0,0,40.86162,1,1,8010,4005
11451,36172609,0,-0.001040932,0.000218741,-0.0009716574,-0.3943254,-0.0972722,-9.745357,0,0,40.86185,1,1,8010,4005
11456,36175261,0,-0.001036059,0.0003499691,-0.001346558,-0.3937013,-0.1001606,-9.743017999999999,0,0,40.86217,1,1,8010,4005
11459,36177608,0,-0.001046634,0.0007461798,-0.0009889952,-0.3925061,-0.1010216,-9.742374999999999,0,0,40.86233,1,1,8010,4005
11490,36180541,0,-0.001526245,0.0005974196,-0.0003972986,-0.392062,-0.1007832,-9.740864,0,0,40.86262,1,1,8010,4005
11497,36182850,0,-0.002127611,0.000164927,-0.0001818672,-0.3917216,-0.1004464,-9.739658,0,0,40.86277,1,1,8010,4005
11500,36185115,0,-0.002319039,-0.0003743086,-0.0009459581,-0.3913248,-0.1014399,-9.738168999999999,0,0,40.86308,1,1,8010,4005
11503,36187758,0,-0.002053544,-0.0002185386,-0.001820702,-0.3915352,-0.1019457,-9.737287,0,0,40.8633,1,1,8010,4005
11534,36190183,0,-0.0009588882,-0.0003963225,-0.002139258,-0.3921908,-0.1017395,-9.734152,0,0,40.86354,1,1,8010,4005
11538,36193292,0,0.0001264605,-0.0002504887,-0.0005257575,-0.3933728,-0.1013928,-9.731638,0,0,40.86386,1,1,8010,4005
11541,36195304,0,-1.98648e-05,8.180059e-05,0.0002451485,-0.3943243,-0.1007651,-9.732429,0,0,40.86411,1,1,8010,4005
11544,36197793,0,-0.001323851,0.0004941405,0.0002764621,-0.3953111,-0.1003137,-9.737594,0,0,40.86444,1,1,8010,4005
11575,36200887,0,-0.001579615,0.000584729,-0.0008247512,-0.3960779,-0.09935266,-9.740777,0,0,40.86459,1,1,8010,4005
11578,36202829,0,-0.001407065,0.0007739943,-0.001542404,-0.4003007,-0.09659702000000001,-9.741999,0,0,40.86489,1,1,8010,4005
11581,36205653,0,-0.00150884,0.0009098875,-0.001119789,-0.403103,-0.09444271999999999,-9.741040999999999,0,0,40.86504,1,1,8010,4005
11584,36207804,0,-0.001864432,-0.0002122563,-6.177082e-05,-0.4058025,-0.08979544,-9.735749999999999,0,0,40.86531,1,1,8010,4005
11615,36210157,0,-0.001723263,-0.0006372172,0.0009012555,-0.4062747,-0.08711365,-9.730022999999999,0,0,40.86543,1,1,8010,4005
11619,36213187,0,-0.001827739,-0.00122705,0.001276165,-0.4059192,-0.0854679,-9.718699000000001,0,0,40.86562,1,1,8010,4005
11622,36215508,0,-0.001290791,-0.0007319654,0.0003284236,-0.4042666,-0.08509522999999999,-9.713359000000001,0,0,40.86575,1,1,8010,4005
